receivedPhoneTimestamp,respeckTimestamp,packetSeqNum,sampleSeqNum,accelX,accelY,accelZ
1759668793082,796815485,6094,0,-0.214111328125,-0.90875244140625,0.28338623046875
1759668793082,796815485,6094,1,-0.19873046875,-0.91363525390625,0.30389404296875
1759668793082,796815485,6094,2,-0.216064453125,-0.92340087890625,0.32708740234375
1759668793082,796815485,6094,3,-0.207763671875,-0.90704345703125,0.27386474609375
1759668793082,796815485,6094,4,-0.188720703125,-0.93023681640625,0.24212646484375
1759668793082,796815485,6094,5,-0.192138671875,-0.94317626953125,0.24114990234375
1759668793082,796815485,6094,6,-0.172119140625,-0.91607666015625,0.20770263671875
1759668793082,796815485,6094,7,-0.201416015625,-0.95709228515625,0.26165771484375
1759668793082,796815485,6094,8,-0.205078125,-0.92755126953125,0.27069091796875
1759668793082,796815485,6094,9,-0.1767578125,-0.92779541015625,0.25604248046875
1759668793082,796815485,6094,10,-0.18310546875,-0.92364501953125,0.28289794921875
1759668793082,796815485,6094,11,-0.193115234375,-0.94146728515625,0.27288818359375
1759668793082,796815485,6094,12,-0.19677734375,-0.92437744140625,0.28948974609375
1759668793082,796815485,6094,13,-0.192138671875,-0.92657470703125,0.28558349609375
1759668793082,796815485,6094,14,-0.163818359375,-0.92877197265625,0.26776123046875
1759668793082,796815485,6094,15,-0.194091796875,-0.92071533203125,0.22650146484375
1759668793082,796815485,6094,16,-0.1884765625,-0.92584228515625,0.23016357421875
1759668793082,796815485,6094,17,-0.17138671875,-0.93707275390625,0.22503662109375
1759668793082,796815485,6094,18,-0.20263671875,-0.94219970703125,0.26434326171875
1759668793082,796815485,6094,19,-0.1962890625,-0.93292236328125,0.27679443359375
1759668793082,796815485,6094,20,-0.19921875,-0.92608642578125,0.26409912109375
1759668793082,796815485,6094,21,-0.185546875,-0.92852783203125,0.28192138671875
1759668793082,796815485,6094,22,-0.209716796875,-0.93145751953125,0.26312255859375
1759668793082,796815485,6094,23,-0.2099609375,-0.93829345703125,0.26580810546875
1759668793082,796815485,6094,24,-0.205322265625,-0.93389892578125,0.26385498046875
1759668793082,796815485,6094,25,-0.1787109375,-0.92730712890625,0.25067138671875
1759668793082,796815485,6094,26,-0.173828125,-0.93951416015625,0.22113037109375
1759668793082,796815485,6094,27,-0.17724609375,-0.92047119140625,0.20892333984375
1759668793082,796815485,6094,28,-0.17578125,-0.95733642578125,0.20916748046875
1759668793082,796815485,6094,29,-0.197265625,-0.93341064453125,0.23187255859375
1759668793082,796815485,6094,30,-0.204833984375,-0.94805908203125,0.25164794921875
1759668793082,796815485,6094,31,-0.185302734375,-0.93292236328125,0.24945068359375
1759668795784,796818064,6095,0,-0.174560546875,-0.93414306640625,0.25189208984375
1759668795784,796818064,6095,1,-0.1953125,-0.93096923828125,0.27020263671875
1759668795784,796818064,6095,2,-0.204833984375,-0.93878173828125,0.26336669921875
1759668795784,796818064,6095,3,-0.190185546875,-0.93560791015625,0.26287841796875
1759668795784,796818064,6095,4,-0.175048828125,-0.94122314453125,0.26190185546875
1759668795784,796818064,6095,5,-0.176513671875,-0.91461181640625,0.24700927734375
1759668795784,796818064,6095,6,-0.1767578125,-0.91729736328125,0.21917724609375
1759668795784,796818064,6095,7,-0.197265625,-0.94976806640625,0.23944091796875
1759668795784,796818064,6095,8,-0.1943359375,-0.93170166015625,0.25872802734375
1759668795784,796818064,6095,9,-0.19287109375,-0.93218994140625,0.27093505859375
1759668795784,796818064,6095,10,-0.205078125,-0.92291259765625,0.27874755859375
1759668795784,796818064,6095,11,-0.216796875,-0.92364501953125,0.28240966796875
1759668795784,796818064,6095,12,-0.185302734375,-0.93438720703125,0.28656005859375
1759668795784,796818064,6095,13,-0.203857421875,-0.93341064453125,0.25775146484375
1759668795784,796818064,6095,14,-0.177001953125,-0.92486572265625,0.26434326171875
1759668795784,796818064,6095,15,-0.19384765625,-0.93829345703125,0.26263427734375
1759668795784,796818064,6095,16,-0.175537109375,-0.91534423828125,0.22186279296875
1759668795784,796818064,6095,17,-0.18994140625,-0.93682861328125,0.24749755859375
1759668795784,796818064,6095,18,-0.191162109375,-0.93438720703125,0.22625732421875
1759668795784,796818064,6095,19,-0.207763671875,-0.94415283203125,0.25408935546875
1759668795784,796818064,6095,20,-0.221435546875,-0.93072509765625,0.27215576171875
1759668795784,796818064,6095,21,-0.2041015625,-0.91949462890625,0.27142333984375
1759668795784,796818064,6095,22,-0.218505859375,-0.91827392578125,0.28387451171875
1759668795784,796818064,6095,23,-0.189208984375,-0.94122314453125,0.27191162109375
1759668795784,796818064,6095,24,-0.210693359375,-0.92828369140625,0.28045654296875
1759668795784,796818064,6095,25,-0.178955078125,-0.92364501953125,0.27264404296875
1759668795784,796818064,6095,26,-0.192138671875,-0.91265869140625,0.23944091796875
1759668795784,796818064,6095,27,-0.196044921875,-0.94854736328125,0.21429443359375
1759668795784,796818064,6095,28,-0.17529296875,-0.93560791015625,0.20672607421875
1759668795784,796818064,6095,29,-0.19970703125,-0.94610595703125,0.23822021484375
1759668795784,796818064,6095,30,-0.213134765625,-0.94146728515625,0.22161865234375
1759668795784,796818064,6095,31,-0.208984375,-0.93975830078125,0.22283935546875
1759668798484,796820643,6096,0,-0.20703125,-0.94024658203125,0.23504638671875
1759668798484,796820643,6096,1,-0.20849609375,-0.93707275390625,0.24554443359375
1759668798484,796820643,6096,2,-0.20166015625,-0.92877197265625,0.25701904296875
1759668798484,796820643,6096,3,-0.2001953125,-0.94195556640625,0.24334716796875
1759668798484,796820643,6096,4,-0.20166015625,-0.94635009765625,0.20208740234375
1759668798484,796820643,6096,5,-0.193359375,-0.94024658203125,0.19915771484375
1759668798484,796820643,6096,6,-0.202392578125,-0.94464111328125,0.19451904296875
1759668798484,796820643,6096,7,-0.189697265625,-0.92926025390625,0.17547607421875
1759668798484,796820643,6096,8,-0.188720703125,-0.97247314453125,0.18768310546875
1759668798484,796820643,6096,9,-0.20947265625,-0.94146728515625,0.19354248046875
1759668798484,796820643,6096,10,-0.21044921875,-0.94683837890625,0.23358154296875
1759668798484,796820643,6096,11,-0.215576171875,-0.94976806640625,0.25189208984375
1759668798484,796820643,6096,12,-0.194091796875,-0.93487548828125,0.23260498046875
1759668798484,796820643,6096,13,-0.193359375,-0.93511962890625,0.21990966796875
1759668798484,796820643,6096,14,-0.20166015625,-0.94927978515625,0.21209716796875
1759668798484,796820643,6096,15,-0.188232421875,-0.93218994140625,0.20404052734375
1759668798484,796820643,6096,16,-0.182373046875,-0.91436767578125,0.20013427734375
1759668798484,796820643,6096,17,-0.18505859375,-0.96368408203125,0.23333740234375
1759668798484,796820643,6096,18,-0.2255859375,-0.94830322265625,0.22625732421875
1759668798484,796820643,6096,19,-0.219970703125,-0.92022705078125,0.24237060546875
1759668798484,796820643,6096,20,-0.20751953125,-0.92828369140625,0.26165771484375
1759668798484,796820643,6096,21,-0.217529296875,-0.92633056640625,0.27874755859375
1759668798484,796820643,6096,22,-0.220458984375,-0.92242431640625,0.28387451171875
1759668798484,796820643,6096,23,-0.219482421875,-0.93609619140625,0.26165771484375
1759668798484,796820643,6096,24,-0.2236328125,-0.92559814453125,0.22674560546875
1759668798484,796820643,6096,25,-0.1923828125,-0.93145751953125,0.21868896484375
1759668798484,796820643,6096,26,-0.216552734375,-0.93243408203125,0.23211669921875
1759668798484,796820643,6096,27,-0.1796875,-0.94830322265625,0.23504638671875
1759668798484,796820643,6096,28,-0.211181640625,-0.93121337890625,0.22869873046875
1759668798484,796820643,6096,29,-0.19775390625,-0.92242431640625,0.28143310546875
1759668798484,796820643,6096,30,-0.209228515625,-0.92047119140625,0.30340576171875
1759668798484,796820643,6096,31,-0.226318359375,-0.91558837890625,0.29046630859375
1759668800884,796823222,6097,0,-0.238525390625,-0.93341064453125,0.26019287109375
1759668800884,796823222,6097,1,-0.220947265625,-0.92926025390625,0.25799560546875
1759668800884,796823222,6097,2,-0.206787109375,-0.93341064453125,0.29046630859375
1759668800884,796823222,6097,3,-0.19921875,-0.89678955078125,0.23773193359375
1759668800884,796823222,6097,4,-0.210693359375,-0.92486572265625,0.26580810546875
1759668800884,796823222,6097,5,-0.20703125,-0.93218994140625,0.26361083984375
1759668800884,796823222,6097,6,-0.219482421875,-0.93414306640625,0.26287841796875
1759668800884,796823222,6097,7,-0.20947265625,-0.90386962890625,0.27459716796875
1759668800884,796823222,6097,8,-0.20947265625,-0.92462158203125,0.30413818359375
1759668800884,796823222,6097,9,-0.23291015625,-0.92022705078125,0.32708740234375
1759668800884,796823222,6097,10,-0.232666015625,-0.90679931640625,0.29608154296875
1759668800884,796823222,6097,11,-0.209716796875,-0.91192626953125,0.30755615234375
1759668800884,796823222,6097,12,-0.2041015625,-0.91339111328125,0.28973388671875
1759668800884,796823222,6097,13,-0.210693359375,-0.90924072265625,0.25921630859375
1759668800884,796823222,6097,14,-0.21435546875,-0.92291259765625,0.25482177734375
1759668800884,796823222,6097,15,-0.206298828125,-0.93609619140625,0.24163818359375
1759668800884,796823222,6097,16,-0.229248046875,-0.92584228515625,0.28338623046875
1759668800884,796823222,6097,17,-0.206298828125,-0.91827392578125,0.30560302734375
1759668800884,796823222,6097,18,-0.210693359375,-0.90850830078125,0.32073974609375
1759668800884,796823222,6097,19,-0.22998046875,-0.91339111328125,0.30120849609375
1759668800884,796823222,6097,20,-0.224609375,-0.91998291015625,0.29949951171875
1759668800884,796823222,6097,21,-0.2001953125,-0.92193603515625,0.29656982421875
1759668800884,796823222,6097,22,-0.223876953125,-0.90435791015625,0.27508544921875
1759668800884,796823222,6097,23,-0.203369140625,-0.89849853515625,0.24407958984375
1759668800884,796823222,6097,24,-0.203125,-0.94293212890625,0.25579833984375
1759668800884,796823222,6097,25,-0.203125,-0.93170166015625,0.23992919921875
1759668800884,796823222,6097,26,-0.2373046875,-0.93682861328125,0.27044677734375
1759668800884,796823222,6097,27,-0.2099609375,-0.93487548828125,0.27191162109375
1759668800884,796823222,6097,28,-0.1982421875,-0.91680908203125,0.28509521484375
1759668800884,796823222,6097,29,-0.230712890625,-0.91241455078125,0.29998779296875
1759668800884,796823222,6097,30,-0.226806640625,-0.92047119140625,0.29461669921875
1759668800884,796823222,6097,31,-0.211669921875,-0.91973876953125,0.29412841796875
1759668803583,796825802,6098,0,-0.2021484375,-0.90802001953125,0.26800537109375
1759668803583,796825802,6098,1,-0.2099609375,-0.91046142578125,0.25457763671875
1759668803583,796825802,6098,2,-0.21826171875,-0.93145751953125,0.27728271484375
1759668803583,796825802,6098,3,-0.1953125,-0.91876220703125,0.27142333984375
1759668803583,796825802,6098,4,-0.220703125,-0.91851806640625,0.28265380859375
1759668803583,796825802,6098,5,-0.2265625,-0.92340087890625,0.30682373046875
1759668803583,796825802,6098,6,-0.209716796875,-0.92486572265625,0.30657958984375
1759668803583,796825802,6098,7,-0.197509765625,-0.91290283203125,0.29779052734375
1759668803583,796825802,6098,8,-0.222412109375,-0.92022705078125,0.28875732421875
1759668803583,796825802,6098,9,-0.207763671875,-0.91949462890625,0.28192138671875
1759668803583,796825802,6098,10,-0.202880859375,-0.91265869140625,0.28192138671875
1759668803583,796825802,6098,11,-0.19287109375,-0.91949462890625,0.26483154296875
1759668803583,796825802,6098,12,-0.204833984375,-0.92681884765625,0.24432373046875
1759668803583,796825802,6098,13,-0.19482421875,-0.92022705078125,0.23846435546875
1759668803583,796825802,6098,14,-0.1943359375,-0.96002197265625,0.26556396484375
1759668803583,796825802,6098,15,-0.22265625,-0.94146728515625,0.27215576171875
1759668803583,796825802,6098,16,-0.21630859375,-0.89141845703125,0.26214599609375
1759668803583,796825802,6098,17,-0.238037109375,-0.93121337890625,0.30364990234375
1759668803583,796825802,6098,18,-0.244140625,-0.90826416015625,0.31317138671875
1759668803583,796825802,6098,19,-0.235107421875,-0.90533447265625,0.30731201171875
1759668803583,796825802,6098,20,-0.234619140625,-0.91168212890625,0.29412841796875
1759668803583,796825802,6098,21,-0.22314453125,-0.91070556640625,0.26141357421875
1759668803583,796825802,6098,22,-0.206787109375,-0.91632080078125,0.27288818359375
1759668803583,796825802,6098,23,-0.194580078125,-0.92584228515625,0.30316162109375
1759668803583,796825802,6098,24,-0.231689453125,-0.91094970703125,0.27191162109375
1759668803583,796825802,6098,25,-0.22607421875,-0.91168212890625,0.30487060546875
1759668803583,796825802,6098,26,-0.2275390625,-0.91094970703125,0.31658935546875
1759668803583,796825802,6098,27,-0.235107421875,-0.91583251953125,0.31829833984375
1759668803583,796825802,6098,28,-0.24853515625,-0.90484619140625,0.29705810546875
1759668803583,796825802,6098,29,-0.224609375,-0.91778564453125,0.31854248046875
1759668803583,796825802,6098,30,-0.213623046875,-0.91436767578125,0.29510498046875
1759668803583,796825802,6098,31,-0.20703125,-0.90679931640625,0.27679443359375
1759668805984,796828381,6099,0,-0.20458984375,-0.90802001953125,0.24261474609375
1759668805984,796828381,6099,1,-0.218505859375,-0.93658447265625,0.25823974609375
1759668805984,796828381,6099,2,-0.210205078125,-0.93414306640625,0.25628662109375
1759668805984,796828381,6099,3,-0.21044921875,-0.92388916015625,0.28216552734375
1759668805984,796828381,6099,4,-0.224853515625,-0.92120361328125,0.28875732421875
1759668805984,796828381,6099,5,-0.207275390625,-0.91607666015625,0.30413818359375
1759668805984,796828381,6099,6,-0.23291015625,-0.92559814453125,0.29486083984375
1759668805984,796828381,6099,7,-0.229736328125,-0.91607666015625,0.28607177734375
1759668805984,796828381,6099,8,-0.2099609375,-0.91998291015625,0.27362060546875
1759668805984,796828381,6099,9,-0.187744140625,-0.89874267578125,0.25384521484375
1759668805984,796828381,6099,10,-0.218505859375,-0.93804931640625,0.27044677734375
1759668805984,796828381,6099,11,-0.2392578125,-0.92901611328125,0.26580810546875
1759668805984,796828381,6099,12,-0.199462890625,-0.91192626953125,0.28363037109375
1759668805984,796828381,6099,13,-0.22021484375,-0.90338134765625,0.34246826171875
1759668805984,796828381,6099,14,-0.233154296875,-0.89605712890625,0.34002685546875
1759668805984,796828381,6099,15,-0.2431640625,-0.91510009765625,0.31658935546875
1759668805984,796828381,6099,16,-0.223876953125,-0.90679931640625,0.30926513671875
1759668805984,796828381,6099,17,-0.218505859375,-0.91510009765625,0.31292724609375
1759668805984,796828381,6099,18,-0.20947265625,-0.91632080078125,0.28826904296875
1759668805984,796828381,6099,19,-0.206298828125,-0.90338134765625,0.25628662109375
1759668805984,796828381,6099,20,-0.23046875,-0.92999267578125,0.30438232421875
1759668805984,796828381,6099,21,-0.20361328125,-0.90679931640625,0.29461669921875
1759668805984,796828381,6099,22,-0.240234375,-0.90972900390625,0.28802490234375
1759668805984,796828381,6099,23,-0.232421875,-0.90850830078125,0.31341552734375
1759668805984,796828381,6099,24,-0.240966796875,-0.90484619140625,0.32806396484375
1759668805984,796828381,6099,25,-0.242431640625,-0.90728759765625,0.33831787109375
1759668805984,796828381,6099,26,-0.23828125,-0.90045166015625,0.31707763671875
1759668805984,796828381,6099,27,-0.233154296875,-0.92657470703125,0.28875732421875
1759668805984,796828381,6099,28,-0.225830078125,-0.90997314453125,0.27313232421875
1759668805984,796828381,6099,29,-0.21240234375,-0.91607666015625,0.24920654296875
1759668805984,796828381,6099,30,-0.19482421875,-0.91094970703125,0.23699951171875
1759668805984,796828381,6099,31,-0.223876953125,-0.95220947265625,0.23089599609375
1759668808683,796830960,6100,0,-0.23046875,-0.94512939453125,0.23236083984375
1759668808683,796830960,6100,1,-0.2265625,-0.92559814453125,0.26116943359375
1759668808683,796830960,6100,2,-0.2392578125,-0.93194580078125,0.28363037109375
1759668808683,796830960,6100,3,-0.240966796875,-0.92779541015625,0.24871826171875
1759668808683,796830960,6100,4,-0.23828125,-0.93780517578125,0.22650146484375
1759668808683,796830960,6100,5,-0.220458984375,-0.92779541015625,0.23455810546875
1759668808683,796830960,6100,6,-0.19921875,-0.91607666015625,0.22357177734375
1759668808683,796830960,6100,7,-0.1845703125,-0.92291259765625,0.21624755859375
1759668808683,796830960,6100,8,-0.21630859375,-0.96026611328125,0.21746826171875
1759668808683,796830960,6100,9,-0.226806640625,-0.93414306640625,0.21282958984375
1759668808683,796830960,6100,10,-0.22216796875,-0.93560791015625,0.22357177734375
1759668808683,796830960,6100,11,-0.2119140625,-0.93902587890625,0.24359130859375
1759668808683,796830960,6100,12,-0.203369140625,-0.94268798828125,0.24505615234375
1759668808683,796830960,6100,13,-0.223388671875,-0.93292236328125,0.25531005859375
1759668808683,796830960,6100,14,-0.228515625,-0.92413330078125,0.23211669921875
1759668808683,796830960,6100,15,-0.19921875,-0.94586181640625,0.24969482421875
1759668808683,796830960,6100,16,-0.197509765625,-0.92388916015625,0.21038818359375
1759668808683,796830960,6100,17,-0.204833984375,-0.91534423828125,0.19232177734375
1759668808683,796830960,6100,18,-0.215087890625,-0.95806884765625,0.18988037109375
1759668808683,796830960,6100,19,-0.171630859375,-0.96759033203125,0.21575927734375
1759668808683,796830960,6100,20,-0.186767578125,-0.94146728515625,0.21820068359375
1759668808683,796830960,6100,21,-0.199462890625,-0.93951416015625,0.22088623046875
1759668808683,796830960,6100,22,-0.20263671875,-0.95025634765625,0.25140380859375
1759668808683,796830960,6100,23,-0.209228515625,-0.94073486328125,0.22625732421875
1759668808683,796830960,6100,24,-0.21337890625,-0.95489501953125,0.20013427734375
1759668808683,796830960,6100,25,-0.17236328125,-0.94415283203125,0.20648193359375
1759668808683,796830960,6100,26,-0.170166015625,-0.92877197265625,0.18597412109375
1759668808683,796830960,6100,27,-0.1767578125,-0.94049072265625,0.18304443359375
1759668808683,796830960,6100,28,-0.1708984375,-0.95855712890625,0.19989013671875
1759668808683,796830960,6100,29,-0.21484375,-0.94635009765625,0.21453857421875
1759668808683,796830960,6100,30,-0.197265625,-0.93829345703125,0.22943115234375
1759668808683,796830960,6100,31,-0.20068359375,-0.94073486328125,0.26361083984375
1759668811235,796833539,6101,0,-0.202392578125,-0.93829345703125,0.24847412109375
1759668811235,796833539,6101,1,-0.21240234375,-0.94000244140625,0.23089599609375
1759668811235,796833539,6101,2,-0.181396484375,-0.93853759765625,0.23040771484375
1759668811235,796833539,6101,3,-0.195556640625,-0.93609619140625,0.21527099609375
1759668811235,796833539,6101,4,-0.178466796875,-0.92218017578125,0.21527099609375
1759668811235,796833539,6101,5,-0.2197265625,-0.94366455078125,0.22235107421875
1759668811235,796833539,6101,6,-0.21435546875,-0.94122314453125,0.23211669921875
1759668811235,796833539,6101,7,-0.213623046875,-0.93218994140625,0.24725341796875
1759668811235,796833539,6101,8,-0.203857421875,-0.93341064453125,0.24578857421875
1759668811235,796833539,6101,9,-0.21044921875,-0.94342041015625,0.25848388671875
1759668811235,796833539,6101,10,-0.224365234375,-0.93316650390625,0.24090576171875
1759668811235,796833539,6101,11,-0.219482421875,-0.92535400390625,0.26312255859375
1759668811235,796833539,6101,12,-0.20654296875,-0.92486572265625,0.27117919921875
1759668811235,796833539,6101,13,-0.205810546875,-0.91900634765625,0.25433349609375
1759668811235,796833539,6101,14,-0.19189453125,-0.91192626953125,0.24212646484375
1759668811235,796833539,6101,15,-0.20556640625,-0.94757080078125,0.25848388671875
1759668811235,796833539,6101,16,-0.21484375,-0.93096923828125,0.24163818359375
1759668811235,796833539,6101,17,-0.2158203125,-0.93121337890625,0.24652099609375
1759668811235,796833539,6101,18,-0.219970703125,-0.92144775390625,0.26849365234375
1759668811235,796833539,6101,19,-0.20751953125,-0.92242431640625,0.26531982421875
1759668811235,796833539,6101,20,-0.2255859375,-0.92730712890625,0.29779052734375
1759668811235,796833539,6101,21,-0.224853515625,-0.91217041015625,0.30950927734375
1759668811235,796833539,6101,22,-0.2177734375,-0.92242431640625,0.28973388671875
1759668811235,796833539,6101,23,-0.197265625,-0.91876220703125,0.28070068359375
1759668811235,796833539,6101,24,-0.192626953125,-0.90875244140625,0.25579833984375
1759668811235,796833539,6101,25,-0.2021484375,-0.92657470703125,0.25994873046875
1759668811235,796833539,6101,26,-0.19970703125,-0.93658447265625,0.25238037109375
1759668811235,796833539,6101,27,-0.216552734375,-0.92681884765625,0.28387451171875
1759668811235,796833539,6101,28,-0.234130859375,-0.91168212890625,0.28070068359375
1759668811235,796833539,6101,29,-0.23046875,-0.91485595703125,0.30047607421875
1759668811235,796833539,6101,30,-0.222412109375,-0.91754150390625,0.31707763671875
1759668811235,796833539,6101,31,-0.23095703125,-0.91412353515625,0.30804443359375
1759668813934,796836118,6102,0,-0.208251953125,-0.91436767578125,0.29925537109375
1759668813934,796836118,6102,1,-0.21142578125,-0.91778564453125,0.29632568359375
1759668813934,796836118,6102,2,-0.20654296875,-0.90704345703125,0.28289794921875
1759668813934,796836118,6102,3,-0.21484375,-0.90484619140625,0.27703857421875
1759668813934,796836118,6102,4,-0.206298828125,-0.92706298828125,0.27044677734375
1759668813934,796836118,6102,5,-0.224609375,-0.92291259765625,0.28143310546875
1759668813934,796836118,6102,6,-0.20263671875,-0.92510986328125,0.27972412109375
1759668813934,796836118,6102,7,-0.20947265625,-0.92340087890625,0.28485107421875
1759668813934,796836118,6102,8,-0.2353515625,-0.93170166015625,0.26971435546875
1759668813934,796836118,6102,9,-0.203125,-0.93072509765625,0.26824951171875
1759668813934,796836118,6102,10,-0.21044921875,-0.91949462890625,0.27850341796875
1759668813934,796836118,6102,11,-0.20361328125,-0.92218017578125,0.28387451171875
1759668813934,796836118,6102,12,-0.20361328125,-0.91241455078125,0.25335693359375
1759668813934,796836118,6102,13,-0.20263671875,-0.92559814453125,0.25067138671875
1759668813934,796836118,6102,14,-0.197998046875,-0.93341064453125,0.24652099609375
1759668813934,796836118,6102,15,-0.22802734375,-0.92413330078125,0.28802490234375
1759668813934,796836118,6102,16,-0.230712890625,-0.91802978515625,0.29583740234375
1759668813934,796836118,6102,17,-0.220947265625,-0.92852783203125,0.30120849609375
1759668813934,796836118,6102,18,-0.220947265625,-0.91558837890625,0.28802490234375
1759668813934,796836118,6102,19,-0.2080078125,-0.92315673828125,0.28997802734375
1759668813934,796836118,6102,20,-0.205322265625,-0.91485595703125,0.29168701171875
1759668813934,796836118,6102,21,-0.2138671875,-0.90802001953125,0.26434326171875
1759668813934,796836118,6102,22,-0.20556640625,-0.91241455078125,0.26239013671875
1759668813934,796836118,6102,23,-0.214599609375,-0.94317626953125,0.27459716796875
1759668813934,796836118,6102,24,-0.222900390625,-0.91485595703125,0.27825927734375
1759668813934,796836118,6102,25,-0.22265625,-0.91290283203125,0.30413818359375
1759668813934,796836118,6102,26,-0.24169921875,-0.91363525390625,0.31854248046875
1759668813934,796836118,6102,27,-0.238037109375,-0.91168212890625,0.30267333984375
1759668813934,796836118,6102,28,-0.234130859375,-0.91705322265625,0.29559326171875
1759668813934,796836118,6102,29,-0.216064453125,-0.91046142578125,0.28826904296875
1759668813934,796836118,6102,30,-0.212158203125,-0.92730712890625,0.26629638671875
1759668813934,796836118,6102,31,-0.207275390625,-0.91583251953125,0.23260498046875
1759668816333,796838697,6103,0,-0.214599609375,-0.92608642578125,0.26239013671875
1759668816333,796838697,6103,1,-0.218994140625,-0.93121337890625,0.27166748046875
1759668816333,796838697,6103,2,-0.22119140625,-0.91217041015625,0.28436279296875
1759668816333,796838697,6103,3,-0.23046875,-0.91754150390625,0.31805419921875
1759668816333,796838697,6103,4,-0.232177734375,-0.91876220703125,0.29876708984375
1759668816333,796838697,6103,5,-0.222900390625,-0.91558837890625,0.29901123046875
1759668816333,796838697,6103,6,-0.223876953125,-0.91363525390625,0.28509521484375
1759668816333,796838697,6103,7,-0.21142578125,-0.91876220703125,0.28582763671875
1759668816333,796838697,6103,8,-0.20947265625,-0.91192626953125,0.27801513671875
1759668816333,796838697,6103,9,-0.201171875,-0.91412353515625,0.24798583984375
1759668816333,796838697,6103,10,-0.216552734375,-0.93121337890625,0.28436279296875
1759668816333,796838697,6103,11,-0.22314453125,-0.91680908203125,0.26995849609375
1759668816333,796838697,6103,12,-0.235595703125,-0.91485595703125,0.30316162109375
1759668816333,796838697,6103,13,-0.232421875,-0.92169189453125,0.29510498046875
1759668816333,796838697,6103,14,-0.2353515625,-0.91876220703125,0.26629638671875
1759668816333,796838697,6103,15,-0.2373046875,-0.92120361328125,0.28558349609375
1759668816333,796838697,6103,16,-0.236083984375,-0.92388916015625,0.27142333984375
1759668816333,796838697,6103,17,-0.21728515625,-0.92022705078125,0.27581787109375
1759668816333,796838697,6103,18,-0.21484375,-0.90655517578125,0.24505615234375
1759668816333,796838697,6103,19,-0.224365234375,-0.91558837890625,0.24456787109375
1759668816333,796838697,6103,20,-0.231689453125,-0.94073486328125,0.26336669921875
1759668816333,796838697,6103,21,-0.235107421875,-0.92926025390625,0.26116943359375
1759668816333,796838697,6103,22,-0.23388671875,-0.90606689453125,0.30633544921875
1759668816333,796838697,6103,23,-0.237548828125,-0.90655517578125,0.28411865234375
1759668816333,796838697,6103,24,-0.239990234375,-0.91436767578125,0.32269287109375
1759668816333,796838697,6103,25,-0.236328125,-0.90533447265625,0.31146240234375
1759668816333,796838697,6103,26,-0.232421875,-0.91827392578125,0.29388427734375
1759668816333,796838697,6103,27,-0.229736328125,-0.91876220703125,0.28387451171875
1759668816333,796838697,6103,28,-0.229248046875,-0.91314697265625,0.28607177734375
1759668816333,796838697,6103,29,-0.221435546875,-0.89556884765625,0.27288818359375
1759668816333,796838697,6103,30,-0.226806640625,-0.90997314453125,0.25164794921875
1759668816333,796838697,6103,31,-0.224365234375,-0.94171142578125,0.27020263671875
1759668818886,796841276,6104,0,-0.223876953125,-0.92144775390625,0.27435302734375
1759668818886,796841276,6104,1,-0.23095703125,-0.91558837890625,0.28436279296875
1759668818886,796841276,6104,2,-0.25048828125,-0.92706298828125,0.30242919921875
1759668818886,796841276,6104,3,-0.219970703125,-0.91485595703125,0.27996826171875
1759668818886,796841276,6104,4,-0.22216796875,-0.91802978515625,0.26873779296875
1759668818886,796841276,6104,5,-0.221923828125,-0.92950439453125,0.25604248046875
1759668818886,796841276,6104,6,-0.208251953125,-0.91973876953125,0.26019287109375
1759668818886,796841276,6104,7,-0.187255859375,-0.89874267578125,0.22479248046875
1759668818886,796841276,6104,8,-0.204345703125,-0.95782470703125,0.23577880859375
1759668818886,796841276,6104,9,-0.21875,-0.93975830078125,0.22772216796875
1759668818886,796841276,6104,10,-0.219970703125,-0.93756103515625,0.25018310546875
1759668818886,796841276,6104,11,-0.223876953125,-0.93878173828125,0.27874755859375
1759668818886,796841276,6104,12,-0.21533203125,-0.93194580078125,0.25262451171875
1759668818886,796841276,6104,13,-0.202392578125,-0.93292236328125,0.24603271484375
1759668818886,796841276,6104,14,-0.203125,-0.92315673828125,0.24481201171875
1759668818886,796841276,6104,15,-0.185791015625,-0.91461181640625,0.22430419921875
1759668818886,796841276,6104,16,-0.20068359375,-0.94171142578125,0.22357177734375
1759668818886,796841276,6104,17,-0.212646484375,-0.94757080078125,0.23260498046875
1759668818886,796841276,6104,18,-0.21630859375,-0.92340087890625,0.24310302734375
1759668818886,796841276,6104,19,-0.219482421875,-0.93853759765625,0.25750732421875
1759668818886,796841276,6104,20,-0.23095703125,-0.92901611328125,0.27630615234375
1759668818886,796841276,6104,21,-0.222412109375,-0.93023681640625,0.26214599609375
1759668818886,796841276,6104,22,-0.21630859375,-0.92559814453125,0.25067138671875
1759668818886,796841276,6104,23,-0.212890625,-0.92730712890625,0.25384521484375
1759668818886,796841276,6104,24,-0.211181640625,-0.92608642578125,0.25286865234375
1759668818886,796841276,6104,25,-0.194580078125,-0.90728759765625,0.22723388671875
1759668818886,796841276,6104,26,-0.20751953125,-0.94659423828125,0.23968505859375
1759668818886,796841276,6104,27,-0.237060546875,-0.93756103515625,0.24920654296875
1759668818886,796841276,6104,28,-0.21875,-0.92852783203125,0.25408935546875
1759668818886,796841276,6104,29,-0.215087890625,-0.92486572265625,0.28045654296875
1759668818886,796841276,6104,30,-0.23193359375,-0.93438720703125,0.28240966796875
1759668818886,796841276,6104,31,-0.21728515625,-0.91607666015625,0.27386474609375
1759668821583,796843855,6105,0,-0.207763671875,-0.93121337890625,0.25946044921875
1759668821583,796843855,6105,1,-0.209716796875,-0.92510986328125,0.23919677734375
1759668821583,796843855,6105,2,-0.19921875,-0.92315673828125,0.22381591796875
1759668821583,796843855,6105,3,-0.18017578125,-0.92681884765625,0.21746826171875
1759668821583,796843855,6105,4,-0.1923828125,-0.95635986328125,0.24505615234375
1759668821583,796843855,6105,5,-0.2001953125,-0.93072509765625,0.24139404296875
1759668821583,796843855,6105,6,-0.211181640625,-0.93438720703125,0.26751708984375
1759668821583,796843855,6105,7,-0.210693359375,-0.93170166015625,0.26971435546875
1759668821583,796843855,6105,8,-0.21484375,-0.93341064453125,0.26068115234375
1759668821583,796843855,6105,9,-0.206298828125,-0.93560791015625,0.26483154296875
1759668821583,796843855,6105,10,-0.201904296875,-0.91729736328125,0.25335693359375
1759668821583,796843855,6105,11,-0.1806640625,-0.92877197265625,0.22796630859375
1759668821583,796843855,6105,12,-0.18017578125,-0.93145751953125,0.20989990234375
1759668821583,796843855,6105,13,-0.20556640625,-0.94854736328125,0.23065185546875
1759668821583,796843855,6105,14,-0.19970703125,-0.93511962890625,0.24188232421875
1759668821583,796843855,6105,15,-0.21044921875,-0.93316650390625,0.26312255859375
1759668821583,796843855,6105,16,-0.212158203125,-0.93341064453125,0.26971435546875
1759668821583,796843855,6105,17,-0.222412109375,-0.92559814453125,0.26898193359375
1759668821583,796843855,6105,18,-0.214111328125,-0.93267822265625,0.25946044921875
1759668821583,796843855,6105,19,-0.20751953125,-0.92803955078125,0.24847412109375
1759668821583,796843855,6105,20,-0.204345703125,-0.92779541015625,0.25262451171875
1759668821583,796843855,6105,21,-0.187255859375,-0.91046142578125,0.24017333984375
1759668821583,796843855,6105,22,-0.18701171875,-0.93292236328125,0.23504638671875
1759668821583,796843855,6105,23,-0.223876953125,-0.94244384765625,0.24481201171875
