receivedPhoneTimestamp,respeckTimestamp,packetSeqNum,sampleSeqNum,accelX,accelY,accelZ
1759864573524,1052300028,19056,16,-1.027587890625,0.13519287109375,0.01239013671875
1759864573524,1052300028,19056,17,-1.027099609375,0.14178466796875,0.01214599609375
1759864573524,1052300028,19056,18,-1.02783203125,0.13763427734375,0.00921630859375
1759864573524,1052300028,19056,19,-1.0263671875,0.14007568359375,0.00482177734375
1759864573524,1052300028,19056,20,-1.027099609375,0.14935302734375,0.00848388671875
1759864573524,1052300028,19056,21,-1.027587890625,0.14666748046875,0.00677490234375
1759864573524,1052300028,19056,22,-1.0244140625,0.14447021484375,0.00408935546875
1759864573524,1052300028,19056,23,-1.026611328125,0.14495849609375,0.00189208984375
1759864573524,1052300028,19056,24,-1.0244140625,0.14373779296875,-0.00177001953125
1759864573524,1052300028,19056,25,-1.031005859375,0.14251708984375,0.00115966796875
1759864573524,1052300028,19056,26,-1.02783203125,0.13739013671875,0.00775146484375
1759864573524,1052300028,19056,27,-1.028076171875,0.13958740234375,0.00091552734375
1759864573524,1052300028,19056,28,-1.0263671875,0.13934326171875,0.00531005859375
1759864573524,1052300028,19056,29,-1.029052734375,0.13470458984375,0.00701904296875
1759864573524,1052300028,19056,30,-1.028076171875,0.13690185546875,0.00286865234375
1759864573524,1052300028,19056,31,-1.032958984375,0.13153076171875,0.00531005859375
1759864576113,1052302547,19057,0,-1.028564453125,0.13958740234375,0.00994873046875
1759864576113,1052302547,19057,1,-1.026123046875,0.13543701171875,0.01141357421875
1759864576113,1052302547,19057,2,-1.026611328125,0.14105224609375,0.00628662109375
1759864576113,1052302547,19057,3,-1.027587890625,0.14471435546875,0.01019287109375
1759864576113,1052302547,19057,4,-1.02880859375,0.14520263671875,0.00604248046875
1759864576113,1052302547,19057,5,-1.023681640625,0.14520263671875,0.00311279296875
1759864576113,1052302547,19057,6,-1.028076171875,0.14666748046875,0.00360107421875
1759864576113,1052302547,19057,7,-1.030029296875,0.14617919921875,0.00164794921875
1759864576113,1052302547,19057,8,-1.025146484375,0.14593505859375,0.00164794921875
1759864576113,1052302547,19057,9,-1.029541015625,0.14227294921875,0.00042724609375
1759864576113,1052302547,19057,10,-1.025146484375,0.14398193359375,0.00604248046875
1759864576113,1052302547,19057,11,-1.02685546875,0.14080810546875,0.00604248046875
1759864576113,1052302547,19057,12,-1.034912109375,0.13421630859375,0.00653076171875
1759864576113,1052302547,19057,13,-1.033935546875,0.12762451171875,-0.00347900390625
1759864576113,1052302547,19057,14,-1.027099609375,0.13958740234375,0.00311279296875
1759864576113,1052302547,19057,15,-1.030517578125,0.15106201171875,0.00921630859375
1759864576113,1052302547,19057,16,-1.018798828125,0.16717529296875,0.01898193359375
1759864576113,1052302547,19057,17,-1.013671875,0.18304443359375,0.02215576171875
1759864576113,1052302547,19057,18,-1.0146484375,0.18280029296875,0.01654052734375
1759864576113,1052302547,19057,19,-1.01220703125,0.18548583984375,0.01629638671875
1759864576113,1052302547,19057,20,-1.02099609375,0.16082763671875,0.03289794921875
1759864576113,1052302547,19057,21,-0.997802734375,0.18011474609375,-0.03668212890625
1759864576113,1052302547,19057,22,-0.987548828125,0.23870849609375,0.11932373046875
1759864576113,1052302547,19057,23,-1.083984375,-0.03961181640625,0.09515380859375
1759864576113,1052302547,19057,24,-0.989501953125,0.15472412109375,0.03363037109375
1759864576113,1052302547,19057,25,-1.0966796875,0.15277099609375,-0.01763916015625
1759864576113,1052302547,19057,26,-0.99560546875,0.18621826171875,0.04852294921875
1759864576113,1052302547,19057,27,-0.917236328125,0.23431396484375,0.02606201171875
1759864576113,1052302547,19057,28,-1.11669921875,-0.00592041015625,0.13299560546875
1759864576113,1052302547,19057,29,-1.064453125,0.09686279296875,0.01361083984375
1759864576113,1052302547,19057,30,-1.071044921875,0.16473388671875,-0.00396728515625
1759864576113,1052302547,19057,31,-1.0908203125,0.12738037109375,0.07489013671875
1759864578693,1052305066,19058,0,-0.8818359375,0.20037841796875,0.23773193359375
1759864578693,1052305066,19058,1,-0.840087890625,0.21307373046875,0.31365966796875
1759864578693,1052305066,19058,2,-0.9814453125,0.14666748046875,0.28240966796875
1759864578693,1052305066,19058,3,-0.998291015625,0.07733154296875,0.29974365234375
1759864578693,1052305066,19058,4,-0.968017578125,0.07000732421875,0.31732177734375
1759864578693,1052305066,19058,5,-0.958251953125,0.08709716796875,0.29168701171875
1759864578693,1052305066,19058,6,-0.9140625,0.13958740234375,0.35272216796875
1759864578693,1052305066,19058,7,-0.925537109375,0.19671630859375,0.30023193359375
1759864578693,1052305066,19058,8,-0.92041015625,0.07171630859375,0.30487060546875
1759864578693,1052305066,19058,9,-0.946533203125,0.02166748046875,0.36102294921875
1759864578693,1052305066,19058,10,-1.046875,-0.07550048828125,0.30364990234375
1759864578693,1052305066,19058,11,-1.22265625,-0.11114501953125,0.24334716796875
1759864578693,1052305066,19058,12,-1.06787109375,-0.24078369140625,0.13470458984375
1759864578693,1052305066,19058,13,-1.0263671875,-0.33917236328125,0.04193115234375
1759864578693,1052305066,19058,14,-0.946533203125,-0.39849853515625,0.04046630859375
1759864578693,1052305066,19058,15,-0.79345703125,-0.47247314453125,0.02532958984375
1759864578693,1052305066,19058,16,-0.842529296875,-0.53912353515625,-0.02471923828125
1759864578693,1052305066,19058,17,-0.830810546875,-0.56329345703125,-0.10845947265625
1759864578693,1052305066,19058,18,-0.82666015625,-0.55328369140625,-0.09991455078125
1759864578693,1052305066,19058,19,-0.924072265625,-0.59210205078125,-0.17437744140625
1759864578693,1052305066,19058,20,-0.8798828125,-0.51910400390625,-0.34576416015625
1759864578693,1052305066,19058,21,-1.015380859375,-0.49591064453125,-0.47247314453125
1759864578693,1052305066,19058,22,-1.045654296875,-0.37213134765625,-0.34014892578125
1759864578693,1052305066,19058,23,-0.65673828125,-0.27276611328125,-0.10528564453125
1759864578693,1052305066,19058,24,-0.708740234375,-0.07940673828125,-0.19854736328125
1759864578693,1052305066,19058,25,-1.33447265625,-0.49932861328125,-0.21881103515625
1759864578693,1052305066,19058,26,-1.00732421875,-0.41021728515625,-0.06378173828125
1759864578693,1052305066,19058,27,-0.9677734375,-0.31085205078125,-0.12384033203125
1759864578693,1052305066,19058,28,-1.00146484375,-0.40484619140625,-0.26129150390625
1759864578693,1052305066,19058,29,-0.8896484375,-0.55279541015625,-0.32330322265625
1759864578693,1052305066,19058,30,-0.869384765625,-0.57452392578125,-0.35992431640625
1759864578693,1052305066,19058,31,-0.73828125,-0.62115478515625,-0.45391845703125
1759864581082,1052307585,19059,0,-0.674560546875,-0.64532470703125,-0.43170166015625
1759864581082,1052307585,19059,1,-0.596435546875,-0.63311767578125,-0.48565673828125
1759864581082,1052307585,19059,2,-0.58349609375,-0.70587158203125,-0.52008056640625
1759864581082,1052307585,19059,3,-0.4658203125,-0.68756103515625,-0.56768798828125
1759864581082,1052307585,19059,4,-0.35888671875,-0.76519775390625,-0.55328369140625
1759864581082,1052307585,19059,5,-0.41259765625,-0.76446533203125,-0.46856689453125
1759864581082,1052307585,19059,6,-0.400390625,-0.87139892578125,-0.55084228515625
1759864581082,1052307585,19059,7,-0.240478515625,-0.80230712890625,-0.72271728515625
1759864581082,1052307585,19059,8,-0.16259765625,-0.66949462890625,-0.96417236328125
1759864581082,1052307585,19059,9,-0.314453125,-0.58160400390625,-0.86968994140625
1759864581082,1052307585,19059,10,-0.341552734375,-0.29986572265625,-0.69903564453125
1759864581082,1052307585,19059,11,-0.389404296875,-0.44830322265625,-0.73028564453125
1759864581082,1052307585,19059,12,-0.5263671875,-0.43975830078125,-0.71319580078125
1759864581082,1052307585,19059,13,-0.59326171875,-0.63458251953125,-0.68804931640625
1759864581082,1052307585,19059,14,-0.653076171875,-0.81988525390625,-0.78692626953125
1759864581082,1052307585,19059,15,-0.447265625,-0.90069580078125,-0.64752197265625
1759864581082,1052307585,19059,16,-0.290283203125,-0.80303955078125,-0.46173095703125
1759864581082,1052307585,19059,17,-0.170166015625,-0.69146728515625,-0.44219970703125
1759864581082,1052307585,19059,18,-0.191162109375,-0.86016845703125,-0.44000244140625
1759864581082,1052307585,19059,19,-0.119140625,-0.93756103515625,-0.50250244140625
1759864581082,1052307585,19059,20,-0.05712890625,-0.97052001953125,-0.52252197265625
1759864581082,1052307585,19059,21,-0.01611328125,-0.90875244140625,-0.46026611328125
1759864581082,1052307585,19059,22,0.027099609375,-0.89581298828125,-0.44195556640625
1759864581082,1052307585,19059,23,0.054443359375,-0.94195556640625,-0.45440673828125
1759864581082,1052307585,19059,24,0.027587890625,-0.94195556640625,-0.46783447265625
1759864581082,1052307585,19059,25,0.107177734375,-0.93853759765625,-0.49468994140625
1759864581082,1052307585,19059,26,0.080078125,-0.86846923828125,-0.46539306640625
1759864581082,1052307585,19059,27,0.036865234375,-0.83428955078125,-0.51519775390625
1759864581082,1052307585,19059,28,0.02392578125,-0.84771728515625,-0.56011962890625
1759864581082,1052307585,19059,29,0.094970703125,-0.82257080078125,-0.64898681640625
1759864581082,1052307585,19059,30,0.087646484375,-0.74591064453125,-0.70245361328125
1759864581082,1052307585,19059,31,0.06201171875,-0.74688720703125,-0.73834228515625
1759864583665,1052310104,19060,0,0.28076171875,-0.63775634765625,-0.96490478515625
1759864583665,1052310104,19060,1,0.191162109375,-0.63726806640625,-0.93780517578125
1759864583665,1052310104,19060,2,0.117919921875,-0.50030517578125,-0.81378173828125
1759864583665,1052310104,19060,3,0.258056640625,-0.33697509765625,-0.79132080078125
1759864583665,1052310104,19060,4,0.3955078125,-0.19024658203125,-0.76763916015625
1759864583665,1052310104,19060,5,0.468017578125,-0.13043212890625,-0.82989501953125
1759864583665,1052310104,19060,6,0.4345703125,-0.09771728515625,-0.79010009765625
1759864583665,1052310104,19060,7,0.377197265625,-0.15460205078125,-0.75445556640625
1759864583665,1052310104,19060,8,0.308349609375,-0.37994384765625,-0.71929931640625
1759864583665,1052310104,19060,9,0.272705078125,-0.69488525390625,-0.87847900390625
1759864583665,1052310104,19060,10,0.31103515625,-1.00640869140625,-1.12945556640625
1759864583665,1052310104,19060,11,0.146240234375,-0.97711181640625,-0.69219970703125
1759864583665,1052310104,19060,12,0.115478515625,-0.67706298828125,-0.43218994140625
1759864583665,1052310104,19060,13,0.109375,-0.59698486328125,-0.50787353515625
1759864583665,1052310104,19060,14,0.241455078125,-0.71905517578125,-0.63629150390625
1759864583665,1052310104,19060,15,0.3212890625,-0.81231689453125,-0.64678955078125
1759864583665,1052310104,19060,16,0.34765625,-0.71905517578125,-0.68048095703125
1759864583665,1052310104,19060,17,0.369140625,-0.64263916015625,-0.67584228515625
1759864583665,1052310104,19060,18,0.38525390625,-0.58941650390625,-0.62530517578125
1759864583665,1052310104,19060,19,0.435302734375,-0.55303955078125,-0.63433837890625
1759864583665,1052310104,19060,20,0.533203125,-0.49346923828125,-0.65020751953125
1759864583665,1052310104,19060,21,0.557373046875,-0.54962158203125,-0.64215087890625
1759864583665,1052310104,19060,22,0.762939453125,-0.63385009765625,-0.69757080078125
1759864583665,1052310104,19060,23,0.978759765625,-0.56622314453125,-0.60064697265625
1759864583665,1052310104,19060,24,0.624267578125,-0.56207275390625,-0.46124267578125
1759864583665,1052310104,19060,25,0.5234375,-0.63409423828125,-0.25372314453125
1759864583665,1052310104,19060,26,0.60986328125,-0.64508056640625,-0.13946533203125
1759864583665,1052310104,19060,27,0.66552734375,-0.61285400390625,-0.14605712890625
1759864583665,1052310104,19060,28,0.76513671875,-0.71490478515625,-0.17388916015625
1759864583665,1052310104,19060,29,0.732177734375,-0.61773681640625,-0.19293212890625
1759864583665,1052310104,19060,30,0.665283203125,-0.64068603515625,-0.33892822265625
1759864583665,1052310104,19060,31,0.7197265625,-0.77471923828125,-0.39361572265625
1759864586248,1052312623,19061,0,0.320556640625,-0.72808837890625,-0.23345947265625
1759864586248,1052312623,19061,1,0.54541015625,-0.69708251953125,-0.33062744140625
1759864586248,1052312623,19061,2,0.595458984375,-0.76666259765625,-0.53814697265625
1759864586248,1052312623,19061,3,0.481689453125,-0.91510009765625,-0.83746337890625
1759864586248,1052312623,19061,4,0.482666015625,-0.81036376953125,-0.64678955078125
1759864586248,1052312623,19061,5,0.380126953125,-0.71002197265625,-0.60406494140625
1759864586248,1052312623,19061,6,0.341552734375,-0.81744384765625,-0.49298095703125
1759864586248,1052312623,19061,7,0.42919921875,-0.91387939453125,-0.45928955078125
1759864586248,1052312623,19061,8,0.443603515625,-0.83721923828125,-0.39605712890625
1759864586248,1052312623,19061,9,0.311279296875,-0.69659423828125,-0.44537353515625
1759864586248,1052312623,19061,10,0.34765625,-0.71954345703125,-0.46051025390625
1759864586248,1052312623,19061,11,0.3671875,-0.60919189453125,-0.50518798828125
1759864586248,1052312623,19061,12,0.45947265625,-0.54302978515625,-0.57427978515625
1759864586248,1052312623,19061,13,0.391845703125,-0.70611572265625,-0.53668212890625
1759864586248,1052312623,19061,14,0.53369140625,-0.90338134765625,-0.53912353515625
1759864586248,1052312623,19061,15,0.209716796875,-0.96173095703125,-0.56109619140625
1759864586248,1052312623,19061,16,0.330078125,-0.89849853515625,-0.59356689453125
1759864586248,1052312623,19061,17,0.376220703125,-0.62701416015625,-0.60015869140625
1759864586248,1052312623,19061,18,0.314453125,-0.64923095703125,-0.66851806640625
1759864586248,1052312623,19061,19,0.19091796875,-0.69708251953125,-0.79351806640625
1759864586248,1052312623,19061,20,0.163330078125,-0.77935791015625,-0.87652587890625
1759864586248,1052312623,19061,21,-0.022705078125,-0.68853759765625,-0.74688720703125
1759864586248,1052312623,19061,22,-0.01953125,-0.76080322265625,-0.70611572265625
1759864586248,1052312623,19061,23,0.06982421875,-0.72076416015625,-0.71246337890625
1759864586248,1052312623,19061,24,0.078369140625,-0.72637939453125,-0.66876220703125
1759864586248,1052312623,19061,25,0.147216796875,-0.78424072265625,-0.61309814453125
1759864586248,1052312623,19061,26,0.048095703125,-0.69219970703125,-0.67340087890625
1759864586248,1052312623,19061,27,0.0947265625,-0.75347900390625,-0.66558837890625
1759864586248,1052312623,19061,28,0.08203125,-0.71563720703125,-0.70562744140625
1759864586248,1052312623,19061,29,-0.212646484375,-0.72491455078125,-0.80645751953125
1759864586248,1052312623,19061,30,-0.05615234375,-0.78253173828125,-0.78521728515625
1759864586248,1052312623,19061,31,0.143310546875,-0.76373291015625,-0.66632080078125
1759864588635,1052315142,19062,0,0.1162109375,-0.65679931640625,-0.71636962890625
1759864588635,1052315142,19062,1,0.13037109375,-0.70538330078125,-0.73223876953125
1759864588635,1052315142,19062,2,0.2939453125,-0.72784423828125,-0.68927001953125
1759864588635,1052315142,19062,3,0.164794921875,-0.77911376953125,-0.64166259765625
1759864588635,1052315142,19062,4,0.228271484375,-0.75323486328125,-0.63287353515625
1759864588635,1052315142,19062,5,0.250732421875,-0.73931884765625,-0.66192626953125
1759864588635,1052315142,19062,6,0.261962890625,-0.74395751953125,-0.66851806640625
1759864588635,1052315142,19062,7,0.237060546875,-0.72467041015625,-0.66802978515625
1759864588635,1052315142,19062,8,0.1689453125,-0.76348876953125,-0.65826416015625
1759864588635,1052315142,19062,9,0.0517578125,-0.78057861328125,-0.73516845703125
1759864588635,1052315142,19062,10,0.0498046875,-0.81207275390625,-0.69415283203125
1759864588635,1052315142,19062,11,0.065673828125,-0.69561767578125,-0.61773681640625
1759864588635,1052315142,19062,12,0.082275390625,-0.79840087890625,-0.60894775390625
1759864588635,1052315142,19062,13,0.102294921875,-0.76104736328125,-0.69195556640625
1759864588635,1052315142,19062,14,0.146240234375,-0.76885986328125,-0.67730712890625
1759864588635,1052315142,19062,15,0.19091796875,-0.76348876953125,-0.62481689453125
1759864588635,1052315142,19062,16,0.16748046875,-0.77081298828125,-0.64459228515625
1759864588635,1052315142,19062,17,0.1396484375,-0.75909423828125,-0.69537353515625
1759864588635,1052315142,19062,18,0.165283203125,-0.77838134765625,-0.64727783203125
1759864588635,1052315142,19062,19,0.143310546875,-0.78521728515625,-0.62725830078125
1759864588635,1052315142,19062,20,0.155517578125,-0.77081298828125,-0.63726806640625
1759864588635,1052315142,19062,21,0.14501953125,-0.76861572265625,-0.62213134765625
1759864588635,1052315142,19062,22,0.173583984375,-0.78717041015625,-0.63262939453125
1759864588635,1052315142,19062,23,0.191162109375,-0.76300048828125,-0.64532470703125
1759864588635,1052315142,19062,24,0.10595703125,-0.72491455078125,-0.74932861328125
1759864588635,1052315142,19062,25,0.1435546875,-0.74151611328125,-0.74835205078125
1759864588635,1052315142,19062,26,0.142578125,-0.80108642578125,-0.59771728515625
1759864588635,1052315142,19062,27,0.177490234375,-0.79327392578125,-0.61676025390625
1759864588635,1052315142,19062,28,0.173828125,-0.77984619140625,-0.63702392578125
1759864588635,1052315142,19062,29,0.16455078125,-0.73590087890625,-0.67510986328125
1759864588635,1052315142,19062,30,0.15966796875,-0.74493408203125,-0.67462158203125
1759864588635,1052315142,19062,31,0.15478515625,-0.75665283203125,-0.66754150390625
1759864591217,1052317661,19063,0,0.182373046875,-0.77203369140625,-0.65899658203125
1759864591217,1052317661,19063,1,0.193359375,-0.78570556640625,-0.62872314453125
1759864591217,1052317661,19063,2,0.1865234375,-0.78399658203125,-0.61602783203125
1759864591217,1052317661,19063,3,0.185791015625,-0.77716064453125,-0.63775634765625
1759864591217,1052317661,19063,4,0.1826171875,-0.77764892578125,-0.63726806640625
1759864591217,1052317661,19063,5,0.1826171875,-0.77569580078125,-0.64410400390625
1759864591217,1052317661,19063,6,0.18359375,-0.77349853515625,-0.64385986328125
1759864591217,1052317661,19063,7,0.18212890625,-0.77764892578125,-0.63140869140625
1759864591217,1052317661,19063,8,0.184814453125,-0.78399658203125,-0.62872314453125
1759864591217,1052317661,19063,9,0.184814453125,-0.77398681640625,-0.63751220703125
1759864591217,1052317661,19063,10,0.18701171875,-0.77862548828125,-0.63800048828125
1759864591217,1052317661,19063,11,0.182861328125,-0.78399658203125,-0.62945556640625
1759864591217,1052317661,19063,12,0.18798828125,-0.79205322265625,-0.61822509765625
1759864591217,1052317661,19063,13,0.193115234375,-0.79083251953125,-0.61968994140625
1759864591217,1052317661,19063,14,0.187744140625,-0.78863525390625,-0.62799072265625
1759864591217,1052317661,19063,15,0.18408203125,-0.78887939453125,-0.61431884765625
1759864591217,1052317661,19063,16,0.188720703125,-0.80133056640625,-0.61700439453125
1759864591217,1052317661,19063,17,0.190673828125,-0.79449462890625,-0.61309814453125
1759864591217,1052317661,19063,18,0.187255859375,-0.79718017578125,-0.60992431640625
1759864591217,1052317661,19063,19,0.19091796875,-0.79327392578125,-0.62457275390625
1759864591217,1052317661,19063,20,0.18994140625,-0.79327392578125,-0.62042236328125
1759864591217,1052317661,19063,21,0.1865234375,-0.79669189453125,-0.61383056640625
1759864591217,1052317661,19063,22,0.182373046875,-0.79229736328125,-0.61553955078125
1759864591217,1052317661,19063,23,0.188720703125,-0.79376220703125,-0.62506103515625
1759864591217,1052317661,19063,24,0.18505859375,-0.79083251953125,-0.61627197265625
1759864591217,1052317661,19063,25,0.1884765625,-0.78912353515625,-0.62774658203125
1759864591217,1052317661,19063,26,0.18896484375,-0.78741455078125,-0.62530517578125
1759864591217,1052317661,19063,27,0.188720703125,-0.78668212890625,-0.62384033203125
1759864591217,1052317661,19063,28,0.1884765625,-0.78985595703125,-0.61968994140625
1759864591217,1052317661,19063,29,0.18701171875,-0.78717041015625,-0.62628173828125
1759864591217,1052317661,19063,30,0.188232421875,-0.78985595703125,-0.62530517578125
1759864591217,1052317661,19063,31,0.187255859375,-0.78643798828125,-0.62652587890625
1759864593802,1052320180,19064,0,0.184814453125,-0.78961181640625,-0.62335205078125
1759864593802,1052320180,19064,1,0.1845703125,-0.78619384765625,-0.62188720703125
1759864593802,1052320180,19064,2,0.185791015625,-0.78546142578125,-0.62701416015625
1759864593802,1052320180,19064,3,0.1845703125,-0.79083251953125,-0.62701416015625
1759864593802,1052320180,19064,4,0.187744140625,-0.78375244140625,-0.62774658203125
1759864593802,1052320180,19064,5,0.189453125,-0.78594970703125,-0.62774658203125
1759864593802,1052320180,19064,6,0.1884765625,-0.78912353515625,-0.61968994140625
1759864593802,1052320180,19064,7,0.189208984375,-0.78643798828125,-0.62237548828125
1759864593802,1052320180,19064,8,0.189208984375,-0.78228759765625,-0.62799072265625
1759864593802,1052320180,19064,9,0.1806640625,-0.77471923828125,-0.60699462890625
1759864593802,1052320180,19064,10,0.17041015625,-0.72174072265625,-0.66461181640625
1759864593802,1052320180,19064,11,0.17822265625,-0.66094970703125,-0.77203369140625
1759864593802,1052320180,19064,12,0.074462890625,-0.59698486328125,-0.86285400390625
1759864593802,1052320180,19064,13,0.09716796875,-0.57159423828125,-0.84747314453125
1759864593802,1052320180,19064,14,0.134033203125,-0.57061767578125,-0.82427978515625
1759864593802,1052320180,19064,15,0.1298828125,-0.56231689453125,-0.83380126953125
1759864593802,1052320180,19064,16,0.12451171875,-0.56646728515625,-0.83502197265625
1759864593802,1052320180,19064,17,0.12548828125,-0.58575439453125,-0.82183837890625
1759864593802,1052320180,19064,18,0.157470703125,-0.60943603515625,-0.78936767578125
1759864593802,1052320180,19064,19,0.176513671875,-0.62066650390625,-0.78350830078125
1759864593802,1052320180,19064,20,0.201171875,-0.64215087890625,-0.76202392578125
1759864593802,1052320180,19064,21,0.190185546875,-0.63922119140625,-0.76690673828125
1759864593802,1052320180,19064,22,0.188720703125,-0.64459228515625,-0.76812744140625
1759864593802,1052320180,19064,23,0.175048828125,-0.65264892578125,-0.76666259765625
1759864593802,1052320180,19064,24,0.166259765625,-0.67633056640625,-0.74810791015625
1759864593802,1052320180,19064,25,0.150390625,-0.70733642578125,-0.73419189453125
1759864593802,1052320180,19064,26,0.1591796875,-0.70709228515625,-0.70928955078125
1759864593802,1052320180,19064,27,0.2177734375,-0.70928955078125,-0.70880126953125
1759864593802,1052320180,19064,28,0.200439453125,-0.71075439453125,-0.70855712890625
1759864593802,1052320180,19064,29,0.16259765625,-0.72369384765625,-0.71002197265625
1759864593802,1052320180,19064,30,0.149169921875,-0.73321533203125,-0.67144775390625
1759864593802,1052320180,19064,31,0.13134765625,-0.77813720703125,-0.65362548828125
1759864596187,1052322693,19065,0,0.185791015625,-0.78765869140625,-0.62017822265625
1759864596187,1052322693,19065,1,0.1455078125,-0.76885986328125,-0.60504150390625
1759864596187,1052322693,19065,2,0.112060546875,-0.83526611328125,-0.62310791015625
1759864596187,1052322693,19065,3,0.162353515625,-0.80352783203125,-0.61578369140625
1759864596187,1052322693,19065,4,0.1884765625,-0.78887939453125,-0.61553955078125
1759864596187,1052322693,19065,5,0.128662109375,-0.79254150390625,-0.62188720703125
1759864596187,1052322693,19065,6,0.17041015625,-0.80987548828125,-0.62603759765625
1759864596187,1052322693,19065,7,0.154296875,-0.79205322265625,-0.61529541015625
1759864596187,1052322693,19065,8,0.131591796875,-0.80670166015625,-0.62774658203125
1759864596187,1052322693,19065,9,0.1552734375,-0.79156494140625,-0.63482666015625
1759864596187,1052322693,19065,10,0.14013671875,-0.78936767578125,-0.62945556640625
1759864596187,1052322693,19065,11,0.1298828125,-0.80035400390625,-0.62847900390625
1759864596187,1052322693,19065,12,0.1337890625,-0.79815673828125,-0.62823486328125
1759864596187,1052322693,19065,13,0.1611328125,-0.79278564453125,-0.63531494140625
1759864596187,1052322693,19065,14,0.1376953125,-0.77838134765625,-0.62750244140625
1759864596187,1052322693,19065,15,0.145751953125,-0.79327392578125,-0.64019775390625
1759864596187,1052322693,19065,16,0.150634765625,-0.78936767578125,-0.64166259765625
1759864596187,1052322693,19065,17,0.137939453125,-0.78106689453125,-0.64166259765625
1759864596187,1052322693,19065,18,0.153076171875,-0.78936767578125,-0.63116455078125
1759864596187,1052322693,19065,19,0.1572265625,-0.78009033203125,-0.63897705078125
1759864596187,1052322693,19065,20,0.163330078125,-0.79254150390625,-0.63507080078125
1759864596187,1052322693,19065,21,0.15380859375,-0.78814697265625,-0.63262939453125
1759864596187,1052322693,19065,22,0.159423828125,-0.78326416015625,-0.63995361328125
1759864596187,1052322693,19065,23,0.15966796875,-0.77764892578125,-0.64117431640625
1759864596187,1052322693,19065,24,0.161376953125,-0.78424072265625,-0.63580322265625
1759864596187,1052322693,19065,25,0.157958984375,-0.78961181640625,-0.63385009765625
1759864596187,1052322693,19065,26,0.16357421875,-0.79034423828125,-0.63800048828125
1759864596187,1052322693,19065,27,0.157470703125,-0.78155517578125,-0.63458251953125
1759864596187,1052322693,19065,28,0.163818359375,-0.78350830078125,-0.63775634765625
1759864596187,1052322693,19065,29,0.162353515625,-0.78253173828125,-0.63360595703125
1759864596187,1052322693,19065,30,0.160888671875,-0.78399658203125,-0.63848876953125
1759864596187,1052322693,19065,31,0.1630859375,-0.77911376953125,-0.63629150390625
1759864598770,1052325206,19066,0,0.162353515625,-0.77886962890625,-0.64678955078125
1759864598770,1052325206,19066,1,0.1630859375,-0.77984619140625,-0.64019775390625
1759864598770,1052325206,19066,2,0.169189453125,-0.78106689453125,-0.63629150390625
1759864598770,1052325206,19066,3,0.166015625,-0.78033447265625,-0.64434814453125
1759864598770,1052325206,19066,4,0.164794921875,-0.77569580078125,-0.64459228515625
1759864598770,1052325206,19066,5,0.169677734375,-0.77496337890625,-0.63604736328125
1759864598770,1052325206,19066,6,0.17041015625,-0.77764892578125,-0.64385986328125
1759864598770,1052325206,19066,7,0.165283203125,-0.77423095703125,-0.64508056640625
1759864598770,1052325206,19066,8,0.1708984375,-0.77423095703125,-0.64019775390625
1759864598770,1052325206,19066,9,0.167236328125,-0.77520751953125,-0.65191650390625
1759864598770,1052325206,19066,10,0.175048828125,-0.77716064453125,-0.64166259765625
1759864598770,1052325206,19066,11,0.180908203125,-0.76983642578125,-0.64630126953125
1759864598770,1052325206,19066,12,0.179443359375,-0.77740478515625,-0.63751220703125
1759864598770,1052325206,19066,13,0.1953125,-0.77740478515625,-0.63067626953125
1759864598770,1052325206,19066,14,0.20361328125,-0.77471923828125,-0.63775634765625
1759864598770,1052325206,19066,15,0.194091796875,-0.77081298828125,-0.64044189453125
1759864598770,1052325206,19066,16,0.191162109375,-0.77227783203125,-0.64361572265625
1759864598770,1052325206,19066,17,0.1953125,-0.77056884765625,-0.64703369140625
1759864598770,1052325206,19066,18,0.17919921875,-0.77056884765625,-0.64459228515625
1759864598770,1052325206,19066,19,0.18359375,-0.76397705078125,-0.65338134765625
1759864598770,1052325206,19066,20,0.1884765625,-0.76177978515625,-0.65582275390625
1759864598770,1052325206,19066,21,0.1865234375,-0.75592041015625,-0.65460205078125
1759864598770,1052325206,19066,22,0.19482421875,-0.75909423828125,-0.65679931640625
1759864598770,1052325206,19066,23,0.19091796875,-0.76715087890625,-0.65313720703125
1759864598770,1052325206,19066,24,0.19287109375,-0.75811767578125,-0.64459228515625
1759864598770,1052325206,19066,25,0.191162109375,-0.76275634765625,-0.65899658203125
1759864598770,1052325206,19066,26,0.1923828125,-0.76519775390625,-0.64630126953125
1759864598770,1052325206,19066,27,0.18017578125,-0.76617431640625,-0.64874267578125
1759864598770,1052325206,19066,28,0.181640625,-0.76275634765625,-0.66607666015625
1759864598770,1052325206,19066,29,0.18603515625,-0.76812744140625,-0.64556884765625
1759864598770,1052325206,19066,30,0.17626953125,-0.77935791015625,-0.63580322265625
1759864598770,1052325206,19066,31,0.1943359375,-0.78668212890625,-0.63409423828125
1759864601356,1052327719,19067,0,0.208251953125,-0.78399658203125,-0.63702392578125
1759864601356,1052327719,19067,1,0.1611328125,-0.79376220703125,-0.63629150390625
1759864601356,1052327719,19067,2,0.116455078125,-0.79229736328125,-0.61602783203125
1759864601356,1052327719,19067,3,0.129150390625,-0.78814697265625,-0.62554931640625
1759864601356,1052327719,19067,4,0.18408203125,-0.80841064453125,-0.63140869140625
1759864601356,1052327719,19067,5,0.17578125,-0.78057861328125,-0.62652587890625
1759864601356,1052327719,19067,6,0.14111328125,-0.78497314453125,-0.63336181640625
1759864601356,1052327719,19067,7,0.148681640625,-0.80767822265625,-0.62432861328125
1759864601356,1052327719,19067,8,0.15478515625,-0.80426025390625,-0.61016845703125
1759864601356,1052327719,19067,9,0.156982421875,-0.79791259765625,-0.62628173828125
1759864601356,1052327719,19067,10,0.160888671875,-0.78887939453125,-0.62872314453125
1759864601356,1052327719,19067,11,0.146484375,-0.78863525390625,-0.63116455078125
1759864601356,1052327719,19067,12,0.155029296875,-0.79327392578125,-0.63360595703125
1759864601356,1052327719,19067,13,0.158203125,-0.79034423828125,-0.63238525390625
1759864601356,1052327719,19067,14,0.15771484375,-0.78765869140625,-0.62847900390625
1759864601356,1052327719,19067,15,0.156494140625,-0.79644775390625,-0.63702392578125
1759864601356,1052327719,19067,16,0.153076171875,-0.78424072265625,-0.62042236328125
1759864601356,1052327719,19067,17,0.15673828125,-0.79840087890625,-0.62286376953125
1759864601356,1052327719,19067,18,0.166015625,-0.79986572265625,-0.62286376953125
1759864601356,1052327719,19067,19,0.159423828125,-0.78887939453125,-0.61968994140625
1759864601356,1052327719,19067,20,0.15673828125,-0.79083251953125,-0.62969970703125
1759864601356,1052327719,19067,21,0.1611328125,-0.79229736328125,-0.63165283203125
1759864601356,1052327719,19067,22,0.16357421875,-0.79180908203125,-0.62603759765625
1759864601356,1052327719,19067,23,0.162353515625,-0.79522705078125,-0.62335205078125
1759864601356,1052327719,19067,24,0.16015625,-0.79302978515625,-0.62652587890625
1759864601356,1052327719,19067,25,0.164794921875,-0.79644775390625,-0.61871337890625
1759864601356,1052327719,19067,26,0.16259765625,-0.79498291015625,-0.62188720703125
1759864601356,1052327719,19067,27,0.161865234375,-0.79449462890625,-0.62261962890625
1759864601356,1052327719,19067,28,0.17138671875,-0.79425048828125,-0.62677001953125
1759864601356,1052327719,19067,29,0.167236328125,-0.79327392578125,-0.62091064453125
1759864601356,1052327719,19067,30,0.16650390625,-0.79498291015625,-0.62261962890625
1759864601356,1052327719,19067,31,0.167724609375,-0.79473876953125,-0.62237548828125
1759864603741,1052330232,19068,0,0.16796875,-0.79132080078125,-0.62799072265625
1759864603741,1052330232,19068,1,0.168212890625,-0.79718017578125,-0.61968994140625
1759864603741,1052330232,19068,2,0.16845703125,-0.79376220703125,-0.62261962890625
1759864603741,1052330232,19068,3,0.1630859375,-0.79498291015625,-0.62432861328125
1759864603741,1052330232,19068,4,0.169189453125,-0.79571533203125,-0.61846923828125
1759864603741,1052330232,19068,5,0.169189453125,-0.79132080078125,-0.62432861328125
1759864603741,1052330232,19068,6,0.168212890625,-0.79083251953125,-0.62847900390625
1759864603741,1052330232,19068,7,0.170166015625,-0.79058837890625,-0.62750244140625
1759864603741,1052330232,19068,8,0.172119140625,-0.78961181640625,-0.62896728515625
1759864603741,1052330232,19068,9,0.17236328125,-0.78717041015625,-0.62969970703125
1759864603741,1052330232,19068,10,0.171142578125,-0.78546142578125,-0.62945556640625
1759864603741,1052330232,19068,11,0.17431640625,-0.78399658203125,-0.63507080078125
1759864603741,1052330232,19068,12,0.17529296875,-0.78204345703125,-0.63262939453125
1759864603741,1052330232,19068,13,0.174072265625,-0.78326416015625,-0.63311767578125
1759864603741,1052330232,19068,14,0.174072265625,-0.78228759765625,-0.63433837890625
1759864603741,1052330232,19068,15,0.1728515625,-0.78082275390625,-0.63214111328125
1759864603741,1052330232,19068,16,0.172119140625,-0.78082275390625,-0.63873291015625
1759864603741,1052330232,19068,17,0.17431640625,-0.78253173828125,-0.63922119140625
1759864603741,1052330232,19068,18,0.17578125,-0.78009033203125,-0.63018798828125
1759864603741,1052330232,19068,19,0.175048828125,-0.78204345703125,-0.63165283203125
1759864603741,1052330232,19068,20,0.1748046875,-0.77642822265625,-0.63800048828125
1759864603741,1052330232,19068,21,0.174072265625,-0.77862548828125,-0.64239501953125
1759864603741,1052330232,19068,22,0.17919921875,-0.77813720703125,-0.63970947265625
1759864603741,1052330232,19068,23,0.175048828125,-0.78033447265625,-0.63360595703125
1759864603741,1052330232,19068,24,0.17578125,-0.77886962890625,-0.63824462890625
1759864603741,1052330232,19068,25,0.177978515625,-0.77691650390625,-0.64019775390625
1759864603741,1052330232,19068,26,0.177490234375,-0.77593994140625,-0.64141845703125
1759864603741,1052330232,19068,27,0.173828125,-0.77471923828125,-0.64459228515625
1759864603741,1052330232,19068,28,0.177001953125,-0.77447509765625,-0.64385986328125
1759864603741,1052330232,19068,29,0.1728515625,-0.77374267578125,-0.63946533203125
1759864603741,1052330232,19068,30,0.174560546875,-0.77178955078125,-0.64776611328125
1759864603741,1052330232,19068,31,0.177734375,-0.77252197265625,-0.64849853515625
