receivedPhoneTimestamp,respeckTimestamp,packetSeqNum,sampleSeqNum,accelX,accelY,accelZ
1759329002480,424426345,6812,12,-0.2587890625,-0.93243408203125,0.27606201171875
1759329002480,424426345,6812,13,-0.24365234375,-0.93707275390625,0.31195068359375
1759329002480,424426345,6812,14,-0.282958984375,-0.91998291015625,0.35125732421875
1759329002480,424426345,6812,15,-0.29052734375,-0.89312744140625,0.39520263671875
1759329002480,424426345,6812,16,-0.288818359375,-0.87774658203125,0.39398193359375
1759329002480,424426345,6812,17,-0.30126953125,-0.89117431640625,0.41302490234375
1759329002480,424426345,6812,18,-0.302001953125,-0.91851806640625,0.37542724609375
1759329002480,424426345,6812,19,-0.261474609375,-0.93218994140625,0.30999755859375
1759329002480,424426345,6812,20,-0.26025390625,-0.94732666015625,0.30853271484375
1759329002480,424426345,6812,21,-0.276123046875,-0.94195556640625,0.29681396484375
1759329002480,424426345,6812,22,-0.2626953125,-0.91876220703125,0.29486083984375
1759329002480,424426345,6812,23,-0.239501953125,-0.91046142578125,0.32611083984375
1759329002480,424426345,6812,24,-0.311767578125,-0.90704345703125,0.39349365234375
1759329002480,424426345,6812,25,-0.3076171875,-0.87530517578125,0.41986083984375
1759329002480,424426345,6812,26,-0.30859375,-0.86578369140625,0.43914794921875
1759329002480,424426345,6812,27,-0.311767578125,-0.84722900390625,0.45989990234375
1759329002480,424426345,6812,28,-0.31201171875,-0.84185791015625,0.49993896484375
1759329002480,424426345,6812,29,-0.328857421875,-0.85772705078125,0.46234130859375
1759329002480,424426345,6812,30,-0.27978515625,-0.90557861328125,0.37005615234375
1759329002480,424426345,6812,31,-0.268798828125,-0.92559814453125,0.35638427734375
1759329005030,424428888,6813,0,-0.27734375,-0.93585205078125,0.32537841796875
1759329005030,424428888,6813,1,-0.271728515625,-0.94000244140625,0.29559326171875
1759329005030,424428888,6813,2,-0.260986328125,-0.94293212890625,0.28045654296875
1759329005030,424428888,6813,3,-0.25732421875,-0.93389892578125,0.27874755859375
1759329005030,424428888,6813,4,-0.2431640625,-0.94903564453125,0.32049560546875
1759329005030,424428888,6813,5,-0.334716796875,-0.86993408203125,0.39056396484375
1759329005030,424428888,6813,6,-0.304931640625,-0.86407470703125,0.43743896484375
1759329005030,424428888,6813,7,-0.322021484375,-0.83795166015625,0.44915771484375
1759329005030,424428888,6813,8,-0.32275390625,-0.84381103515625,0.48822021484375
1759329005030,424428888,6813,9,-0.306396484375,-0.85479736328125,0.47650146484375
1759329005030,424428888,6813,10,-0.308349609375,-0.85162353515625,0.46771240234375
1759329005030,424428888,6813,11,-0.316650390625,-0.87750244140625,0.40936279296875
1759329005030,424428888,6813,12,-0.286865234375,-0.92803955078125,0.35809326171875
1759329005030,424428888,6813,13,-0.27001953125,-0.94146728515625,0.31365966796875
1759329005030,424428888,6813,14,-0.260986328125,-0.94049072265625,0.30023193359375
1759329005030,424428888,6813,15,-0.25390625,-0.93096923828125,0.30023193359375
1759329005030,424428888,6813,16,-0.2587890625,-0.91802978515625,0.33221435546875
1759329005030,424428888,6813,17,-0.3134765625,-0.89581298828125,0.39349365234375
1759329005030,424428888,6813,18,-0.299560546875,-0.86676025390625,0.41864013671875
1759329005030,424428888,6813,19,-0.30810546875,-0.85504150390625,0.46063232421875
1759329005030,424428888,6813,20,-0.31396484375,-0.84698486328125,0.47894287109375
1759329005030,424428888,6813,21,-0.29345703125,-0.84527587890625,0.48724365234375
1759329005030,424428888,6813,22,-0.307373046875,-0.83843994140625,0.49920654296875
1759329005030,424428888,6813,23,-0.30126953125,-0.89166259765625,0.39105224609375
1759329005030,424428888,6813,24,-0.269287109375,-0.92901611328125,0.36248779296875
1759329005030,424428888,6813,25,-0.262939453125,-0.92706298828125,0.32562255859375
1759329005030,424428888,6813,26,-0.267333984375,-0.94293212890625,0.31341552734375
1759329005030,424428888,6813,27,-0.271240234375,-0.94537353515625,0.30145263671875
1759329005030,424428888,6813,28,-0.2763671875,-0.93756103515625,0.28778076171875
1759329005030,424428888,6813,29,-0.242431640625,-0.90338134765625,0.34222412109375
1759329005030,424428888,6813,30,-0.2939453125,-0.90069580078125,0.38885498046875
1759329005030,424428888,6813,31,-0.3115234375,-0.87457275390625,0.42352294921875
1759329007730,424431425,6814,0,-0.298095703125,-0.85406494140625,0.43280029296875
1759329007730,424431425,6814,1,-0.3076171875,-0.87066650390625,0.46063232421875
1759329007730,424431425,6814,2,-0.30322265625,-0.84844970703125,0.47406005859375
1759329007730,424431425,6814,3,-0.29638671875,-0.85845947265625,0.47503662109375
1759329007730,424431425,6814,4,-0.305419921875,-0.87750244140625,0.41693115234375
1759329007730,424431425,6814,5,-0.277587890625,-0.91656494140625,0.37371826171875
1759329007730,424431425,6814,6,-0.277587890625,-0.92657470703125,0.33245849609375
1759329007730,424431425,6814,7,-0.268798828125,-0.94390869140625,0.31927490234375
1759329007730,424431425,6814,8,-0.270751953125,-0.93707275390625,0.30316162109375
1759329007730,424431425,6814,9,-0.2646484375,-0.92120361328125,0.32489013671875
1759329007730,424431425,6814,10,-0.26611328125,-0.90850830078125,0.33172607421875
1759329007730,424431425,6814,11,-0.2880859375,-0.89947509765625,0.39007568359375
1759329007730,424431425,6814,12,-0.30224609375,-0.88897705078125,0.40106201171875
1759329007730,424431425,6814,13,-0.296630859375,-0.87579345703125,0.42156982421875
1759329007730,424431425,6814,14,-0.307861328125,-0.86822509765625,0.44842529296875
1759329007730,424431425,6814,15,-0.294921875,-0.87652587890625,0.44793701171875
1759329007730,424431425,6814,16,-0.28759765625,-0.87579345703125,0.41986083984375
1759329007730,424431425,6814,17,-0.288818359375,-0.89019775390625,0.42083740234375
1759329007730,424431425,6814,18,-0.277099609375,-0.89825439453125,0.39495849609375
1759329007730,424431425,6814,19,-0.275146484375,-0.90338134765625,0.38690185546875
1759329007730,424431425,6814,20,-0.273681640625,-0.92095947265625,0.36761474609375
1759329007730,424431425,6814,21,-0.263671875,-0.91973876953125,0.34344482421875
1759329007730,424431425,6814,22,-0.2685546875,-0.93072509765625,0.32196044921875
1759329007730,424431425,6814,23,-0.27197265625,-0.94293212890625,0.31048583984375
1759329007730,424431425,6814,24,-0.26806640625,-0.93975830078125,0.29412841796875
1759329007730,424431425,6814,25,-0.260498046875,-0.92120361328125,0.29632568359375
1759329007730,424431425,6814,26,-0.26708984375,-0.92071533203125,0.35028076171875
1759329007730,424431425,6814,27,-0.291748046875,-0.90850830078125,0.36370849609375
1759329007730,424431425,6814,28,-0.286376953125,-0.89630126953125,0.36932373046875
1759329007730,424431425,6814,29,-0.270751953125,-0.90411376953125,0.36468505859375
1759329007730,424431425,6814,30,-0.292724609375,-0.91094970703125,0.37664794921875
1759329007730,424431425,6814,31,-0.29296875,-0.92755126953125,0.36273193359375
1759329010128,424433968,6815,0,-0.28515625,-0.93145751953125,0.30340576171875
1759329010128,424433968,6815,1,-0.2548828125,-0.94000244140625,0.29241943359375
1759329010128,424433968,6815,2,-0.270751953125,-0.95343017578125,0.27557373046875
1759329010128,424433968,6815,3,-0.2568359375,-0.94586181640625,0.26385498046875
1759329010128,424433968,6815,4,-0.2548828125,-0.95098876953125,0.26116943359375
1759329010128,424433968,6815,5,-0.255859375,-0.94146728515625,0.27850341796875
1759329010128,424433968,6815,6,-0.25341796875,-0.93536376953125,0.28533935546875
1759329010128,424433968,6815,7,-0.275390625,-0.92584228515625,0.34979248046875
1759329010128,424433968,6815,8,-0.294189453125,-0.91436767578125,0.34783935546875
1759329010128,424433968,6815,9,-0.279296875,-0.90020751953125,0.36663818359375
1759329010128,424433968,6815,10,-0.283935546875,-0.90924072265625,0.35882568359375
1759329010128,424433968,6815,11,-0.28369140625,-0.91558837890625,0.36029052734375
1759329010128,424433968,6815,12,-0.284912109375,-0.91876220703125,0.35150146484375
1759329010128,424433968,6815,13,-0.29638671875,-0.94512939453125,0.33734130859375
1759329010128,424433968,6815,14,-0.26220703125,-0.92730712890625,0.27850341796875
1759329010128,424433968,6815,15,-0.261474609375,-0.95196533203125,0.28240966796875
1759329010128,424433968,6815,16,-0.267822265625,-0.94537353515625,0.28167724609375
1759329010128,424433968,6815,17,-0.259765625,-0.94073486328125,0.28338623046875
1759329010128,424433968,6815,18,-0.267333984375,-0.94049072265625,0.29144287109375
1759329010128,424433968,6815,19,-0.264404296875,-0.92388916015625,0.31243896484375
1759329010128,424433968,6815,20,-0.274658203125,-0.92242431640625,0.34197998046875
1759329010128,424433968,6815,21,-0.287109375,-0.91998291015625,0.35491943359375
1759329010128,424433968,6815,22,-0.27685546875,-0.90606689453125,0.36663818359375
1759329010128,424433968,6815,23,-0.28564453125,-0.90362548828125,0.37078857421875
1759329010128,424433968,6815,24,-0.28662109375,-0.89068603515625,0.39276123046875
1759329010128,424433968,6815,25,-0.280029296875,-0.89337158203125,0.39202880859375
1759329010128,424433968,6815,26,-0.301513671875,-0.93463134765625,0.36590576171875
1759329010128,424433968,6815,27,-0.26611328125,-0.91949462890625,0.31854248046875
1759329010128,424433968,6815,28,-0.268310546875,-0.94049072265625,0.29656982421875
1759329010128,424433968,6815,29,-0.26171875,-0.94952392578125,0.29266357421875
1759329010128,424433968,6815,30,-0.270263671875,-0.93780517578125,0.29656982421875
1759329010128,424433968,6815,31,-0.262939453125,-0.93634033203125,0.31219482421875
1759329012680,424436512,6816,0,-0.27001953125,-0.91412353515625,0.33026123046875
1759329012680,424436512,6816,1,-0.284912109375,-0.91485595703125,0.36883544921875
1759329012680,424436512,6816,2,-0.290283203125,-0.90655517578125,0.37371826171875
1759329012680,424436512,6816,3,-0.279052734375,-0.89923095703125,0.37786865234375
1759329012680,424436512,6816,4,-0.28857421875,-0.89874267578125,0.38958740234375
1759329012680,424436512,6816,5,-0.288818359375,-0.88824462890625,0.40692138671875
1759329012680,424436512,6816,6,-0.28857421875,-0.91192626953125,0.38909912109375
1759329012680,424436512,6816,7,-0.286376953125,-0.92095947265625,0.35174560546875
1759329012680,424436512,6816,8,-0.263671875,-0.92413330078125,0.33099365234375
1759329012680,424436512,6816,9,-0.273193359375,-0.93780517578125,0.30926513671875
1759329012680,424436512,6816,10,-0.27001953125,-0.93756103515625,0.30242919921875
1759329012680,424436512,6816,11,-0.265625,-0.93902587890625,0.29681396484375
1759329012680,424436512,6816,12,-0.264404296875,-0.93292236328125,0.29779052734375
1759329012680,424436512,6816,13,-0.264892578125,-0.91973876953125,0.31707763671875
1759329012680,424436512,6816,14,-0.275390625,-0.92828369140625,0.34515380859375
1759329012680,424436512,6816,15,-0.283935546875,-0.91558837890625,0.35687255859375
1759329012680,424436512,6816,16,-0.28125,-0.90679931640625,0.36297607421875
1759329012680,424436512,6816,17,-0.28271484375,-0.90240478515625,0.38055419921875
1759329012680,424436512,6816,18,-0.281982421875,-0.89825439453125,0.39349365234375
1759329012680,424436512,6816,19,-0.283935546875,-0.90411376953125,0.38299560546875
1759329012680,424436512,6816,20,-0.2978515625,-0.91925048828125,0.37396240234375
1759329012680,424436512,6816,21,-0.278564453125,-0.91387939453125,0.33319091796875
1759329012680,424436512,6816,22,-0.269287109375,-0.92315673828125,0.32684326171875
1759329012680,424436512,6816,23,-0.27099609375,-0.93878173828125,0.30853271484375
1759329012680,424436512,6816,24,-0.260986328125,-0.94097900390625,0.28192138671875
1759329012680,424436512,6816,25,-0.26025390625,-0.94805908203125,0.28363037109375
1759329012680,424436512,6816,26,-0.26171875,-0.94049072265625,0.28509521484375
1759329012680,424436512,6816,27,-0.274169921875,-0.92877197265625,0.30511474609375
1759329012680,424436512,6816,28,-0.270263671875,-0.92364501953125,0.34832763671875
1759329012680,424436512,6816,29,-0.28076171875,-0.91217041015625,0.35711669921875
1759329012680,424436512,6816,30,-0.284912109375,-0.90484619140625,0.36688232421875
1759329012680,424436512,6816,31,-0.28759765625,-0.90289306640625,0.38128662109375
1759329015229,424439055,6817,0,-0.286376953125,-0.90167236328125,0.39178466796875
1759329015229,424439055,6817,1,-0.291748046875,-0.90631103515625,0.38934326171875
1759329015229,424439055,6817,2,-0.28564453125,-0.91192626953125,0.36199951171875
1759329015229,424439055,6817,3,-0.277099609375,-0.92633056640625,0.33905029296875
1759329015229,424439055,6817,4,-0.274658203125,-0.93096923828125,0.32049560546875
1759329015229,424439055,6817,5,-0.273681640625,-0.93756103515625,0.30340576171875
1759329015229,424439055,6817,6,-0.268798828125,-0.93951416015625,0.29168701171875
1759329015229,424439055,6817,7,-0.268798828125,-0.94732666015625,0.28045654296875
1759329015229,424439055,6817,8,-0.262451171875,-0.95025634765625,0.27239990234375
1759329015229,424439055,6817,9,-0.25146484375,-0.93536376953125,0.26580810546875
1759329015229,424439055,6817,10,-0.250244140625,-0.94195556640625,0.27655029296875
1759329015229,424439055,6817,11,-0.273681640625,-0.92340087890625,0.30438232421875
1759329015229,424439055,6817,12,-0.27978515625,-0.93585205078125,0.33563232421875
1759329015229,424439055,6817,13,-0.277099609375,-0.91510009765625,0.35003662109375
1759329015229,424439055,6817,14,-0.28369140625,-0.91192626953125,0.36932373046875
1759329015229,424439055,6817,15,-0.27880859375,-0.90948486328125,0.37347412109375
1759329015229,424439055,6817,16,-0.27978515625,-0.90435791015625,0.38519287109375
1759329015229,424439055,6817,17,-0.282470703125,-0.89385986328125,0.41278076171875
1759329015229,424439055,6817,18,-0.304931640625,-0.91461181640625,0.40423583984375
1759329015229,424439055,6817,19,-0.270751953125,-0.90899658203125,0.33441162109375
1759329015229,424439055,6817,20,-0.272705078125,-0.93487548828125,0.32904052734375
1759329015229,424439055,6817,21,-0.27587890625,-0.93438720703125,0.31268310546875
1759329015229,424439055,6817,22,-0.26904296875,-0.93194580078125,0.30145263671875
1759329015229,424439055,6817,23,-0.2666015625,-0.93829345703125,0.29339599609375
1759329015229,424439055,6817,24,-0.257080078125,-0.92462158203125,0.28729248046875
1759329015229,424439055,6817,25,-0.2685546875,-0.92608642578125,0.32635498046875
1759329015229,424439055,6817,26,-0.2841796875,-0.91925048828125,0.35760498046875
1759329015229,424439055,6817,27,-0.287841796875,-0.90533447265625,0.37445068359375
1759329015229,424439055,6817,28,-0.28173828125,-0.88970947265625,0.39788818359375
1759329015229,424439055,6817,29,-0.297607421875,-0.89312744140625,0.41180419921875
1759329015229,424439055,6817,30,-0.29296875,-0.86798095703125,0.43817138671875
1759329015229,424439055,6817,31,-0.295654296875,-0.87017822265625,0.44329833984375
1759329017928,424441598,6818,0,-0.296630859375,-0.86700439453125,0.46356201171875
1759329017928,424441598,6818,1,-0.30908203125,-0.87774658203125,0.41619873046875
1759329017928,424441598,6818,2,-0.2783203125,-0.90289306640625,0.39251708984375
1759329017928,424441598,6818,3,-0.280517578125,-0.91021728515625,0.36639404296875
1759329017928,424441598,6818,4,-0.28076171875,-0.91534423828125,0.35076904296875
1759329017928,424441598,6818,5,-0.278564453125,-0.92706298828125,0.33001708984375
1759329017928,424441598,6818,6,-0.271240234375,-0.92852783203125,0.31658935546875
1759329017928,424441598,6818,7,-0.264404296875,-0.91851806640625,0.32537841796875
1759329017928,424441598,6818,8,-0.27490234375,-0.91461181640625,0.33026123046875
1759329017928,424441598,6818,9,-0.279541015625,-0.91583251953125,0.38861083984375
1759329017928,424441598,6818,10,-0.28857421875,-0.89312744140625,0.37493896484375
1759329017928,424441598,6818,11,-0.28515625,-0.89093017578125,0.41131591796875
1759329017928,424441598,6818,12,-0.29150390625,-0.88092041015625,0.41522216796875
1759329017928,424441598,6818,13,-0.28564453125,-0.87969970703125,0.43011474609375
1759329017928,424441598,6818,14,-0.29052734375,-0.86407470703125,0.45672607421875
1759329017928,424441598,6818,15,-0.29052734375,-0.87091064453125,0.44232177734375
1759329017928,424441598,6818,16,-0.288818359375,-0.86383056640625,0.46258544921875
1759329017928,424441598,6818,17,-0.29150390625,-0.87847900390625,0.44012451171875
1759329017928,424441598,6818,18,-0.28369140625,-0.88800048828125,0.40179443359375
1759329017928,424441598,6818,19,-0.270263671875,-0.91461181640625,0.37322998046875
1759329017928,424441598,6818,20,-0.279296875,-0.92071533203125,0.34295654296875
1759329017928,424441598,6818,21,-0.270263671875,-0.92999267578125,0.33563232421875
1759329017928,424441598,6818,22,-0.271240234375,-0.92144775390625,0.33123779296875
1759329017928,424441598,6818,23,-0.273193359375,-0.91436767578125,0.33001708984375
1759329017928,424441598,6818,24,-0.282470703125,-0.90802001953125,0.38616943359375
1759329017928,424441598,6818,25,-0.29443359375,-0.88385009765625,0.38812255859375
1759329017928,424441598,6818,26,-0.310302734375,-0.88311767578125,0.41986083984375
1759329017928,424441598,6818,27,-0.295166015625,-0.86627197265625,0.43890380859375
1759329017928,424441598,6818,28,-0.306640625,-0.86358642578125,0.44989013671875
1759329017928,424441598,6818,29,-0.30322265625,-0.85406494140625,0.46258544921875
1759329017928,424441598,6818,30,-0.302490234375,-0.85015869140625,0.46990966796875
1759329017928,424441598,6818,31,-0.298095703125,-0.84552001953125,0.48138427734375
1759329020329,424444141,6819,0,-0.30517578125,-0.84918212890625,0.48480224609375
1759329020329,424444141,6819,1,-0.296630859375,-0.87091064453125,0.44378662109375
1759329020329,424444141,6819,2,-0.2822265625,-0.88653564453125,0.41839599609375
1759329020329,424444141,6819,3,-0.288818359375,-0.90118408203125,0.40301513671875
1759329020329,424444141,6819,4,-0.276123046875,-0.91461181640625,0.36419677734375
1759329020329,424444141,6819,5,-0.277099609375,-0.92437744140625,0.34100341796875
1759329020329,424444141,6819,6,-0.273193359375,-0.91925048828125,0.33538818359375
1759329020329,424444141,6819,7,-0.277099609375,-0.91290283203125,0.34173583984375
1759329020329,424444141,6819,8,-0.279541015625,-0.89996337890625,0.40203857421875
1759329020329,424444141,6819,9,-0.302490234375,-0.87701416015625,0.40911865234375
1759329020329,424444141,6819,10,-0.29248046875,-0.86407470703125,0.42498779296875
1759329020329,424444141,6819,11,-0.290771484375,-0.86187744140625,0.46112060546875
1759329020329,424444141,6819,12,-0.296875,-0.85797119140625,0.46917724609375
1759329020329,424444141,6819,13,-0.2861328125,-0.85137939453125,0.47283935546875
1759329020329,424444141,6819,14,-0.2900390625,-0.84381103515625,0.48480224609375
1759329020329,424444141,6819,15,-0.298095703125,-0.85235595703125,0.48016357421875
1759329020329,424444141,6819,16,-0.291015625,-0.88800048828125,0.42083740234375
1759329020329,424444141,6819,17,-0.275390625,-0.90338134765625,0.40032958984375
1759329020329,424444141,6819,18,-0.275146484375,-0.91485595703125,0.36737060546875
1759329020329,424444141,6819,19,-0.268310546875,-0.91925048828125,0.33953857421875
1759329020329,424444141,6819,20,-0.27001953125,-0.93170166015625,0.33685302734375
1759329020329,424444141,6819,21,-0.273681640625,-0.91900634765625,0.33782958984375
1759329020329,424444141,6819,22,-0.270751953125,-0.90533447265625,0.36175537109375
1759329020329,424444141,6819,23,-0.295654296875,-0.89288330078125,0.39251708984375
1759329020329,424444141,6819,24,-0.296142578125,-0.87725830078125,0.41839599609375
1759329020329,424444141,6819,25,-0.29833984375,-0.87017822265625,0.43743896484375
1759329020329,424444141,6819,26,-0.299072265625,-0.85870361328125,0.44720458984375
1759329020329,424444141,6819,27,-0.27587890625,-0.87017822265625,0.45794677734375
1759329020329,424444141,6819,28,-0.288330078125,-0.85919189453125,0.47332763671875
1759329020329,424444141,6819,29,-0.27685546875,-0.86187744140625,0.46844482421875
1759329020329,424444141,6819,30,-0.2958984375,-0.88726806640625,0.43328857421875
1759329020329,424444141,6819,31,-0.273193359375,-0.88970947265625,0.40228271484375
1759329022879,424446684,6820,0,-0.28515625,-0.90289306640625,0.39007568359375
1759329022879,424446684,6820,1,-0.27392578125,-0.91583251953125,0.36517333984375
1759329022879,424446684,6820,2,-0.275390625,-0.92144775390625,0.34344482421875
1759329022879,424446684,6820,3,-0.27490234375,-0.91802978515625,0.33587646484375
1759329022879,424446684,6820,4,-0.2744140625,-0.91046142578125,0.34295654296875
1759329022879,424446684,6820,5,-0.28759765625,-0.90386962890625,0.38104248046875
1759329022879,424446684,6820,6,-0.2939453125,-0.89556884765625,0.40057373046875
1759329022879,424446684,6820,7,-0.304443359375,-0.87628173828125,0.40545654296875
1759329022879,424446684,6820,8,-0.2900390625,-0.87457275390625,0.44012451171875
1759329022879,424446684,6820,9,-0.3173828125,-0.84698486328125,0.46429443359375
1759329022879,424446684,6820,10,-0.3076171875,-0.84918212890625,0.47796630859375
1759329022879,424446684,6820,11,-0.302734375,-0.83770751953125,0.48455810546875
1759329022879,424446684,6820,12,-0.313720703125,-0.84820556640625,0.48895263671875
1759329022879,424446684,6820,13,-0.302490234375,-0.86822509765625,0.44500732421875
1759329022879,424446684,6820,14,-0.28271484375,-0.89044189453125,0.40692138671875
1759329022879,424446684,6820,15,-0.283203125,-0.90191650390625,0.38787841796875
1759329022879,424446684,6820,16,-0.278076171875,-0.91656494140625,0.35394287109375
1759329022879,424446684,6820,17,-0.27587890625,-0.92999267578125,0.33831787109375
1759329022879,424446684,6820,18,-0.271484375,-0.92462158203125,0.33953857421875
1759329022879,424446684,6820,19,-0.275390625,-0.90753173828125,0.35955810546875
1759329022879,424446684,6820,20,-0.291748046875,-0.88848876953125,0.40179443359375
1759329022879,424446684,6820,21,-0.304931640625,-0.87530517578125,0.41595458984375
1759329022879,424446684,6820,22,-0.309814453125,-0.86309814453125,0.44110107421875
1759329022879,424446684,6820,23,-0.30908203125,-0.85430908203125,0.46649169921875
1759329022879,424446684,6820,24,-0.319091796875,-0.83673095703125,0.48162841796875
1759329022879,424446684,6820,25,-0.318115234375,-0.83160400390625,0.49407958984375
1759329022879,424446684,6820,26,-0.315185546875,-0.82427978515625,0.50433349609375
1759329022879,424446684,6820,27,-0.31591796875,-0.85040283203125,0.47039794921875
1759329022879,424446684,6820,28,-0.300537109375,-0.87969970703125,0.42889404296875
1759329022879,424446684,6820,29,-0.291748046875,-0.89483642578125,0.39691162109375
1759329022879,424446684,6820,30,-0.286376953125,-0.90899658203125,0.37249755859375
1759329022879,424446684,6820,31,-0.280029296875,-0.92437744140625,0.34832763671875
1759329025429,424449227,6821,0,-0.27587890625,-0.93072509765625,0.32757568359375
1759329025429,424449227,6821,1,-0.279541015625,-0.92657470703125,0.32733154296875
1759329025429,424449227,6821,2,-0.282470703125,-0.90997314453125,0.36004638671875
1759329025429,424449227,6821,3,-0.299072265625,-0.88458251953125,0.40057373046875
1759329025429,424449227,6821,4,-0.30224609375,-0.86700439453125,0.42864990234375
1759329025429,424449227,6821,5,-0.310546875,-0.85406494140625,0.45306396484375
1759329025429,424449227,6821,6,-0.310302734375,-0.85284423828125,0.46722412109375
1759329025429,424449227,6821,7,-0.310546875,-0.84869384765625,0.47357177734375
1759329025429,424449227,6821,8,-0.313232421875,-0.84063720703125,0.48651123046875
1759329025429,424449227,6821,9,-0.30859375,-0.83721923828125,0.50115966796875
1759329025429,424449227,6821,10,-0.309326171875,-0.84698486328125,0.46356201171875
1759329025429,424449227,6821,11,-0.292724609375,-0.88189697265625,0.43426513671875
1759329025429,424449227,6821,12,-0.27783203125,-0.89947509765625,0.39031982421875
1759329025429,424449227,6821,13,-0.279541015625,-0.91998291015625,0.35931396484375
1759329025429,424449227,6821,14,-0.273193359375,-0.93048095703125,0.35272216796875
1759329025429,424449227,6821,15,-0.279541015625,-0.92803955078125,0.33538818359375
1759329025429,424449227,6821,16,-0.271240234375,-0.91607666015625,0.34271240234375
1759329025429,424449227,6821,17,-0.287109375,-0.89141845703125,0.38714599609375
1759329025429,424449227,6821,18,-0.294677734375,-0.87359619140625,0.42156982421875
1759329025429,424449227,6821,19,-0.314453125,-0.85699462890625,0.44183349609375
1759329025429,424449227,6821,20,-0.30908203125,-0.84405517578125,0.47967529296875
1759329025429,424449227,6821,21,-0.311279296875,-0.83941650390625,0.49041748046875
1759329025429,424449227,6821,22,-0.3115234375,-0.83209228515625,0.49652099609375
1759329025429,424449227,6821,23,-0.307861328125,-0.82867431640625,0.50335693359375
1759329025429,424449227,6821,24,-0.311767578125,-0.82623291015625,0.50579833984375
1759329025429,424449227,6821,25,-0.3056640625,-0.84576416015625,0.48211669921875
1759329025429,424449227,6821,26,-0.284912109375,-0.87799072265625,0.44549560546875
1759329025429,424449227,6821,27,-0.287109375,-0.89556884765625,0.39886474609375
1759329025429,424449227,6821,28,-0.2724609375,-0.91510009765625,0.37078857421875
1759329025429,424449227,6821,29,-0.281005859375,-0.91973876953125,0.36029052734375
1759329025429,424449227,6821,30,-0.277587890625,-0.91534423828125,0.36297607421875
1759329025429,424449227,6821,31,-0.28271484375,-0.90167236328125,0.36956787109375
1759329028129,424451770,6822,0,-0.265380859375,-0.90093994140625,0.40423583984375
1759329028129,424451770,6822,1,-0.316162109375,-0.84234619140625,0.44207763671875
1759329028129,424451770,6822,2,-0.306884765625,-0.85089111328125,0.47406005859375
1759329028129,424451770,6822,3,-0.31201171875,-0.83477783203125,0.48748779296875
1759329028129,424451770,6822,4,-0.31298828125,-0.83135986328125,0.50775146484375
1759329028129,424451770,6822,5,-0.313232421875,-0.81939697265625,0.51239013671875
1759329028129,424451770,6822,6,-0.3095703125,-0.81646728515625,0.52166748046875
1759329028129,424451770,6822,7,-0.318603515625,-0.84356689453125,0.49554443359375
1759329028129,424451770,6822,8,-0.297119140625,-0.86016845703125,0.46258544921875
1759329028129,424451770,6822,9,-0.29541015625,-0.88482666015625,0.41888427734375
1759329028129,424451770,6822,10,-0.282470703125,-0.90509033203125,0.38714599609375
1759329028129,424451770,6822,11,-0.279296875,-0.91632080078125,0.35565185546875
1759329028129,424451770,6822,12,-0.275390625,-0.92413330078125,0.33636474609375
1759329028129,424451770,6822,13,-0.269287109375,-0.92633056640625,0.32244873046875
1759329028129,424451770,6822,14,-0.27197265625,-0.93853759765625,0.30755615234375
1759329028129,424451770,6822,15,-0.2705078125,-0.93756103515625,0.30364990234375
1759329028129,424451770,6822,16,-0.267578125,-0.93658447265625,0.28851318359375
1759329028129,424451770,6822,17,-0.272705078125,-0.94366455078125,0.29461669921875
1759329028129,424451770,6822,18,-0.259765625,-0.93902587890625,0.27801513671875
1759329028129,424451770,6822,19,-0.251220703125,-0.92828369140625,0.27532958984375
1759329028129,424451770,6822,20,-0.2646484375,-0.93389892578125,0.30828857421875
1759329028129,424451770,6822,21,-0.28515625,-0.92877197265625,0.33343505859375
1759329028129,424451770,6822,22,-0.2861328125,-0.91265869140625,0.36199951171875
1759329028129,424451770,6822,23,-0.282470703125,-0.90240478515625,0.36712646484375
1759329028129,424451770,6822,24,-0.29541015625,-0.91461181640625,0.37860107421875
1759329028129,424451770,6822,25,-0.29736328125,-0.92974853515625,0.37738037109375
1759329028129,424451770,6822,26,-0.2841796875,-0.90875244140625,0.33026123046875
1759329028129,424451770,6822,27,-0.270263671875,-0.93609619140625,0.31512451171875
1759329028129,424451770,6822,28,-0.27001953125,-0.93902587890625,0.29388427734375
1759329028129,424451770,6822,29,-0.259521484375,-0.92657470703125,0.29046630859375
1759329028129,424451770,6822,30,-0.26220703125,-0.93975830078125,0.30145263671875
1759329028129,424451770,6822,31,-0.272705078125,-0.91802978515625,0.35882568359375
1759329030529,424454313,6823,0,-0.291748046875,-0.90362548828125,0.37347412109375
1759329030529,424454313,6823,1,-0.29052734375,-0.89752197265625,0.38226318359375
1759329030529,424454313,6823,2,-0.2958984375,-0.88824462890625,0.41204833984375
1759329030529,424454313,6823,3,-0.2998046875,-0.88287353515625,0.41937255859375
1759329030529,424454313,6823,4,-0.30126953125,-0.86724853515625,0.43597412109375
1759329030529,424454313,6823,5,-0.304443359375,-0.86383056640625,0.45477294921875
1759329030529,424454313,6823,6,-0.305908203125,-0.85137939453125,0.46307373046875
1759329030529,424454313,6823,7,-0.307861328125,-0.85186767578125,0.47308349609375
1759329030529,424454313,6823,8,-0.310546875,-0.86016845703125,0.46820068359375
1759329030529,424454313,6823,9,-0.290771484375,-0.88189697265625,0.41278076171875
1759329030529,424454313,6823,10,-0.28515625,-0.90191650390625,0.39154052734375
1759329030529,424454313,6823,11,-0.278076171875,-0.91827392578125,0.35321044921875
1759329030529,424454313,6823,12,-0.275634765625,-0.92584228515625,0.33587646484375
1759329030529,424454313,6823,13,-0.268798828125,-0.92779541015625,0.33148193359375
1759329030529,424454313,6823,14,-0.27197265625,-0.91900634765625,0.33563232421875
1759329030529,424454313,6823,15,-0.28076171875,-0.91802978515625,0.36297607421875
1759329030529,424454313,6823,16,-0.292724609375,-0.88555908203125,0.39251708984375
1759329030529,424454313,6823,17,-0.299072265625,-0.87457275390625,0.43060302734375
1759329030529,424454313,6823,18,-0.294921875,-0.86309814453125,0.43890380859375
1759329030529,424454313,6823,19,-0.309814453125,-0.85504150390625,0.46258544921875
1759329030529,424454313,6823,20,-0.29638671875,-0.85015869140625,0.47991943359375
1759329030529,424454313,6823,21,-0.306396484375,-0.84918212890625,0.47406005859375
1759329030529,424454313,6823,22,-0.2978515625,-0.84991455078125,0.48333740234375
1759329030529,424454313,6823,23,-0.304931640625,-0.85699462890625,0.45867919921875
1759329030529,424454313,6823,24,-0.291015625,-0.88555908203125,0.42303466796875
1759329030529,424454313,6823,25,-0.28564453125,-0.90216064453125,0.39715576171875
1759329030529,424454313,6823,26,-0.27685546875,-0.91021728515625,0.36981201171875
1759329030529,424454313,6823,27,-0.281005859375,-0.92047119140625,0.35565185546875
1759329030529,424454313,6823,28,-0.275390625,-0.92047119140625,0.34027099609375
1759329030529,424454313,6823,29,-0.27392578125,-0.91461181640625,0.34588623046875
1759329030529,424454313,6823,30,-0.27978515625,-0.90728759765625,0.38079833984375
1759329030529,424454313,6823,31,-0.296875,-0.87261962890625,0.40911865234375
1759329033080,424456856,6824,0,-0.30126953125,-0.86651611328125,0.43548583984375
1759329033080,424456856,6824,1,-0.31103515625,-0.86016845703125,0.45037841796875
