receivedPhoneTimestamp,respeckTimestamp,packetSeqNum,sampleSeqNum,accelX,accelY,accelZ
1759669666160,797688103,6428,26,0.761962890625,-0.05157470703125,0.52581787109375
1759669666160,797688103,6428,27,0.756103515625,-0.04815673828125,0.51507568359375
1759669666160,797688103,6428,28,0.744873046875,-0.06256103515625,0.52337646484375
1759669666160,797688103,6428,29,0.76611328125,-0.06451416015625,0.54656982421875
1759669666160,797688103,6428,30,0.768798828125,-0.05743408203125,0.53924560546875
1759669666160,797688103,6428,31,0.755615234375,-0.05450439453125,0.54559326171875
1759669668709,797690682,6429,0,0.76513671875,-0.06475830078125,0.54461669921875
1759669668709,797690682,6429,1,0.77099609375,-0.06256103515625,0.54681396484375
1759669668709,797690682,6429,2,0.764892578125,-0.05084228515625,0.52801513671875
1759669668709,797690682,6429,3,0.769287109375,-0.05841064453125,0.53265380859375
1759669668709,797690682,6429,4,0.769775390625,-0.05328369140625,0.51263427734375
1759669668709,797690682,6429,5,0.760009765625,-0.05035400390625,0.50994873046875
1759669668709,797690682,6429,6,0.7548828125,-0.05108642578125,0.50872802734375
1759669668709,797690682,6429,7,0.768310546875,-0.06890869140625,0.53192138671875
1759669668709,797690682,6429,8,0.7666015625,-0.05889892578125,0.52581787109375
1759669668709,797690682,6429,9,0.762939453125,-0.05987548828125,0.53631591796875
1759669668709,797690682,6429,10,0.7734375,-0.05865478515625,0.54486083984375
1759669668709,797690682,6429,11,0.76416015625,-0.05963134765625,0.52606201171875
1759669668709,797690682,6429,12,0.763671875,-0.05621337890625,0.53411865234375
1759669668709,797690682,6429,13,0.767578125,-0.06207275390625,0.54510498046875
1759669668709,797690682,6429,14,0.77392578125,-0.05548095703125,0.52923583984375
1759669668709,797690682,6429,15,0.764892578125,-0.05596923828125,0.51727294921875
1759669668709,797690682,6429,16,0.777099609375,-0.05206298828125,0.51947021484375
1759669668709,797690682,6429,17,0.771728515625,-0.05499267578125,0.51800537109375
1759669668709,797690682,6429,18,0.7666015625,-0.05084228515625,0.51898193359375
1759669668709,797690682,6429,19,0.7509765625,-0.05010986328125,0.51019287109375
1759669668709,797690682,6429,20,0.745361328125,-0.06719970703125,0.53289794921875
1759669668709,797690682,6429,21,0.772216796875,-0.05914306640625,0.55975341796875
1759669668709,797690682,6429,22,0.7568359375,-0.05572509765625,0.54119873046875
1759669668709,797690682,6429,23,0.744873046875,-0.06231689453125,0.55242919921875
1759669668709,797690682,6429,24,0.765869140625,-0.06671142578125,0.55023193359375
1759669668709,797690682,6429,25,0.76171875,-0.05938720703125,0.54656982421875
1759669668709,797690682,6429,26,0.767822265625,-0.05743408203125,0.54412841796875
1759669668709,797690682,6429,27,0.757568359375,-0.05621337890625,0.53729248046875
1759669668709,797690682,6429,28,0.75830078125,-0.05377197265625,0.53363037109375
1759669668709,797690682,6429,29,0.755615234375,-0.05816650390625,0.53216552734375
1759669668709,797690682,6429,30,0.751220703125,-0.05059814453125,0.53118896484375
1759669668709,797690682,6429,31,0.745849609375,-0.04620361328125,0.52020263671875
1759669671257,797693262,6430,0,0.7578125,-0.06158447265625,0.54461669921875
1759669671257,797693262,6430,1,0.7578125,-0.06353759765625,0.54632568359375
1759669671257,797693262,6430,2,0.7587890625,-0.05499267578125,0.55535888671875
1759669671257,797693262,6430,3,0.758056640625,-0.06304931640625,0.54364013671875
1759669671257,797693262,6430,4,0.75732421875,-0.05645751953125,0.53607177734375
1759669671257,797693262,6430,5,0.765380859375,-0.05694580078125,0.54241943359375
1759669671257,797693262,6430,6,0.77197265625,-0.05914306640625,0.54534912109375
1759669671257,797693262,6430,7,0.76708984375,-0.05670166015625,0.53436279296875
1759669671257,797693262,6430,8,0.7548828125,-0.05084228515625,0.52703857421875
1759669671257,797693262,6430,9,0.760986328125,-0.05377197265625,0.53607177734375
1759669671257,797693262,6430,10,0.756103515625,-0.05938720703125,0.53314208984375
1759669671257,797693262,6430,11,0.754638671875,-0.05377197265625,0.52947998046875
1759669671257,797693262,6430,12,0.75244140625,-0.05010986328125,0.52386474609375
1759669671257,797693262,6430,13,0.7529296875,-0.06597900390625,0.53167724609375
1759669671257,797693262,6430,14,0.76123046875,-0.05499267578125,0.55389404296875
1759669671257,797693262,6430,15,0.76220703125,-0.05596923828125,0.53973388671875
1759669671257,797693262,6430,16,0.755615234375,-0.05865478515625,0.54534912109375
1759669671257,797693262,6430,17,0.759033203125,-0.06866455078125,0.54754638671875
1759669671257,797693262,6430,18,0.7705078125,-0.05865478515625,0.54852294921875
1759669671257,797693262,6430,19,0.766357421875,-0.04473876953125,0.53118896484375
1759669671257,797693262,6430,20,0.763671875,-0.04913330078125,0.52581787109375
1759669671257,797693262,6430,21,0.76904296875,-0.05499267578125,0.52215576171875
1759669671257,797693262,6430,22,0.771484375,-0.05206298828125,0.52410888671875
1759669671257,797693262,6430,23,0.765869140625,-0.05010986328125,0.52508544921875
1759669671257,797693262,6430,24,0.771240234375,-0.04986572265625,0.52191162109375
1759669671257,797693262,6430,25,0.75732421875,-0.04498291015625,0.51263427734375
1759669671257,797693262,6430,26,0.751220703125,-0.05987548828125,0.51312255859375
1759669671257,797693262,6430,27,0.776123046875,-0.06768798828125,0.54071044921875
1759669671257,797693262,6430,28,0.7744140625,-0.05010986328125,0.52288818359375
1759669671257,797693262,6430,29,0.765869140625,-0.05157470703125,0.53363037109375
1759669671257,797693262,6430,30,0.763671875,-0.06866455078125,0.53558349609375
1759669671257,797693262,6430,31,0.76904296875,-0.05914306640625,0.54071044921875
1759669673957,797695841,6431,0,0.777099609375,-0.05718994140625,0.54730224609375
1759669673957,797695841,6431,1,0.76220703125,-0.04522705078125,0.52020263671875
1759669673957,797695841,6431,2,0.764404296875,-0.05206298828125,0.52044677734375
1759669673957,797695841,6431,3,0.77783203125,-0.05133056640625,0.51971435546875
1759669673957,797695841,6431,4,0.76953125,-0.05255126953125,0.51336669921875
1759669673957,797695841,6431,5,0.77197265625,-0.04571533203125,0.51702880859375
1759669673957,797695841,6431,6,0.751708984375,-0.04693603515625,0.50018310546875
1759669673957,797695841,6431,7,0.765380859375,-0.06719970703125,0.53338623046875
1759669673957,797695841,6431,8,0.7744140625,-0.05621337890625,0.53973388671875
1759669673957,797695841,6431,9,0.75927734375,-0.05035400390625,0.53338623046875
1759669673957,797695841,6431,10,0.76953125,-0.06353759765625,0.53753662109375
1759669673957,797695841,6431,11,0.768798828125,-0.06011962890625,0.53070068359375
1759669673957,797695841,6431,12,0.785888671875,-0.05889892578125,0.54705810546875
1759669673957,797695841,6431,13,0.76611328125,-0.05010986328125,0.51312255859375
1759669673957,797695841,6431,14,0.76611328125,-0.04962158203125,0.51263427734375
1759669673957,797695841,6431,15,0.7763671875,-0.05523681640625,0.51995849609375
1759669673957,797695841,6431,16,0.756103515625,-0.04473876953125,0.50115966796875
1759669673957,797695841,6431,17,0.760009765625,-0.05889892578125,0.51654052734375
1759669673957,797695841,6431,18,0.775390625,-0.05987548828125,0.53729248046875
1759669673957,797695841,6431,19,0.767333984375,-0.05621337890625,0.51922607421875
1759669673957,797695841,6431,20,0.765869140625,-0.05230712890625,0.53045654296875
1759669673957,797695841,6431,21,0.770751953125,-0.05816650390625,0.52752685546875
1759669673957,797695841,6431,22,0.7705078125,-0.05987548828125,0.53216552734375
1759669673957,797695841,6431,23,0.792724609375,-0.06475830078125,0.54705810546875
1759669673957,797695841,6431,24,0.7685546875,-0.04864501953125,0.49652099609375
1759669673957,797695841,6431,25,0.773193359375,-0.04986572265625,0.51165771484375
1759669673957,797695841,6431,26,0.78125,-0.05670166015625,0.51092529296875
1759669673957,797695841,6431,27,0.771484375,-0.05181884765625,0.50994873046875
1759669673957,797695841,6431,28,0.7685546875,-0.05206298828125,0.51458740234375
1759669673957,797695841,6431,29,0.767822265625,-0.05010986328125,0.50946044921875
1759669673957,797695841,6431,30,0.7568359375,-0.05206298828125,0.50506591796875
1759669673957,797695841,6431,31,0.780029296875,-0.07012939453125,0.52899169921875
1759669676507,797698420,6432,0,0.7783203125,-0.05718994140625,0.53582763671875
1759669676507,797698420,6432,1,0.752197265625,-0.04986572265625,0.52752685546875
1759669676507,797698420,6432,2,0.765625,-0.06475830078125,0.53997802734375
1759669676507,797698420,6432,3,0.76123046875,-0.06475830078125,0.53338623046875
1759669676507,797698420,6432,4,0.76806640625,-0.05499267578125,0.52825927734375
1759669676507,797698420,6432,5,0.777587890625,-0.05767822265625,0.53118896484375
1759669676507,797698420,6432,6,0.7783203125,-0.06060791015625,0.52166748046875
1759669676507,797698420,6432,7,0.772705078125,-0.05889892578125,0.51190185546875
1759669676507,797698420,6432,8,0.767578125,-0.05645751953125,0.51800537109375
1759669676507,797698420,6432,9,0.763427734375,-0.05645751953125,0.51849365234375
1759669676507,797698420,6432,10,0.76123046875,-0.04962158203125,0.51190185546875
1759669676507,797698420,6432,11,0.75927734375,-0.06304931640625,0.52239990234375
1759669676507,797698420,6432,12,0.775146484375,-0.06182861328125,0.53021240234375
1759669676507,797698420,6432,13,0.767822265625,-0.05841064453125,0.51873779296875
1759669676507,797698420,6432,14,0.7646484375,-0.05181884765625,0.52752685546875
1759669676507,797698420,6432,15,0.771728515625,-0.06500244140625,0.54022216796875
1759669676507,797698420,6432,16,0.769287109375,-0.06158447265625,0.52947998046875
1759669676507,797698420,6432,17,0.779541015625,-0.06231689453125,0.53338623046875
1759669676507,797698420,6432,18,0.77197265625,-0.05792236328125,0.52508544921875
1759669676507,797698420,6432,19,0.76904296875,-0.05084228515625,0.50677490234375
1759669676507,797698420,6432,20,0.776123046875,-0.05499267578125,0.51214599609375
1759669676507,797698420,6432,21,0.7734375,-0.05670166015625,0.51092529296875
1759669676507,797698420,6432,22,0.77294921875,-0.05401611328125,0.52069091796875
1759669676507,797698420,6432,23,0.75927734375,-0.04888916015625,0.51361083984375
1759669676507,797698420,6432,24,0.754638671875,-0.04986572265625,0.51361083984375
1759669676507,797698420,6432,25,0.766845703125,-0.06353759765625,0.52874755859375
1759669676507,797698420,6432,26,0.774169921875,-0.06060791015625,0.53460693359375
1759669676507,797698420,6432,27,0.765380859375,-0.05401611328125,0.53240966796875
1759669676507,797698420,6432,28,0.770751953125,-0.05865478515625,0.53973388671875
1759669676507,797698420,6432,29,0.774658203125,-0.06329345703125,0.53704833984375
1759669676507,797698420,6432,30,0.76708984375,-0.05377197265625,0.52777099609375
1759669676507,797698420,6432,31,0.76025390625,-0.05303955078125,0.52191162109375
1759669679057,797700999,6433,0,0.7744140625,-0.05718994140625,0.52191162109375
1759669679057,797700999,6433,1,0.770263671875,-0.05548095703125,0.51800537109375
1759669679057,797700999,6433,2,0.76953125,-0.05181884765625,0.51922607421875
1759669679057,797700999,6433,3,0.769775390625,-0.05303955078125,0.52166748046875
1759669679057,797700999,6433,4,0.76513671875,-0.05157470703125,0.52288818359375
1759669679057,797700999,6433,5,0.750732421875,-0.05230712890625,0.51507568359375
1759669679057,797700999,6433,6,0.77783203125,-0.06597900390625,0.53607177734375
1759669679057,797700999,6433,7,0.768310546875,-0.05474853515625,0.53045654296875
1759669679057,797700999,6433,8,0.75537109375,-0.05206298828125,0.53216552734375
1759669679057,797700999,6433,9,0.75830078125,-0.06402587890625,0.54876708984375
1759669679057,797700999,6433,10,0.757080078125,-0.06402587890625,0.53997802734375
1759669679057,797700999,6433,11,0.76220703125,-0.06427001953125,0.55047607421875
1759669679057,797700999,6433,12,0.770263671875,-0.05523681640625,0.53778076171875
1759669679057,797700999,6433,13,0.75732421875,-0.04571533203125,0.51995849609375
1759669679057,797700999,6433,14,0.769287109375,-0.05523681640625,0.52410888671875
1759669679057,797700999,6433,15,0.765380859375,-0.05133056640625,0.52679443359375
1759669679057,797700999,6433,16,0.76171875,-0.04888916015625,0.52142333984375
1759669679057,797700999,6433,17,0.756591796875,-0.05255126953125,0.51629638671875
1759669679057,797700999,6433,18,0.766357421875,-0.06646728515625,0.54852294921875
1759669679057,797700999,6433,19,0.768310546875,-0.05645751953125,0.53778076171875
1759669679057,797700999,6433,20,0.761962890625,-0.05450439453125,0.53167724609375
1759669679057,797700999,6433,21,0.767578125,-0.06402587890625,0.53753662109375
1759669679057,797700999,6433,22,0.770751953125,-0.05987548828125,0.54656982421875
1759669679057,797700999,6433,23,0.766845703125,-0.05206298828125,0.52288818359375
1759669679057,797700999,6433,24,0.771240234375,-0.05377197265625,0.51483154296875
1759669679057,797700999,6433,25,0.778564453125,-0.05914306640625,0.52020263671875
1759669679057,797700999,6433,26,0.772216796875,-0.05279541015625,0.51287841796875
1759669679057,797700999,6433,27,0.771484375,-0.04864501953125,0.51068115234375
1759669679057,797700999,6433,28,0.74755859375,-0.04840087890625,0.50848388671875
1759669679057,797700999,6433,29,0.76513671875,-0.06890869140625,0.53656005859375
1759669679057,797700999,6433,30,0.768798828125,-0.05816650390625,0.53143310546875
1759669679057,797700999,6433,31,0.763671875,-0.05718994140625,0.53973388671875
1759669681607,797703578,6434,0,0.767822265625,-0.05963134765625,0.53509521484375
1759669681607,797703578,6434,1,0.76806640625,-0.06085205078125,0.54071044921875
1759669681607,797703578,6434,2,0.775390625,-0.05450439453125,0.53314208984375
1759669681607,797703578,6434,3,0.7607421875,-0.05352783203125,0.52166748046875
1759669681607,797703578,6434,4,0.76953125,-0.05865478515625,0.52239990234375
1759669681607,797703578,6434,5,0.769287109375,-0.05255126953125,0.51751708984375
1759669681607,797703578,6434,6,0.7685546875,-0.04815673828125,0.51214599609375
1759669681607,797703578,6434,7,0.756103515625,-0.04669189453125,0.50604248046875
1759669681607,797703578,6434,8,0.770751953125,-0.06622314453125,0.52630615234375
1759669681607,797703578,6434,9,0.769287109375,-0.04986572265625,0.54022216796875
1759669681607,797703578,6434,10,0.760498046875,-0.05279541015625,0.52484130859375
1759669681607,797703578,6434,11,0.771240234375,-0.06060791015625,0.54901123046875
1759669681607,797703578,6434,12,0.76708984375,-0.06060791015625,0.53948974609375
1759669681607,797703578,6434,13,0.768310546875,-0.05670166015625,0.53485107421875
1759669681607,797703578,6434,14,0.762451171875,-0.05352783203125,0.52484130859375
1759669681607,797703578,6434,15,0.767333984375,-0.05401611328125,0.52166748046875
1759669681607,797703578,6434,16,0.77490234375,-0.05816650390625,0.52459716796875
1759669681607,797703578,6434,17,0.77197265625,-0.04815673828125,0.52069091796875
1759669681607,797703578,6434,18,0.76953125,-0.04791259765625,0.51043701171875
1759669681607,797703578,6434,19,0.7568359375,-0.04351806640625,0.50823974609375
1759669681607,797703578,6434,20,0.7705078125,-0.06280517578125,0.53021240234375
1759669681607,797703578,6434,21,0.7744140625,-0.05670166015625,0.53656005859375
1759669681607,797703578,6434,22,0.76904296875,-0.05206298828125,0.53704833984375
1759669681607,797703578,6434,23,0.76513671875,-0.05938720703125,0.53753662109375
1759669681607,797703578,6434,24,0.761962890625,-0.06207275390625,0.53363037109375
1759669681607,797703578,6434,25,0.769287109375,-0.06378173828125,0.53533935546875
1759669681607,797703578,6434,26,0.760009765625,-0.05206298828125,0.53240966796875
1759669681607,797703578,6434,27,0.777587890625,-0.04718017578125,0.52020263671875
1759669681607,797703578,6434,28,0.7734375,-0.04937744140625,0.51800537109375
1759669681607,797703578,6434,29,0.77099609375,-0.05084228515625,0.51409912109375
1759669681607,797703578,6434,30,0.76025390625,-0.04669189453125,0.50872802734375
1759669681607,797703578,6434,31,0.77099609375,-0.05889892578125,0.51800537109375
1759669684157,797706157,6435,0,0.76953125,-0.05523681640625,0.53143310546875
1759669684157,797706157,6435,1,0.767333984375,-0.05108642578125,0.52117919921875
1759669684157,797706157,6435,2,0.77099609375,-0.05914306640625,0.53729248046875
1759669684157,797706157,6435,3,0.76806640625,-0.06036376953125,0.52655029296875
1759669684157,797706157,6435,4,0.777587890625,-0.05865478515625,0.52972412109375
1759669684157,797706157,6435,5,0.77783203125,-0.05499267578125,0.51898193359375
1759669684157,797706157,6435,6,0.7763671875,-0.04791259765625,0.50726318359375
1759669684157,797706157,6435,7,0.7783203125,-0.05841064453125,0.51287841796875
1759669684157,797706157,6435,8,0.77783203125,-0.05010986328125,0.50677490234375
1759669684157,797706157,6435,9,0.769287109375,-0.04913330078125,0.50775146484375
1759669684157,797706157,6435,10,0.762451171875,-0.04864501953125,0.50311279296875
1759669684157,797706157,6435,11,0.784423828125,-0.06695556640625,0.53045654296875
1759669684157,797706157,6435,12,0.76220703125,-0.03839111328125,0.50872802734375
1759669684157,797706157,6435,13,0.763916015625,-0.04815673828125,0.54022216796875
1759669684157,797706157,6435,14,0.774658203125,-0.06329345703125,0.54071044921875
1759669684157,797706157,6435,15,0.774169921875,-0.05499267578125,0.52386474609375
1759669684157,797706157,6435,16,0.785400390625,-0.05279541015625,0.52459716796875
1759669684157,797706157,6435,17,0.778564453125,-0.04498291015625,0.50750732421875
1759669684157,797706157,6435,18,0.775634765625,-0.04913330078125,0.50628662109375
1759669684157,797706157,6435,19,0.77978515625,-0.05767822265625,0.51068115234375
1759669684157,797706157,6435,20,0.774169921875,-0.04888916015625,0.50775146484375
1759669684157,797706157,6435,21,0.775634765625,-0.04644775390625,0.50579833984375
1759669684157,797706157,6435,22,0.76220703125,-0.04718017578125,0.49847412109375
1759669684157,797706157,6435,23,0.77001953125,-0.06085205078125,0.51849365234375
1759669684157,797706157,6435,24,0.783447265625,-0.05450439453125,0.52972412109375
1759669684157,797706157,6435,25,0.76904296875,-0.05621337890625,0.52435302734375
1759669684157,797706157,6435,26,0.773681640625,-0.05645751953125,0.52679443359375
1759669684157,797706157,6435,27,0.77685546875,-0.05426025390625,0.52044677734375
1759669684157,797706157,6435,28,0.779296875,-0.05572509765625,0.52410888671875
1759669684157,797706157,6435,29,0.777587890625,-0.05084228515625,0.51873779296875
1759669684157,797706157,6435,30,0.77734375,-0.05010986328125,0.50482177734375
1759669684157,797706157,6435,31,0.78173828125,-0.05157470703125,0.50555419921875
1759669686857,797708736,6436,0,0.783203125,-0.05157470703125,0.50408935546875
1759669686857,797708736,6436,1,0.778564453125,-0.04620361328125,0.50018310546875
1759669686857,797708736,6436,2,0.764892578125,-0.04425048828125,0.49090576171875
1759669686857,797708736,6436,3,0.773193359375,-0.06378173828125,0.51971435546875
1759669686857,797708736,6436,4,0.7900390625,-0.05743408203125,0.52752685546875
1759669686857,797708736,6436,5,0.7734375,-0.04864501953125,0.52069091796875
1759669686857,797708736,6436,6,0.7685546875,-0.05450439453125,0.52996826171875
1759669686857,797708736,6436,7,0.769775390625,-0.05572509765625,0.52679443359375
1759669686857,797708736,6436,8,0.7744140625,-0.05548095703125,0.52655029296875
1759669686857,797708736,6436,9,0.776611328125,-0.05328369140625,0.52288818359375
1759669686857,797708736,6436,10,0.77783203125,-0.05133056640625,0.51068115234375
1759669686857,797708736,6436,11,0.77978515625,-0.04888916015625,0.50775146484375
1759669686857,797708736,6436,12,0.775634765625,-0.05572509765625,0.51287841796875
1759669686857,797708736,6436,13,0.771240234375,-0.04766845703125,0.50067138671875
1759669686857,797708736,6436,14,0.75927734375,-0.04742431640625,0.50311279296875
1759669686857,797708736,6436,15,0.77490234375,-0.06622314453125,0.51824951171875
1759669686857,797708736,6436,16,0.775146484375,-0.05499267578125,0.52288818359375
1759669686857,797708736,6436,17,0.772216796875,-0.04791259765625,0.52825927734375
1759669686857,797708736,6436,18,0.76611328125,-0.05889892578125,0.53924560546875
1759669686857,797708736,6436,19,0.767333984375,-0.06011962890625,0.52996826171875
1759669686857,797708736,6436,20,0.774658203125,-0.05987548828125,0.52508544921875
1759669686857,797708736,6436,21,0.77294921875,-0.05206298828125,0.52239990234375
1759669686857,797708736,6436,22,0.7763671875,-0.05255126953125,0.51190185546875
1759669686857,797708736,6436,23,0.782470703125,-0.05548095703125,0.50360107421875
1759669686857,797708736,6436,24,0.7822265625,-0.05548095703125,0.50994873046875
1759669686857,797708736,6436,25,0.779296875,-0.04742431640625,0.50531005859375
1759669686857,797708736,6436,26,0.77294921875,-0.04742431640625,0.49847412109375
1759669686857,797708736,6436,27,0.759765625,-0.05303955078125,0.50286865234375
1759669686857,797708736,6436,28,0.771240234375,-0.06524658203125,0.52703857421875
1759669686857,797708736,6436,29,0.784912109375,-0.05255126953125,0.52386474609375
1759669686857,797708736,6436,30,0.76123046875,-0.05401611328125,0.52703857421875
1759669686857,797708736,6436,31,0.77001953125,-0.06109619140625,0.54217529296875
1759669689556,797711316,6437,0,0.771240234375,-0.06304931640625,0.53656005859375
1759669689556,797711316,6437,1,0.776611328125,-0.05377197265625,0.52386474609375
1759669689556,797711316,6437,2,0.769775390625,-0.04986572265625,0.50701904296875
1759669689556,797711316,6437,3,0.782470703125,-0.05596923828125,0.50823974609375
1759669689556,797711316,6437,4,0.78564453125,-0.05572509765625,0.50579833984375
1759669689556,797711316,6437,5,0.780517578125,-0.05133056640625,0.50018310546875
1759669689556,797711316,6437,6,0.771240234375,-0.05108642578125,0.50042724609375
1759669689556,797711316,6437,7,0.76318359375,-0.05377197265625,0.49578857421875
1759669689556,797711316,6437,8,0.777587890625,-0.06304931640625,0.52752685546875
1759669689556,797711316,6437,9,0.7841796875,-0.05865478515625,0.53460693359375
1759669689556,797711316,6437,10,0.760498046875,-0.05157470703125,0.51947021484375
1759669689556,797711316,6437,11,0.767333984375,-0.06256103515625,0.53485107421875
1759669689556,797711316,6437,12,0.76953125,-0.06793212890625,0.53802490234375
1759669689556,797711316,6437,13,0.7646484375,-0.05206298828125,0.52386474609375
1759669689556,797711316,6437,14,0.765625,-0.04937744140625,0.50750732421875
1759669689556,797711316,6437,15,0.779296875,-0.05841064453125,0.52386474609375
1759669689556,797711316,6437,16,0.77587890625,-0.05523681640625,0.51605224609375
1759669689556,797711316,6437,17,0.77734375,-0.05596923828125,0.52337646484375
1759669689556,797711316,6437,18,0.768798828125,-0.05279541015625,0.52020263671875
1759669689556,797711316,6437,19,0.766357421875,-0.05718994140625,0.51971435546875
1759669689556,797711316,6437,20,0.7685546875,-0.05792236328125,0.52655029296875
1759669689556,797711316,6437,21,0.76708984375,-0.05401611328125,0.52264404296875
1759669689556,797711316,6437,22,0.772705078125,-0.05889892578125,0.53045654296875
1759669689556,797711316,6437,23,0.7685546875,-0.05523681640625,0.53240966796875
1759669689556,797711316,6437,24,0.757080078125,-0.05596923828125,0.51898193359375
1759669689556,797711316,6437,25,0.77294921875,-0.06671142578125,0.52313232421875
1759669689556,797711316,6437,26,0.767578125,-0.05792236328125,0.51019287109375
1759669689556,797711316,6437,27,0.78369140625,-0.05938720703125,0.52044677734375
1759669689556,797711316,6437,28,0.7822265625,-0.05596923828125,0.52655029296875
1759669689556,797711316,6437,29,0.778076171875,-0.04620361328125,0.51165771484375
1759669689556,797711316,6437,30,0.783203125,-0.05865478515625,0.50921630859375
1759669689556,797711316,6437,31,0.78173828125,-0.05694580078125,0.51019287109375
1759669691957,797713889,6438,0,0.77294921875,-0.04791259765625,0.49822998046875
1759669691957,797713889,6438,1,0.762451171875,-0.05010986328125,0.49432373046875
1759669691957,797713889,6438,2,0.771240234375,-0.06793212890625,0.50994873046875
1759669691957,797713889,6438,3,0.773681640625,-0.05841064453125,0.51849365234375
1759669691957,797713889,6438,4,0.7822265625,-0.05596923828125,0.51800537109375
1759669691957,797713889,6438,5,0.775146484375,-0.06109619140625,0.52923583984375
1759669691957,797713889,6438,6,0.77880859375,-0.06231689453125,0.52435302734375
1759669691957,797713889,6438,7,0.785400390625,-0.05938720703125,0.52362060546875
1759669691957,797713889,6438,8,0.777587890625,-0.04864501953125,0.50994873046875
1759669691957,797713889,6438,9,0.777587890625,-0.06011962890625,0.50433349609375
1759669691957,797713889,6438,10,0.784912109375,-0.05889892578125,0.50286865234375
1759669691957,797713889,6438,11,0.77978515625,-0.05328369140625,0.50506591796875
1759669691957,797713889,6438,12,0.76171875,-0.04913330078125,0.49188232421875
1759669691957,797713889,6438,13,0.762939453125,-0.06280517578125,0.50994873046875
1759669691957,797713889,6438,14,0.773193359375,-0.05108642578125,0.52850341796875
1759669691957,797713889,6438,15,0.76904296875,-0.05230712890625,0.51605224609375
1759669691957,797713889,6438,16,0.7763671875,-0.06304931640625,0.53558349609375
1759669691957,797713889,6438,17,0.775146484375,-0.05792236328125,0.51654052734375
1759669691957,797713889,6438,18,0.792724609375,-0.05816650390625,0.53021240234375
1759669691957,797713889,6438,19,0.78076171875,-0.04620361328125,0.51580810546875
1759669691957,797713889,6438,20,0.769775390625,-0.04864501953125,0.50091552734375
1759669691957,797713889,6438,21,0.7822265625,-0.06207275390625,0.50701904296875
1759669691957,797713889,6438,22,0.78125,-0.05572509765625,0.49969482421875
1759669691957,797713889,6438,23,0.77099609375,-0.04718017578125,0.49212646484375
1759669691957,797713889,6438,24,0.764892578125,-0.05523681640625,0.49700927734375
1759669691957,797713889,6438,25,0.77978515625,-0.06134033203125,0.53094482421875
1759669691957,797713889,6438,26,0.779296875,-0.05743408203125,0.52337646484375
1759669691957,797713889,6438,27,0.76318359375,-0.05841064453125,0.52899169921875
1759669691957,797713889,6438,28,0.778076171875,-0.05694580078125,0.52923583984375
1759669691957,797713889,6438,29,0.775390625,-0.05987548828125,0.52996826171875
1759669691957,797713889,6438,30,0.778076171875,-0.05133056640625,0.51849365234375
1759669691957,797713889,6438,31,0.766845703125,-0.05010986328125,0.51068115234375
1759669694508,797716468,6439,0,0.78076171875,-0.05621337890625,0.51312255859375
1759669694508,797716468,6439,1,0.7724609375,-0.05059814453125,0.50994873046875
1759669694508,797716468,6439,2,0.764892578125,-0.04718017578125,0.50799560546875
1759669694508,797716468,6439,3,0.763427734375,-0.05401611328125,0.50457763671875
1759669694508,797716468,6439,4,0.7734375,-0.06402587890625,0.52850341796875
1759669694508,797716468,6439,5,0.77587890625,-0.05645751953125,0.52752685546875
1759669694508,797716468,6439,6,0.774169921875,-0.05181884765625,0.52239990234375
1759669694508,797716468,6439,7,0.7783203125,-0.06109619140625,0.51629638671875
1759669694508,797716468,6439,8,0.7822265625,-0.05792236328125,0.52264404296875
1759669694508,797716468,6439,9,0.7861328125,-0.05303955078125,0.52288818359375
1759669694508,797716468,6439,10,0.773193359375,-0.05181884765625,0.50628662109375
1759669694508,797716468,6439,11,0.779541015625,-0.05548095703125,0.50726318359375
1759669694508,797716468,6439,12,0.775390625,-0.05255126953125,0.50775146484375
1759669694508,797716468,6439,13,0.7607421875,-0.04840087890625,0.49212646484375
1759669694508,797716468,6439,14,0.76953125,-0.06353759765625,0.51776123046875
1759669694508,797716468,6439,15,0.784423828125,-0.05621337890625,0.52264404296875
1759669694508,797716468,6439,16,0.773193359375,-0.05230712890625,0.51507568359375
1759669694508,797716468,6439,17,0.77001953125,-0.05474853515625,0.52484130859375
1759669694508,797716468,6439,18,0.77392578125,-0.05938720703125,0.52484130859375
1759669694508,797716468,6439,19,0.7802734375,-0.06207275390625,0.52386474609375
1759669694508,797716468,6439,20,0.77783203125,-0.05108642578125,0.51068115234375
1759669694508,797716468,6439,21,0.77392578125,-0.05499267578125,0.50872802734375
1759669694508,797716468,6439,22,0.782470703125,-0.04644775390625,0.50238037109375
1759669694508,797716468,6439,23,0.770263671875,-0.05255126953125,0.50042724609375
1759669694508,797716468,6439,24,0.773193359375,-0.05108642578125,0.49749755859375
1759669694508,797716468,6439,25,0.784423828125,-0.06109619140625,0.52288818359375
1759669694508,797716468,6439,26,0.77294921875,-0.05133056640625,0.51361083984375
1759669694508,797716468,6439,27,0.776611328125,-0.05328369140625,0.52630615234375
1759669694508,797716468,6439,28,0.773681640625,-0.06549072265625,0.53240966796875
1759669694508,797716468,6439,29,0.7763671875,-0.05621337890625,0.52362060546875
1759669694508,797716468,6439,30,0.77490234375,-0.04937744140625,0.51824951171875
1759669694508,797716468,6439,31,0.77294921875,-0.05426025390625,0.50457763671875
1759669697207,797719047,6440,0,0.78955078125,-0.05548095703125,0.50384521484375
1759669697207,797719047,6440,1,0.7822265625,-0.04571533203125,0.49285888671875
1759669697207,797719047,6440,2,0.771728515625,-0.04669189453125,0.49066162109375
1759669697207,797719047,6440,3,0.7783203125,-0.06256103515625,0.51214599609375
1759669697207,797719047,6440,4,0.777099609375,-0.05206298828125,0.51483154296875
1759669697207,797719047,6440,5,0.775634765625,-0.04888916015625,0.52239990234375
1759669697207,797719047,6440,6,0.779052734375,-0.05743408203125,0.52117919921875
1759669697207,797719047,6440,7,0.77587890625,-0.05426025390625,0.51654052734375
1759669697207,797719047,6440,8,0.7822265625,-0.05328369140625,0.51287841796875
1759669697207,797719047,6440,9,0.783203125,-0.05499267578125,0.51702880859375
1759669697207,797719047,6440,10,0.7900390625,-0.04864501953125,0.50238037109375
1759669697207,797719047,6440,11,0.780029296875,-0.04864501953125,0.49285888671875
1759669697207,797719047,6440,12,0.77734375,-0.05377197265625,0.50213623046875
1759669697207,797719047,6440,13,0.769775390625,-0.04864501953125,0.50091552734375
1759669697207,797719047,6440,14,0.775390625,-0.05767822265625,0.51141357421875
1759669697207,797719047,6440,15,0.784423828125,-0.05206298828125,0.51849365234375
1759669697207,797719047,6440,16,0.7744140625,-0.05157470703125,0.51214599609375
1759669697207,797719047,6440,17,0.7763671875,-0.05523681640625,0.51727294921875
1759669697207,797719047,6440,18,0.77490234375,-0.05841064453125,0.52532958984375
1759669697207,797719047,6440,19,0.782958984375,-0.05035400390625,0.52191162109375
1759669697207,797719047,6440,20,0.780517578125,-0.04791259765625,0.50164794921875
1759669697207,797719047,6440,21,0.783935546875,-0.05645751953125,0.50555419921875
1759669697207,797719047,6440,22,0.7841796875,-0.05596923828125,0.49896240234375
1759669697207,797719047,6440,23,0.777587890625,-0.04864501953125,0.49627685546875
1759669697207,797719047,6440,24,0.77197265625,-0.04718017578125,0.49114990234375
1759669697207,797719047,6440,25,0.778564453125,-0.06182861328125,0.50921630859375
1759669697207,797719047,6440,26,0.7841796875,-0.05108642578125,0.51678466796875
1759669697207,797719047,6440,27,0.7763671875,-0.05670166015625,0.51629638671875
1759669697207,797719047,6440,28,0.781494140625,-0.05401611328125,0.52191162109375
1759669697207,797719047,6440,29,0.7734375,-0.05377197265625,0.52044677734375
1759669697207,797719047,6440,30,0.779296875,-0.05377197265625,0.52142333984375
1759669697207,797719047,6440,31,0.776611328125,-0.05108642578125,0.51678466796875
1759669699756,797721626,6441,0,0.779541015625,-0.05401611328125,0.50433349609375
1759669699756,797721626,6441,1,0.791259765625,-0.04986572265625,0.49627685546875
1759669699756,797721626,6441,2,0.77392578125,-0.04766845703125,0.49017333984375
1759669699756,797721626,6441,3,0.77783203125,-0.05303955078125,0.50286865234375
1759669699756,797721626,6441,4,0.779541015625,-0.05645751953125,0.51434326171875
1759669699756,797721626,6441,5,0.7802734375,-0.05401611328125,0.51849365234375
