receivedPhoneTimestamp,respeckTimestamp,packetSeqNum,sampleSeqNum,accelX,accelY,accelZ
1760043582435,1175098988,29714,21,0.717529296875,-0.39581298828125,0.47039794921875
1760043582435,1175098988,29714,22,0.7119140625,-0.40142822265625,0.46112060546875
1760043582435,1175098988,29714,23,0.7197265625,-0.40582275390625,0.46209716796875
1760043582435,1175098988,29714,24,0.721923828125,-0.39874267578125,0.46405029296875
1760043582435,1175098988,29714,25,0.7294921875,-0.39483642578125,0.45452880859375
1760043582435,1175098988,29714,26,0.731689453125,-0.38482666015625,0.45404052734375
1760043582435,1175098988,29714,27,0.721435546875,-0.40606689453125,0.45111083984375
1760043582435,1175098988,29714,28,0.73046875,-0.41168212890625,0.45599365234375
1760043582435,1175098988,29714,29,0.725341796875,-0.41656494140625,0.45819091796875
1760043582435,1175098988,29714,30,0.720458984375,-0.40386962890625,0.46112060546875
1760043582435,1175098988,29714,31,0.71533203125,-0.41192626953125,0.46209716796875
1760043584984,1175101513,29715,0,0.723388671875,-0.41510009765625,0.46575927734375
1760043584984,1175101513,29715,1,0.7158203125,-0.41754150390625,0.46795654296875
1760043584984,1175101513,29715,2,0.72021484375,-0.39752197265625,0.46697998046875
1760043584984,1175101513,29715,3,0.72021484375,-0.39898681640625,0.45989990234375
1760043584984,1175101513,29715,4,0.7177734375,-0.40313720703125,0.46673583984375
1760043584984,1175101513,29715,5,0.71728515625,-0.40728759765625,0.45965576171875
1760043584984,1175101513,29715,6,0.728759765625,-0.39361572265625,0.45916748046875
1760043584984,1175101513,29715,7,0.72412109375,-0.38800048828125,0.46234130859375
1760043584984,1175101513,29715,8,0.721435546875,-0.40264892578125,0.45306396484375
1760043584984,1175101513,29715,9,0.72265625,-0.40142822265625,0.45648193359375
1760043584984,1175101513,29715,10,0.724365234375,-0.42266845703125,0.45330810546875
1760043584984,1175101513,29715,11,0.729248046875,-0.39996337890625,0.46160888671875
1760043584984,1175101513,29715,12,0.716796875,-0.41168212890625,0.46112060546875
1760043584984,1175101513,29715,13,0.72265625,-0.42584228515625,0.47332763671875
1760043584984,1175101513,29715,14,0.712890625,-0.40850830078125,0.46771240234375
1760043584984,1175101513,29715,15,0.718505859375,-0.39825439453125,0.46795654296875
1760043584984,1175101513,29715,16,0.72021484375,-0.40386962890625,0.46478271484375
1760043584984,1175101513,29715,17,0.718017578125,-0.40093994140625,0.46038818359375
1760043584984,1175101513,29715,18,0.719970703125,-0.40216064453125,0.46014404296875
1760043584984,1175101513,29715,19,0.720458984375,-0.38922119140625,0.45672607421875
1760043584984,1175101513,29715,20,0.724365234375,-0.39703369140625,0.45477294921875
1760043584984,1175101513,29715,21,0.716796875,-0.41632080078125,0.45599365234375
1760043584984,1175101513,29715,22,0.72802734375,-0.41314697265625,0.45745849609375
1760043584984,1175101513,29715,23,0.72265625,-0.41094970703125,0.45965576171875
1760043584984,1175101513,29715,24,0.728515625,-0.41192626953125,0.46502685546875
1760043584984,1175101513,29715,25,0.7216796875,-0.43463134765625,0.46282958984375
1760043584984,1175101513,29715,26,0.713134765625,-0.39263916015625,0.46746826171875
1760043584984,1175101513,29715,27,0.721923828125,-0.39825439453125,0.47747802734375
1760043584984,1175101513,29715,28,0.71240234375,-0.40264892578125,0.46990966796875
1760043584984,1175101513,29715,29,0.714599609375,-0.39190673828125,0.46112060546875
1760043584984,1175101513,29715,30,0.720458984375,-0.39654541015625,0.45892333984375
1760043584984,1175101513,29715,31,0.72607421875,-0.40484619140625,0.45550537109375
1760043587386,1175104038,29716,0,0.729736328125,-0.41363525390625,0.45574951171875
1760043587386,1175104038,29716,1,0.727294921875,-0.40509033203125,0.46112060546875
1760043587386,1175104038,29716,2,0.71923828125,-0.40655517578125,0.46380615234375
1760043587386,1175104038,29716,3,0.72509765625,-0.41778564453125,0.46600341796875
1760043587386,1175104038,29716,4,0.71435546875,-0.42071533203125,0.46917724609375
1760043587386,1175104038,29716,5,0.71044921875,-0.39776611328125,0.47210693359375
1760043587386,1175104038,29716,6,0.71533203125,-0.39166259765625,0.47503662109375
1760043587386,1175104038,29716,7,0.70947265625,-0.39508056640625,0.46893310546875
1760043587386,1175104038,29716,8,0.708740234375,-0.39971923828125,0.46038818359375
1760043587386,1175104038,29716,9,0.720458984375,-0.40557861328125,0.45599365234375
1760043587386,1175104038,29716,10,0.726806640625,-0.40924072265625,0.46038818359375
1760043587386,1175104038,29716,11,0.7236328125,-0.40850830078125,0.46942138671875
1760043587386,1175104038,29716,12,0.717041015625,-0.40509033203125,0.46502685546875
1760043587386,1175104038,29716,13,0.726806640625,-0.41046142578125,0.47869873046875
1760043587386,1175104038,29716,14,0.713623046875,-0.42877197265625,0.46795654296875
1760043587386,1175104038,29716,15,0.710693359375,-0.38775634765625,0.47772216796875
1760043587386,1175104038,29716,16,0.708251953125,-0.39874267578125,0.47161865234375
1760043587386,1175104038,29716,17,0.71337890625,-0.40191650390625,0.47088623046875
1760043587386,1175104038,29716,18,0.713134765625,-0.39630126953125,0.46234130859375
1760043587386,1175104038,29716,19,0.721435546875,-0.38946533203125,0.46038818359375
1760043587386,1175104038,29716,20,0.721435546875,-0.40924072265625,0.45770263671875
1760043587386,1175104038,29716,21,0.730712890625,-0.40972900390625,0.46038818359375
1760043587386,1175104038,29716,22,0.7236328125,-0.40264892578125,0.46868896484375
1760043587386,1175104038,29716,23,0.713623046875,-0.41705322265625,0.47259521484375
1760043587386,1175104038,29716,24,0.717529296875,-0.40875244140625,0.48089599609375
1760043587386,1175104038,29716,25,0.70703125,-0.41461181640625,0.47576904296875
1760043587386,1175104038,29716,26,0.70947265625,-0.39532470703125,0.48065185546875
1760043587386,1175104038,29716,27,0.714599609375,-0.39947509765625,0.46868896484375
1760043587386,1175104038,29716,28,0.712158203125,-0.39019775390625,0.46746826171875
1760043587386,1175104038,29716,29,0.715576171875,-0.40069580078125,0.46527099609375
1760043587386,1175104038,29716,30,0.720947265625,-0.38580322265625,0.45745849609375
1760043587386,1175104038,29716,31,0.725341796875,-0.40386962890625,0.46014404296875
1760043589937,1175106563,29717,0,0.7294921875,-0.41534423828125,0.46234130859375
1760043589937,1175106563,29717,1,0.72119140625,-0.39703369140625,0.47039794921875
1760043589937,1175106563,29717,2,0.71044921875,-0.40777587890625,0.48065185546875
1760043589937,1175106563,29717,3,0.71240234375,-0.42218017578125,0.48016357421875
1760043589937,1175106563,29717,4,0.708740234375,-0.41412353515625,0.47283935546875
1760043589937,1175106563,29717,5,0.717041015625,-0.39263916015625,0.47943115234375
1760043589937,1175106563,29717,6,0.713134765625,-0.39825439453125,0.47064208984375
1760043589937,1175106563,29717,7,0.717041015625,-0.39044189453125,0.47113037109375
1760043589937,1175106563,29717,8,0.713134765625,-0.40484619140625,0.46429443359375
1760043589937,1175106563,29717,9,0.720703125,-0.38043212890625,0.46453857421875
1760043589937,1175106563,29717,10,0.72509765625,-0.40045166015625,0.45501708984375
1760043589937,1175106563,29717,11,0.71826171875,-0.41241455078125,0.46038818359375
1760043589937,1175106563,29717,12,0.719482421875,-0.40850830078125,0.46942138671875
1760043589937,1175106563,29717,13,0.71337890625,-0.40899658203125,0.46942138671875
1760043589937,1175106563,29717,14,0.723876953125,-0.42242431640625,0.48040771484375
1760043589937,1175106563,29717,15,0.705078125,-0.41436767578125,0.47308349609375
1760043589937,1175106563,29717,16,0.71484375,-0.38970947265625,0.47528076171875
1760043589937,1175106563,29717,17,0.71142578125,-0.40264892578125,0.46771240234375
1760043589937,1175106563,29717,18,0.720703125,-0.39068603515625,0.47015380859375
1760043589937,1175106563,29717,19,0.7119140625,-0.39801025390625,0.46478271484375
1760043589937,1175106563,29717,20,0.725341796875,-0.39019775390625,0.45672607421875
1760043589937,1175106563,29717,21,0.7216796875,-0.40435791015625,0.45062255859375
1760043589937,1175106563,29717,22,0.724853515625,-0.41119384765625,0.45550537109375
1760043589937,1175106563,29717,23,0.726318359375,-0.40704345703125,0.46502685546875
1760043589937,1175106563,29717,24,0.718505859375,-0.40020751953125,0.47088623046875
1760043589937,1175106563,29717,25,0.720947265625,-0.42681884765625,0.47576904296875
1760043589937,1175106563,29717,26,0.710205078125,-0.41534423828125,0.47186279296875
1760043589937,1175106563,29717,27,0.71630859375,-0.39263916015625,0.47381591796875
1760043589937,1175106563,29717,28,0.713623046875,-0.40069580078125,0.47210693359375
1760043589937,1175106563,29717,29,0.717041015625,-0.40167236328125,0.45965576171875
1760043589937,1175106563,29717,30,0.71826171875,-0.39801025390625,0.45989990234375
1760043589937,1175106563,29717,31,0.724609375,-0.38287353515625,0.46112060546875
1760043592485,1175109088,29718,0,0.722412109375,-0.40289306640625,0.45697021484375
1760043592485,1175109088,29718,1,0.721435546875,-0.41021728515625,0.45819091796875
1760043592485,1175109088,29718,2,0.72607421875,-0.41802978515625,0.47064208984375
1760043592485,1175109088,29718,3,0.718505859375,-0.40020751953125,0.47088623046875
1760043592485,1175109088,29718,4,0.71435546875,-0.40826416015625,0.47357177734375
1760043592485,1175109088,29718,5,0.70849609375,-0.42364501953125,0.47210693359375
1760043592485,1175109088,29718,6,0.71533203125,-0.39630126953125,0.46893310546875
1760043592485,1175109088,29718,7,0.71826171875,-0.39678955078125,0.46942138671875
1760043592485,1175109088,29718,8,0.71826171875,-0.39654541015625,0.46453857421875
1760043592485,1175109088,29718,9,0.71875,-0.39654541015625,0.46697998046875
1760043592485,1175109088,29718,10,0.7158203125,-0.40264892578125,0.45257568359375
1760043592485,1175109088,29718,11,0.734619140625,-0.38800048828125,0.45916748046875
1760043592485,1175109088,29718,12,0.721435546875,-0.40020751953125,0.44891357421875
1760043592485,1175109088,29718,13,0.72900390625,-0.40386962890625,0.47430419921875
1760043592485,1175109088,29718,14,0.72119140625,-0.40435791015625,0.47210693359375
1760043592485,1175109088,29718,15,0.722412109375,-0.41143798828125,0.47650146484375
1760043592485,1175109088,29718,16,0.708251953125,-0.41632080078125,0.47918701171875
1760043592485,1175109088,29718,17,0.716552734375,-0.38702392578125,0.47625732421875
1760043592485,1175109088,29718,18,0.71875,-0.39678955078125,0.47064208984375
1760043592485,1175109088,29718,19,0.716796875,-0.39630126953125,0.47161865234375
1760043592485,1175109088,29718,20,0.720458984375,-0.39288330078125,0.46307373046875
1760043592485,1175109088,29718,21,0.72216796875,-0.38848876953125,0.46649169921875
1760043595037,1175111613,29719,6,0.7158203125,-0.42095947265625,0.47991943359375
1760043595037,1175111613,29719,7,0.710693359375,-0.39483642578125,0.47283935546875
1760043595037,1175111613,29719,8,0.716796875,-0.39239501953125,0.47894287109375
1760043595037,1175111613,29719,9,0.71240234375,-0.39581298828125,0.47015380859375
1760043595037,1175111613,29719,10,0.71826171875,-0.39361572265625,0.46868896484375
1760043595037,1175111613,29719,11,0.7109375,-0.40069580078125,0.45867919921875
1760043595037,1175111613,29719,12,0.729736328125,-0.37969970703125,0.46405029296875
1760043595037,1175111613,29719,13,0.719482421875,-0.40460205078125,0.45111083984375
1760043595037,1175111613,29719,14,0.730224609375,-0.40264892578125,0.47137451171875
1760043595037,1175111613,29719,15,0.720703125,-0.40972900390625,0.47113037109375
1760043595037,1175111613,29719,16,0.71923828125,-0.40631103515625,0.47210693359375
1760043595037,1175111613,29719,17,0.716796875,-0.42437744140625,0.47503662109375
1760043595037,1175111613,29719,18,0.712158203125,-0.39288330078125,0.47454833984375
1760043595037,1175111613,29719,19,0.712158203125,-0.39801025390625,0.47772216796875
1760043595037,1175111613,29719,20,0.7138671875,-0.39263916015625,0.47235107421875
1760043595037,1175111613,29719,21,0.718505859375,-0.39825439453125,0.47137451171875
1760043595037,1175111613,29719,22,0.71630859375,-0.39605712890625,0.46990966796875
1760043595037,1175111613,29719,23,0.716064453125,-0.39483642578125,0.45355224609375
1760043595037,1175111613,29719,24,0.724853515625,-0.40313720703125,0.45257568359375
1760043595037,1175111613,29719,25,0.73095703125,-0.40240478515625,0.46331787109375
1760043595037,1175111613,29719,26,0.736328125,-0.40045166015625,0.46795654296875
1760043595037,1175111613,29719,27,0.717529296875,-0.41094970703125,0.47674560546875
1760043595037,1175111613,29719,28,0.718994140625,-0.41998291015625,0.46917724609375
1760043595037,1175111613,29719,29,0.715576171875,-0.39508056640625,0.47235107421875
1760043595037,1175111613,29719,30,0.7177734375,-0.39801025390625,0.48431396484375
1760043595037,1175111613,29719,31,0.71337890625,-0.39776611328125,0.46917724609375
1760043597588,1175114138,29720,0,0.714111328125,-0.40142822265625,0.46624755859375
1760043597588,1175114138,29720,1,0.71435546875,-0.39483642578125,0.46697998046875
1760043597588,1175114138,29720,2,0.725341796875,-0.38311767578125,0.45794677734375
1760043597588,1175114138,29720,3,0.72607421875,-0.39898681640625,0.46038818359375
1760043597588,1175114138,29720,4,0.723876953125,-0.41070556640625,0.45086669921875
1760043597588,1175114138,29720,5,0.733642578125,-0.40264892578125,0.46893310546875
1760043597588,1175114138,29720,6,0.716796875,-0.40777587890625,0.47674560546875
1760043597588,1175114138,29720,7,0.712158203125,-0.41387939453125,0.47503662109375
1760043597588,1175114138,29720,8,0.715087890625,-0.41558837890625,0.47308349609375
1760043597588,1175114138,29720,9,0.710693359375,-0.39215087890625,0.47625732421875
1760043597588,1175114138,29720,10,0.712646484375,-0.39556884765625,0.47674560546875
1760043597588,1175114138,29720,11,0.71484375,-0.39288330078125,0.47430419921875
1760043597588,1175114138,29720,12,0.71630859375,-0.41046142578125,0.46380615234375
1760043597588,1175114138,29720,13,0.718994140625,-0.38458251953125,0.46405029296875
1760043597588,1175114138,29720,14,0.728271484375,-0.39434814453125,0.46185302734375
1760043597588,1175114138,29720,15,0.720947265625,-0.40240478515625,0.45526123046875
1760043597588,1175114138,29720,16,0.724853515625,-0.41168212890625,0.46527099609375
1760043597588,1175114138,29720,17,0.71923828125,-0.40191650390625,0.47308349609375
1760043597588,1175114138,29720,18,0.722412109375,-0.41241455078125,0.48162841796875
1760043597588,1175114138,29720,19,0.707763671875,-0.40533447265625,0.47259521484375
1760043597588,1175114138,29720,20,0.71484375,-0.40142822265625,0.47381591796875
1760043597588,1175114138,29720,21,0.7119140625,-0.38629150390625,0.47479248046875
1760043597588,1175114138,29720,22,0.7099609375,-0.39752197265625,0.47454833984375
1760043597588,1175114138,29720,23,0.712158203125,-0.40484619140625,0.47235107421875
1760043597588,1175114138,29720,24,0.7138671875,-0.39215087890625,0.45599365234375
1760043597588,1175114138,29720,25,0.72314453125,-0.39556884765625,0.45843505859375
1760043597588,1175114138,29720,26,0.718505859375,-0.40191650390625,0.45233154296875
1760043597588,1175114138,29720,27,0.72607421875,-0.39312744140625,0.46868896484375
1760043597588,1175114138,29720,28,0.72314453125,-0.42242431640625,0.47186279296875
1760043597588,1175114138,29720,29,0.72705078125,-0.40850830078125,0.47259521484375
1760043597588,1175114138,29720,30,0.7158203125,-0.41925048828125,0.47430419921875
1760043597588,1175114138,29720,31,0.708740234375,-0.39678955078125,0.47601318359375
1760043600135,1175116657,29721,0,0.712890625,-0.39630126953125,0.47601318359375
1760043600135,1175116657,29721,1,0.71337890625,-0.39727783203125,0.46942138671875
1760043600135,1175116657,29721,2,0.715576171875,-0.40216064453125,0.46624755859375
1760043600135,1175116657,29721,3,0.71533203125,-0.39288330078125,0.46673583984375
1760043600135,1175116657,29721,4,0.71630859375,-0.40679931640625,0.45794677734375
1760043600135,1175116657,29721,5,0.7236328125,-0.40167236328125,0.45526123046875
1760043600135,1175116657,29721,6,0.725830078125,-0.39752197265625,0.46844482421875
1760043600135,1175116657,29721,7,0.718017578125,-0.41461181640625,0.47357177734375
1760043600135,1175116657,29721,8,0.716796875,-0.40924072265625,0.46722412109375
1760043600135,1175116657,29721,9,0.71728515625,-0.42193603515625,0.46697998046875
1760043600135,1175116657,29721,10,0.711181640625,-0.39923095703125,0.47283935546875
1760043600135,1175116657,29721,11,0.7158203125,-0.39019775390625,0.47454833984375
1760043600135,1175116657,29721,12,0.71435546875,-0.40313720703125,0.46600341796875
1760043600135,1175116657,29721,13,0.71875,-0.39630126953125,0.46502685546875
1760043600135,1175116657,29721,14,0.7177734375,-0.39215087890625,0.45843505859375
1760043600135,1175116657,29721,15,0.7294921875,-0.39312744140625,0.46282958984375
1760043600135,1175116657,29721,16,0.718505859375,-0.39996337890625,0.45086669921875
1760043600135,1175116657,29721,17,0.726806640625,-0.40753173828125,0.46209716796875
1760043600135,1175116657,29721,18,0.731201171875,-0.40802001953125,0.47332763671875
1760043600135,1175116657,29721,19,0.715576171875,-0.39825439453125,0.47528076171875
1760043600135,1175116657,29721,20,0.712158203125,-0.43170166015625,0.47503662109375
1760043600135,1175116657,29721,21,0.71728515625,-0.39312744140625,0.47698974609375
1760043600135,1175116657,29721,22,0.720703125,-0.39288330078125,0.47332763671875
1760043600135,1175116657,29721,23,0.71630859375,-0.39898681640625,0.47161865234375
1760043600135,1175116657,29721,24,0.714599609375,-0.39483642578125,0.47161865234375
1760043600135,1175116657,29721,25,0.7138671875,-0.38287353515625,0.46282958984375
1760043600135,1175116657,29721,26,0.723388671875,-0.39044189453125,0.46209716796875
1760043600135,1175116657,29721,27,0.7236328125,-0.39849853515625,0.45916748046875
1760043600135,1175116657,29721,28,0.731689453125,-0.41632080078125,0.46282958984375
1760043600135,1175116657,29721,29,0.71923828125,-0.39654541015625,0.47210693359375
1760043600135,1175116657,29721,30,0.712158203125,-0.40484619140625,0.47650146484375
1760043600135,1175116657,29721,31,0.71875,-0.41925048828125,0.48431396484375
1760043602687,1175119182,29722,0,0.711181640625,-0.40045166015625,0.47235107421875
1760043602687,1175119182,29722,1,0.719482421875,-0.39239501953125,0.47552490234375
1760043602687,1175119182,29722,2,0.716064453125,-0.39215087890625,0.47381591796875
1760043602687,1175119182,29722,3,0.71826171875,-0.39117431640625,0.47479248046875
1760043602687,1175119182,29722,4,0.711181640625,-0.39923095703125,0.45916748046875
1760043602687,1175119182,29722,5,0.728759765625,-0.38165283203125,0.46990966796875
1760043602687,1175119182,29722,6,0.71728515625,-0.40118408203125,0.45672607421875
1760043602687,1175119182,29722,7,0.718505859375,-0.40899658203125,0.47332763671875
1760043602687,1175119182,29722,8,0.71630859375,-0.40899658203125,0.47454833984375
1760043602687,1175119182,29722,9,0.714111328125,-0.40362548828125,0.47796630859375
1760043602687,1175119182,29722,10,0.715576171875,-0.41290283203125,0.48358154296875
1760043602687,1175119182,29722,11,0.711181640625,-0.40704345703125,0.47723388671875
1760043602687,1175119182,29722,12,0.71142578125,-0.40216064453125,0.47259521484375
1760043602687,1175119182,29722,13,0.7216796875,-0.39312744140625,0.47357177734375
1760043602687,1175119182,29722,14,0.716064453125,-0.39532470703125,0.46258544921875
1760043602687,1175119182,29722,15,0.71484375,-0.39703369140625,0.46942138671875
1760043602687,1175119182,29722,16,0.719970703125,-0.38165283203125,0.46063232421875
1760043602687,1175119182,29722,17,0.7177734375,-0.39923095703125,0.45867919921875
1760043602687,1175119182,29722,18,0.718505859375,-0.40972900390625,0.46453857421875
1760043602687,1175119182,29722,19,0.719482421875,-0.39752197265625,0.47528076171875
1760043602687,1175119182,29722,20,0.71337890625,-0.41265869140625,0.47674560546875
1760043602687,1175119182,29722,21,0.712158203125,-0.40045166015625,0.47601318359375
1760043602687,1175119182,29722,22,0.71630859375,-0.41436767578125,0.47967529296875
1760043602687,1175119182,29722,23,0.70849609375,-0.40142822265625,0.47869873046875
1760043602687,1175119182,29722,24,0.718505859375,-0.39630126953125,0.47454833984375
1760043602687,1175119182,29722,25,0.715576171875,-0.39703369140625,0.46795654296875
1760043602687,1175119182,29722,26,0.719482421875,-0.39923095703125,0.47064208984375
1760043602687,1175119182,29722,27,0.718994140625,-0.38580322265625,0.46087646484375
1760043602687,1175119182,29722,28,0.72216796875,-0.39141845703125,0.46429443359375
1760043602687,1175119182,29722,29,0.72021484375,-0.40191650390625,0.45867919921875
1760043602687,1175119182,29722,30,0.71923828125,-0.40679931640625,0.46624755859375
1760043602687,1175119182,29722,31,0.718017578125,-0.40924072265625,0.47503662109375
1760043605237,1175121707,29723,0,0.709228515625,-0.40533447265625,0.47723388671875
1760043605237,1175121707,29723,1,0.715087890625,-0.40655517578125,0.47576904296875
1760043605237,1175121707,29723,2,0.717529296875,-0.41851806640625,0.47894287109375
1760043605237,1175121707,29723,3,0.715576171875,-0.39263916015625,0.46453857421875
1760043605237,1175121707,29723,4,0.718505859375,-0.39971923828125,0.47332763671875
1760043605237,1175121707,29723,5,0.715576171875,-0.40191650390625,0.46624755859375
1760043605237,1175121707,29723,6,0.7177734375,-0.39141845703125,0.46551513671875
1760043605237,1175121707,29723,7,0.718505859375,-0.39923095703125,0.46478271484375
1760043605237,1175121707,29723,8,0.728271484375,-0.38677978515625,0.46160888671875
1760043605237,1175121707,29723,9,0.72021484375,-0.40045166015625,0.45355224609375
1760043605237,1175121707,29723,10,0.719482421875,-0.40875244140625,0.46356201171875
1760043605237,1175121707,29723,11,0.72314453125,-0.40972900390625,0.46649169921875
1760043605237,1175121707,29723,12,0.7177734375,-0.40435791015625,0.47894287109375
1760043605237,1175121707,29723,13,0.721923828125,-0.42755126953125,0.47479248046875
1760043605237,1175121707,29723,14,0.709716796875,-0.40167236328125,0.47259521484375
1760043605237,1175121707,29723,15,0.7119140625,-0.39263916015625,0.47503662109375
1760043605237,1175121707,29723,16,0.718505859375,-0.39971923828125,0.47113037109375
1760043605237,1175121707,29723,17,0.723388671875,-0.39385986328125,0.46380615234375
1760043605237,1175121707,29723,18,0.716796875,-0.39556884765625,0.46575927734375
1760043605237,1175121707,29723,19,0.7197265625,-0.39019775390625,0.45965576171875
1760043605237,1175121707,29723,20,0.725341796875,-0.39678955078125,0.45989990234375
1760043605237,1175121707,29723,21,0.71240234375,-0.40802001953125,0.45745849609375
1760043605237,1175121707,29723,22,0.72119140625,-0.39801025390625,0.47235107421875
1760043605237,1175121707,29723,23,0.720458984375,-0.40411376953125,0.47552490234375
1760043605237,1175121707,29723,24,0.714599609375,-0.40631103515625,0.47576904296875
1760043605237,1175121707,29723,25,0.716796875,-0.40826416015625,0.47576904296875
1760043605237,1175121707,29723,26,0.712646484375,-0.40216064453125,0.47650146484375
1760043605237,1175121707,29723,27,0.71875,-0.39215087890625,0.47528076171875
1760043605237,1175121707,29723,28,0.715087890625,-0.38922119140625,0.47528076171875
1760043605237,1175121707,29723,29,0.715576171875,-0.40484619140625,0.46527099609375
1760043605237,1175121707,29723,30,0.71826171875,-0.39288330078125,0.46649169921875
1760043605237,1175121707,29723,31,0.721923828125,-0.38824462890625,0.46380615234375
1760043607636,1175124232,29724,0,0.717529296875,-0.39752197265625,0.46722412109375
1760043607636,1175124232,29724,1,0.7177734375,-0.39801025390625,0.45916748046875
1760043607636,1175124232,29724,2,0.718505859375,-0.40362548828125,0.46917724609375
1760043607636,1175124232,29724,3,0.719482421875,-0.40631103515625,0.47869873046875
1760043607636,1175124232,29724,4,0.71826171875,-0.39654541015625,0.47943115234375
1760043607636,1175124232,29724,5,0.71435546875,-0.42291259765625,0.46942138671875
1760043607636,1175124232,29724,6,0.7119140625,-0.39337158203125,0.47528076171875
1760043607636,1175124232,29724,7,0.714111328125,-0.39093017578125,0.47430419921875
1760043607636,1175124232,29724,8,0.71533203125,-0.39727783203125,0.47845458984375
1760043607636,1175124232,29724,9,0.71533203125,-0.39874267578125,0.46990966796875
1760043607636,1175124232,29724,10,0.716796875,-0.39044189453125,0.46771240234375
1760043607636,1175124232,29724,11,0.719482421875,-0.38409423828125,0.46282958984375
1760043607636,1175124232,29724,12,0.723388671875,-0.38922119140625,0.45892333984375
1760043607636,1175124232,29724,13,0.722412109375,-0.40924072265625,0.45452880859375
1760043607636,1175124232,29724,14,0.730712890625,-0.40582275390625,0.46966552734375
1760043607636,1175124232,29724,15,0.7265625,-0.39703369140625,0.47650146484375
1760043607636,1175124232,29724,16,0.710205078125,-0.40655517578125,0.48016357421875
1760043607636,1175124232,29724,17,0.7099609375,-0.41607666015625,0.47967529296875
1760043607636,1175124232,29724,18,0.7099609375,-0.39361572265625,0.47772216796875
1760043607636,1175124232,29724,19,0.71337890625,-0.39337158203125,0.48016357421875
1760043607636,1175124232,29724,20,0.71484375,-0.38995361328125,0.47357177734375
1760043607636,1175124232,29724,21,0.716552734375,-0.39971923828125,0.46722412109375
1760043607636,1175124232,29724,22,0.719970703125,-0.38775634765625,0.46478271484375
1760043607636,1175124232,29724,23,0.722900390625,-0.38214111328125,0.46258544921875
1760043607636,1175124232,29724,24,0.7255859375,-0.40216064453125,0.46795654296875
1760043607636,1175124232,29724,25,0.713623046875,-0.40069580078125,0.45916748046875
1760043607636,1175124232,29724,26,0.71875,-0.40045166015625,0.46990966796875
1760043607636,1175124232,29724,27,0.71728515625,-0.40167236328125,0.48065185546875
1760043607636,1175124232,29724,28,0.712890625,-0.41094970703125,0.46844482421875
1760043607636,1175124232,29724,29,0.7099609375,-0.41192626953125,0.47772216796875
1760043607636,1175124232,29724,30,0.71875,-0.39434814453125,0.47503662109375
1760043607636,1175124232,29724,31,0.718505859375,-0.38995361328125,0.47210693359375
1760043610185,1175126757,29725,0,0.718017578125,-0.39752197265625,0.47625732421875
1760043610185,1175126757,29725,1,0.7177734375,-0.39825439453125,0.46697998046875
1760043610185,1175126757,29725,2,0.71826171875,-0.39288330078125,0.46478271484375
1760043610185,1175126757,29725,3,0.719482421875,-0.38751220703125,0.46185302734375
1760043610185,1175126757,29725,4,0.714599609375,-0.39361572265625,0.45965576171875
1760043610185,1175126757,29725,5,0.72412109375,-0.40289306640625,0.47650146484375
1760043610185,1175126757,29725,6,0.72412109375,-0.40631103515625,0.47430419921875
1760043610185,1175126757,29725,7,0.71484375,-0.39434814453125,0.47894287109375
1760043610185,1175126757,29725,8,0.71484375,-0.40997314453125,0.47894287109375
1760043610185,1175126757,29725,9,0.71240234375,-0.40533447265625,0.47747802734375
1760043610185,1175126757,29725,10,0.71484375,-0.39093017578125,0.47332763671875
1760043610185,1175126757,29725,11,0.712890625,-0.39093017578125,0.48284912109375
1760043610185,1175126757,29725,12,0.716064453125,-0.38970947265625,0.46942138671875
1760043610185,1175126757,29725,13,0.720458984375,-0.40093994140625,0.47430419921875
1760043610185,1175126757,29725,14,0.722900390625,-0.39630126953125,0.47283935546875
1760043610185,1175126757,29725,15,0.72265625,-0.38043212890625,0.46258544921875
1760043610185,1175126757,29725,16,0.72021484375,-0.38458251953125,0.46771240234375
1760043610185,1175126757,29725,17,0.721435546875,-0.39556884765625,0.47161865234375
1760043610185,1175126757,29725,18,0.724853515625,-0.39703369140625,0.46722412109375
1760043610185,1175126757,29725,19,0.717041015625,-0.39996337890625,0.47235107421875
1760043610185,1175126757,29725,20,0.7275390625,-0.40802001953125,0.47821044921875
1760043610185,1175126757,29725,21,0.714111328125,-0.38604736328125,0.48089599609375
1760043610185,1175126757,29725,22,0.715576171875,-0.38873291015625,0.48016357421875
1760043610185,1175126757,29725,23,0.71435546875,-0.38629150390625,0.47723388671875
1760043610185,1175126757,29725,24,0.716552734375,-0.39605712890625,0.48138427734375
1760043610185,1175126757,29725,25,0.711181640625,-0.38873291015625,0.47113037109375
1760043610185,1175126757,29725,26,0.71923828125,-0.38214111328125,0.46258544921875
1760043610185,1175126757,29725,27,0.717041015625,-0.39630126953125,0.46209716796875
1760043610185,1175126757,29725,28,0.729736328125,-0.38946533203125,0.46746826171875
1760043610185,1175126757,29725,29,0.7294921875,-0.40972900390625,0.47674560546875
1760043610185,1175126757,29725,30,0.728271484375,-0.40118408203125,0.47552490234375
1760043610185,1175126757,29725,31,0.716064453125,-0.40167236328125,0.47674560546875
1760043612736,1175129282,29726,0,0.712158203125,-0.39117431640625,0.48236083984375
1760043612736,1175129282,29726,1,0.71826171875,-0.38995361328125,0.47430419921875
1760043612736,1175129282,29726,2,0.714111328125,-0.39019775390625,0.47430419921875
1760043612736,1175129282,29726,3,0.716064453125,-0.38946533203125,0.47161865234375
1760043612736,1175129282,29726,4,0.7158203125,-0.37677001953125,0.47137451171875
1760043612736,1175129282,29726,5,0.72119140625,-0.40484619140625,0.45672607421875
1760043612736,1175129282,29726,6,0.731689453125,-0.40045166015625,0.47015380859375
1760043612736,1175129282,29726,7,0.723876953125,-0.40264892578125,0.47406005859375
1760043612736,1175129282,29726,8,0.713623046875,-0.40582275390625,0.48138427734375
1760043612736,1175129282,29726,9,0.717529296875,-0.40972900390625,0.48162841796875
1760043612736,1175129282,29726,10,0.707763671875,-0.40826416015625,0.47894287109375
1760043612736,1175129282,29726,11,0.714599609375,-0.38604736328125,0.47430419921875
1760043612736,1175129282,29726,12,0.714599609375,-0.39630126953125,0.47796630859375
1760043612736,1175129282,29726,13,0.71923828125,-0.39581298828125,0.46868896484375
1760043612736,1175129282,29726,14,0.72119140625,-0.39434814453125,0.46917724609375
1760043612736,1175129282,29726,15,0.72216796875,-0.38995361328125,0.46942138671875
1760043612736,1175129282,29726,16,0.719482421875,-0.37994384765625,0.46429443359375
1760043612736,1175129282,29726,17,0.716796875,-0.39654541015625,0.46209716796875
1760043612736,1175129282,29726,18,0.718017578125,-0.40753173828125,0.46185302734375
1760043612736,1175129282,29726,19,0.728271484375,-0.40069580078125,0.47406005859375
1760043612736,1175129282,29726,20,0.715576171875,-0.41314697265625,0.47845458984375
1760043612736,1175129282,29726,21,0.72216796875,-0.40167236328125,0.48016357421875
1760043612736,1175129282,29726,22,0.7099609375,-0.40728759765625,0.47747802734375
1760043612736,1175129282,29726,23,0.707275390625,-0.39434814453125,0.48016357421875
