receivedPhoneTimestamp,respeckTimestamp,packetSeqNum,sampleSeqNum,accelX,accelY,accelZ
1759999931026,1123643938,11712,31,0.061767578125,-1.00323486328125,-0.08013916015625
1759999933545,1123646457,11713,0,0.049560546875,-0.99224853515625,-0.10504150390625
1759999933545,1123646457,11713,1,0.030517578125,-0.94146728515625,-0.12506103515625
1759999933545,1123646457,11713,2,0.068359375,-1.00152587890625,-0.10821533203125
1759999933545,1123646457,11713,3,0.04638671875,-1.05621337890625,-0.07232666015625
1759999933545,1123646457,11713,4,0.04833984375,-0.96319580078125,-0.12139892578125
1759999933545,1123646457,11713,5,0.042236328125,-0.95098876953125,-0.11846923828125
1759999933545,1123646457,11713,6,0.0673828125,-1.00836181640625,-0.09503173828125
1759999933545,1123646457,11713,7,0.07275390625,-1.03961181640625,-0.06353759765625
1759999933545,1123646457,11713,8,0.058349609375,-0.95855712890625,-0.10455322265625
1759999933545,1123646457,11713,9,0.044677734375,-0.99249267578125,-0.12213134765625
1759999933545,1123646457,11713,10,0.056396484375,-0.97003173828125,-0.10748291015625
1759999933545,1123646457,11713,11,0.085205078125,-1.01129150390625,-0.09259033203125
1759999933545,1123646457,11713,12,0.04443359375,-1.02276611328125,-0.05035400390625
1759999933545,1123646457,11713,13,0.0576171875,-0.98223876953125,-0.10455322265625
1759999933545,1123646457,11713,14,0.073486328125,-0.97784423828125,-0.10040283203125
1759999933545,1123646457,11713,15,0.042724609375,-0.99029541015625,-0.06231689453125
1759999933545,1123646457,11713,16,0.07763671875,-1.00421142578125,-0.08990478515625
1759999933545,1123646457,11713,17,0.07373046875,-0.99761962890625,-0.04278564453125
1759999933545,1123646457,11713,18,0.038818359375,-1.00665283203125,-0.03594970703125
1759999933545,1123646457,11713,19,0.063232421875,-0.99029541015625,-0.08428955078125
1759999933545,1123646457,11713,20,0.052001953125,-0.98101806640625,-0.08526611328125
1759999933545,1123646457,11713,21,0.066650390625,-0.98834228515625,-0.05816650390625
1759999933545,1123646457,11713,22,0.06298828125,-1.00982666015625,-0.04107666015625
1759999933545,1123646457,11713,23,0.070068359375,-1.00347900390625,-0.02862548828125
1759999933545,1123646457,11713,24,0.044189453125,-0.99444580078125,-0.06378173828125
1759999933545,1123646457,11713,25,0.069091796875,-0.97906494140625,-0.08282470703125
1759999933545,1123646457,11713,26,0.07373046875,-0.98809814453125,-0.05718994140625
1759999933545,1123646457,11713,27,0.08203125,-1.00909423828125,-0.03155517578125
1759999933545,1123646457,11713,28,0.044921875,-1.00225830078125,-0.03057861328125
1759999933545,1123646457,11713,29,0.06982421875,-0.99151611328125,-0.06622314453125
1759999933545,1123646457,11713,30,0.068115234375,-0.98394775390625,-0.08477783203125
1759999933545,1123646457,11713,31,0.078857421875,-0.98785400390625,-0.04351806640625
1759999936070,1123648976,11714,0,0.0673828125,-1.01812744140625,-0.03887939453125
1759999936070,1123648976,11714,1,0.048583984375,-0.98785400390625,-0.07769775390625
1759999936070,1123648976,11714,2,0.06982421875,-0.97174072265625,-0.06988525390625
1759999936070,1123648976,11714,3,0.094482421875,-1.01031494140625,-0.02960205078125
1759999936070,1123648976,11714,4,0.047607421875,-0.99493408203125,-0.06573486328125
1759999936070,1123648976,11714,5,0.072998046875,-0.99005126953125,-0.08941650390625
1759999936070,1123648976,11714,6,0.051513671875,-0.99102783203125,-0.05694580078125
1759999936070,1123648976,11714,7,0.094970703125,-0.99664306640625,-0.03985595703125
1759999936070,1123648976,11714,8,0.040771484375,-0.99639892578125,-0.06036376953125
1759999936070,1123648976,11714,9,0.078857421875,-0.97686767578125,-0.08843994140625
1759999936070,1123648976,11714,10,0.068359375,-1.00128173828125,-0.03375244140625
1759999936070,1123648976,11714,11,0.055908203125,-1.01324462890625,-0.04913330078125
1759999936070,1123648976,11714,12,0.0673828125,-0.97369384765625,-0.07794189453125
1759999936070,1123648976,11714,13,0.057373046875,-0.99053955078125,-0.07452392578125
1759999936070,1123648976,11714,14,0.073974609375,-0.98614501953125,-0.04571533203125
1759999936070,1123648976,11714,15,0.075439453125,-1.01788330078125,-0.02740478515625
1759999936070,1123648976,11714,16,0.044677734375,-0.99224853515625,-0.05084228515625
1759999936070,1123648976,11714,17,0.062255859375,-0.98980712890625,-0.07354736328125
1759999936070,1123648976,11714,18,0.064208984375,-0.98492431640625,-0.09405517578125
1759999936070,1123648976,11714,19,0.0634765625,-0.98272705078125,-0.04742431640625
1759999936070,1123648976,11714,20,0.07470703125,-0.99932861328125,-0.06353759765625
1759999936070,1123648976,11714,21,0.066162109375,-1.00933837890625,-0.01666259765625
1759999936070,1123648976,11714,22,0.063720703125,-0.99737548828125,0.00653076171875
1759999936070,1123648976,11714,23,0.05810546875,-0.99542236328125,-0.03009033203125
1759999936070,1123648976,11714,24,0.054443359375,-0.98175048828125,-0.06134033203125
1759999936070,1123648976,11714,25,0.062255859375,-0.98468017578125,-0.04400634765625
1759999936070,1123648976,11714,26,0.064453125,-1.00054931640625,-0.02178955078125
1759999936070,1123648976,11714,27,0.06201171875,-1.00494384765625,-0.01446533203125
1759999936070,1123648976,11714,28,0.0537109375,-0.98760986328125,-0.05181884765625
1759999936070,1123648976,11714,29,0.062744140625,-0.98590087890625,-0.06207275390625
1759999936070,1123648976,11714,30,0.061279296875,-0.98663330078125,-0.03546142578125
1759999936070,1123648976,11714,31,0.08544921875,-1.00885009765625,-0.03082275390625
1759999938584,1123651495,11715,0,0.06787109375,-0.99273681640625,-0.00738525390625
1759999938584,1123651495,11715,1,0.05615234375,-0.99835205078125,-0.00885009765625
1759999938584,1123651495,11715,2,0.056396484375,-0.99639892578125,-0.04010009765625
1759999938584,1123651495,11715,3,0.060791015625,-0.99005126953125,-0.04376220703125
1759999938584,1123651495,11715,4,0.05810546875,-0.99688720703125,-0.06134033203125
1759999938584,1123651495,11715,5,0.074951171875,-0.98760986328125,-0.07501220703125
1759999938584,1123651495,11715,6,0.064453125,-0.98858642578125,-0.06280517578125
1759999938584,1123651495,11715,7,0.061767578125,-0.99127197265625,-0.05377197265625
1759999938584,1123651495,11715,8,0.06201171875,-1.00152587890625,-0.05865478515625
1759999938584,1123651495,11715,9,0.07177734375,-0.98883056640625,-0.02374267578125
1759999938584,1123651495,11715,10,0.075439453125,-1.00836181640625,-0.00421142578125
1759999938584,1123651495,11715,11,0.052490234375,-0.99224853515625,-0.03448486328125
1759999938584,1123651495,11715,12,0.064453125,-0.98834228515625,-0.06011962890625
1759999938584,1123651495,11715,13,0.064208984375,-0.98736572265625,-0.05963134765625
1759999938584,1123651495,11715,14,0.068359375,-0.98443603515625,-0.02276611328125
1759999938584,1123651495,11715,15,0.0478515625,-0.99981689453125,-0.01129150390625
1759999938584,1123651495,11715,16,0.051513671875,-1.00250244140625,-0.02276611328125
1759999938584,1123651495,11715,17,0.072265625,-0.98126220703125,-0.06793212890625
1759999938584,1123651495,11715,18,0.072021484375,-0.98980712890625,-0.06817626953125
1759999938584,1123651495,11715,19,0.102294921875,-0.97882080078125,-0.05206298828125
1759999938584,1123651495,11715,20,0.0439453125,-1.01593017578125,-0.01129150390625
1759999938584,1123651495,11715,21,0.074462890625,-1.00250244140625,-0.03936767578125
1759999938584,1123651495,11715,22,0.0615234375,-0.99200439453125,-0.06378173828125
1759999938584,1123651495,11715,23,0.0751953125,-0.97711181640625,-0.07330322265625
1759999938584,1123651495,11715,24,0.0732421875,-0.98663330078125,-0.04034423828125
1759999938584,1123651495,11715,25,0.0673828125,-1.01251220703125,-0.02203369140625
1759999938584,1123651495,11715,26,0.051025390625,-0.97833251953125,-0.06304931640625
1759999938584,1123651495,11715,27,0.056884765625,-0.99224853515625,-0.05426025390625
1759999938584,1123651495,11715,28,0.0810546875,-0.99200439453125,-0.03839111328125
1759999938584,1123651495,11715,29,0.056640625,-1.00299072265625,-0.05450439453125
1759999938584,1123651495,11715,30,0.067138671875,-0.98907470703125,-0.07427978515625
1759999938584,1123651495,11715,31,0.0576171875,-0.99713134765625,-0.06768798828125
1759999941113,1123654014,11716,0,0.079345703125,-0.98443603515625,-0.06158447265625
1759999941113,1123654014,11716,1,0.08447265625,-0.99908447265625,-0.03009033203125
1759999941113,1123654014,11716,2,0.0673828125,-1.01007080078125,-0.02813720703125
1759999941113,1123654014,11716,3,0.061279296875,-0.98956298828125,-0.06817626953125
1759999941113,1123654014,11716,4,0.06640625,-0.98663330078125,-0.08795166015625
1759999941113,1123654014,11716,5,0.07861328125,-0.98883056640625,-0.07305908203125
1759999941113,1123654014,11716,6,0.085205078125,-0.99346923828125,-0.04644775390625
1759999941113,1123654014,11716,7,0.06591796875,-1.00152587890625,-0.02789306640625
1759999941113,1123654014,11716,8,0.063232421875,-0.99957275390625,-0.06329345703125
1759999941113,1123654014,11716,9,0.06787109375,-0.98565673828125,-0.09918212890625
1759999941113,1123654014,11716,10,0.070556640625,-0.98419189453125,-0.09234619140625
1759999941113,1123654014,11716,11,0.0927734375,-0.98809814453125,-0.06231689453125
1759999941113,1123654014,11716,12,0.049560546875,-1.00762939453125,-0.04522705078125
1759999941113,1123654014,11716,13,0.0712890625,-0.98565673828125,-0.08111572265625
1759999941113,1123654014,11716,14,0.07177734375,-0.98760986328125,-0.09429931640625
1759999941113,1123654014,11716,15,0.0771484375,-0.98468017578125,-0.06988525390625
1759999941113,1123654014,11716,16,0.07861328125,-1.01959228515625,-0.04058837890625
1759999941113,1123654014,11716,17,0.061279296875,-0.97906494140625,-0.08355712890625
1759999941113,1123654014,11716,18,0.068359375,-0.98712158203125,-0.09552001953125
1759999941113,1123654014,11716,19,0.072998046875,-0.99151611328125,-0.07354736328125
1759999941113,1123654014,11716,20,0.07763671875,-0.99835205078125,-0.05328369140625
1759999941113,1123654014,11716,21,0.068603515625,-0.99346923828125,-0.03106689453125
1759999941113,1123654014,11716,22,0.076904296875,-1.00640869140625,-0.02154541015625
1759999941113,1123654014,11716,23,0.059814453125,-0.98663330078125,-0.06134033203125
1759999941113,1123654014,11716,24,0.068359375,-0.98272705078125,-0.09356689453125
1759999941113,1123654014,11716,25,0.07080078125,-0.99273681640625,-0.05621337890625
1759999941113,1123654014,11716,26,0.08154296875,-0.99932861328125,-0.03936767578125
1759999941113,1123654014,11716,27,0.066162109375,-0.99542236328125,-0.02862548828125
1759999941113,1123654014,11716,28,0.067626953125,-0.99005126953125,0.01116943359375
1759999941113,1123654014,11716,29,0.065185546875,-1.00054931640625,-0.04425048828125
1759999941113,1123654014,11716,30,0.0625,-0.99127197265625,-0.08404541015625
1759999941113,1123654014,11716,31,0.07421875,-0.98590087890625,-0.06817626953125
1759999943625,1123656533,11717,0,0.08203125,-1.00250244140625,-0.02911376953125
1759999943625,1123656533,11717,1,0.062744140625,-0.99591064453125,-0.03131103515625
1759999943625,1123656533,11717,2,0.072998046875,-0.98785400390625,0.01385498046875
1759999943625,1123656533,11717,3,0.056396484375,-0.98907470703125,0.01361083984375
1759999943625,1123656533,11717,4,0.061767578125,-0.99517822265625,-0.02105712890625
1759999943625,1123656533,11717,5,0.046630859375,-0.99713134765625,-0.03741455078125
1759999943625,1123656533,11717,6,0.06884765625,-0.98663330078125,-0.05499267578125
1759999943625,1123656533,11717,7,0.068359375,-0.99395751953125,-0.03179931640625
1759999943625,1123656533,11717,8,0.06201171875,-0.99493408203125,-0.00836181640625
1759999943625,1123656533,11717,9,0.0732421875,-0.98614501953125,0.00408935546875
1759999943625,1123656533,11717,10,0.044921875,-0.99395751953125,-0.03033447265625
1759999943625,1123656533,11717,11,0.0615234375,-0.99761962890625,-0.03961181640625
1759999943625,1123656533,11717,12,0.050048828125,-0.99468994140625,-0.04083251953125
1759999943625,1123656533,11717,13,0.07080078125,-0.99542236328125,-0.04888916015625
1759999943625,1123656533,11717,14,0.064697265625,-0.99127197265625,-0.04058837890625
1759999943625,1123656533,11717,15,0.0849609375,-0.99517822265625,-0.01422119140625
1759999943625,1123656533,11717,16,0.037841796875,-0.99346923828125,-0.03961181640625
1759999943625,1123656533,11717,17,0.07275390625,-0.99395751953125,-0.08160400390625
1759999943625,1123656533,11717,18,0.059814453125,-0.99029541015625,-0.04522705078125
1759999943625,1123656533,11717,19,0.07373046875,-0.99761962890625,-0.02593994140625
1759999943625,1123656533,11717,20,0.05322265625,-0.99200439453125,-0.05059814453125
1759999943625,1123656533,11717,21,0.05712890625,-0.98663330078125,-0.06719970703125
1759999943625,1123656533,11717,22,0.06298828125,-0.99591064453125,-0.03399658203125
1759999943625,1123656533,11717,23,0.08056640625,-1.00030517578125,-0.01251220703125
1759999943625,1123656533,11717,24,0.044677734375,-0.99420166015625,-0.02325439453125
1759999943625,1123656533,11717,25,0.05615234375,-0.99420166015625,-0.06402587890625
1759999943625,1123656533,11717,26,0.076416015625,-0.99591064453125,-0.03570556640625
1759999943625,1123656533,11717,27,0.084228515625,-0.99371337890625,-0.01763916015625
1759999943625,1123656533,11717,28,0.0341796875,-1.00445556640625,-0.02496337890625
1759999943625,1123656533,11717,29,0.0458984375,-0.98565673828125,-0.05474853515625
1759999943625,1123656533,11717,30,0.071533203125,-0.99615478515625,-0.03375244140625
1759999943625,1123656533,11717,31,0.08837890625,-0.99444580078125,-0.03228759765625
1759999946142,1123659052,11718,0,0.0439453125,-0.98956298828125,-0.02838134765625
1759999946142,1123659052,11718,1,0.0576171875,-0.99566650390625,-0.06353759765625
1759999946142,1123659052,11718,2,0.052490234375,-0.99249267578125,-0.06549072265625
1759999946142,1123659052,11718,3,0.073486328125,-0.98345947265625,-0.06524658203125
1759999946142,1123659052,11718,4,0.061279296875,-1.01373291015625,-0.02911376953125
1759999946142,1123659052,11718,5,0.045654296875,-0.99151611328125,-0.05010986328125
1759999946142,1123659052,11718,6,0.064453125,-0.99224853515625,-0.07818603515625
1759999946142,1123659052,11718,7,0.065185546875,-0.99493408203125,-0.07843017578125
1759999946142,1123659052,11718,8,0.055419921875,-0.98565673828125,-0.09649658203125
1759999946142,1123659052,11718,9,0.067138671875,-0.99151611328125,-0.06256103515625
1759999946142,1123659052,11718,10,0.0556640625,-0.99932861328125,-0.05645751953125
1759999946142,1123659052,11718,11,0.08251953125,-0.98785400390625,-0.05279541015625
1759999946142,1123659052,11718,12,0.062255859375,-1.00396728515625,-0.02740478515625
1759999946142,1123659052,11718,13,0.0478515625,-0.99127197265625,-0.06329345703125
1759999946142,1123659052,11718,14,0.066650390625,-0.98443603515625,-0.07501220703125
1759999946142,1123659052,11718,15,0.07470703125,-0.99371337890625,-0.06036376953125
1759999946142,1123659052,11718,16,0.0634765625,-1.00030517578125,-0.02227783203125
1759999946142,1123659052,11718,17,0.07080078125,-0.98638916015625,-0.00543212890625
1759999946142,1123659052,11718,18,0.0546875,-1.00152587890625,-0.01055908203125
1759999946142,1123659052,11718,19,0.062255859375,-0.99371337890625,-0.05426025390625
1759999946142,1123659052,11718,20,0.0732421875,-0.98248291015625,-0.07940673828125
1759999946142,1123659052,11718,21,0.06396484375,-0.99420166015625,-0.05133056640625
1759999946142,1123659052,11718,22,0.07958984375,-0.99102783203125,-0.03155517578125
1759999946142,1123659052,11718,23,0.06982421875,-0.99859619140625,-0.00738525390625
1759999946142,1123659052,11718,24,0.0615234375,-0.99639892578125,-0.03277587890625
1759999946142,1123659052,11718,25,0.063720703125,-0.99029541015625,-0.06646728515625
1759999946142,1123659052,11718,26,0.086669921875,-0.97930908203125,-0.09576416015625
1759999946142,1123659052,11718,27,0.067138671875,-0.99053955078125,-0.05743408203125
1759999946142,1123659052,11718,28,0.08740234375,-0.99932861328125,-0.05010986328125
1759999946142,1123659052,11718,29,0.069580078125,-0.99810791015625,-0.01959228515625
1759999946142,1123659052,11718,30,0.060546875,-0.99591064453125,-0.03326416015625
1759999946142,1123659052,11718,31,0.072509765625,-0.99957275390625,-0.07769775390625
1759999948667,1123661571,11719,0,0.067138671875,-0.98077392578125,-0.08843994140625
1759999948667,1123661571,11719,1,0.075439453125,-0.98077392578125,-0.08477783203125
1759999948667,1123661571,11719,2,0.094482421875,-0.99298095703125,-0.07965087890625
1759999948667,1123661571,11719,3,0.0830078125,-0.99957275390625,-0.04962158203125
1759999948667,1123661571,11719,4,0.05908203125,-1.00201416015625,-0.03106689453125
1759999948667,1123661571,11719,5,0.07177734375,-0.99517822265625,-0.07720947265625
1759999948667,1123661571,11719,6,0.067138671875,-0.98468017578125,-0.09210205078125
1759999948667,1123661571,11719,7,0.091064453125,-0.97686767578125,-0.14044189453125
1759999948667,1123661571,11719,8,0.064453125,-0.98809814453125,-0.05694580078125
1759999948667,1123661571,11719,9,0.10009765625,-1.01202392578125,-0.08819580078125
1759999948667,1123661571,11719,10,0.0771484375,-0.99078369140625,-0.07183837890625
1759999948667,1123661571,11719,11,0.061767578125,-0.99298095703125,-0.07208251953125
1759999948667,1123661571,11719,12,0.073486328125,-0.99468994140625,-0.09429931640625
1759999948667,1123661571,11719,13,0.060791015625,-0.98907470703125,-0.07867431640625
1759999948667,1123661571,11719,14,0.084716796875,-0.98052978515625,-0.10626220703125
1759999948667,1123661571,11719,15,0.08056640625,-0.98052978515625,-0.11187744140625
1759999948667,1123661571,11719,16,0.07470703125,-0.99273681640625,-0.07525634765625
1759999948667,1123661571,11719,17,0.081298828125,-1.00689697265625,-0.07110595703125
1759999948667,1123661571,11719,18,0.0712890625,-0.99346923828125,-0.05548095703125
1759999948667,1123661571,11719,19,0.080078125,-0.99371337890625,-0.05987548828125
1759999948667,1123661571,11719,20,0.064697265625,-0.99127197265625,-0.09014892578125
1759999948667,1123661571,11719,21,0.082763671875,-0.97320556640625,-0.10675048828125
1759999948667,1123661571,11719,22,0.072265625,-0.98321533203125,-0.07940673828125
1759999948667,1123661571,11719,23,0.10400390625,-1.00396728515625,-0.08428955078125
1759999948667,1123661571,11719,24,0.07421875,-0.99761962890625,-0.03668212890625
1759999948667,1123661571,11719,25,0.07177734375,-0.99859619140625,-0.02862548828125
1759999948667,1123661571,11719,26,0.068359375,-0.99957275390625,-0.05133056640625
1759999948667,1123661571,11719,27,0.07373046875,-0.97711181640625,-0.07916259765625
1759999948667,1123661571,11719,28,0.08642578125,-0.98370361328125,-0.08428955078125
1759999948667,1123661571,11719,29,0.06982421875,-0.99761962890625,-0.05645751953125
1759999948667,1123661571,11719,30,0.08935546875,-1.00177001953125,-0.04351806640625
1759999948667,1123661571,11719,31,0.080322265625,-0.98834228515625,-0.03277587890625
1759999951181,1123664090,11720,0,0.057373046875,-0.99639892578125,-0.03936767578125
1759999951181,1123664090,11720,1,0.091552734375,-0.98077392578125,-0.11187744140625
1759999951181,1123664090,11720,2,0.076904296875,-0.99053955078125,-0.05743408203125
1759999951181,1123664090,11720,3,0.09033203125,-0.99444580078125,-0.04693603515625
1759999951181,1123664090,11720,4,0.058837890625,-1.00323486328125,-0.04010009765625
1759999951181,1123664090,11720,5,0.0927734375,-0.98223876953125,-0.10137939453125
1759999951181,1123664090,11720,6,0.080322265625,-0.98223876953125,-0.08282470703125
1759999951181,1123664090,11720,7,0.0849609375,-0.98712158203125,-0.06842041015625
1759999951181,1123664090,11720,8,0.08740234375,-0.99884033203125,-0.03790283203125
1759999951181,1123664090,11720,9,0.083251953125,-1.00225830078125,-0.02130126953125
1759999951181,1123664090,11720,10,0.0771484375,-0.99761962890625,-0.05279541015625
1759999951181,1123664090,11720,11,0.082763671875,-0.98516845703125,-0.08013916015625
1759999951181,1123664090,11720,12,0.081298828125,-0.98419189453125,-0.05596923828125
1759999951181,1123664090,11720,13,0.08251953125,-0.98565673828125,-0.05230712890625
1759999951181,1123664090,11720,14,0.07861328125,-1.00299072265625,-0.02203369140625
1759999951181,1123664090,11720,15,0.058349609375,-1.00030517578125,-0.01007080078125
1759999951181,1123664090,11720,16,0.07470703125,-0.98809814453125,-0.04547119140625
1759999951181,1123664090,11720,17,0.0634765625,-0.99298095703125,-0.06744384765625
1759999951181,1123664090,11720,18,0.089599609375,-0.98858642578125,-0.06622314453125
1759999951181,1123664090,11720,19,0.07568359375,-0.98516845703125,-0.03253173828125
1759999951181,1123664090,11720,20,0.091064453125,-0.99444580078125,-0.02569580078125
1759999951181,1123664090,11720,21,0.057373046875,-1.00567626953125,-0.01422119140625
1759999951181,1123664090,11720,22,0.082275390625,-0.98638916015625,-0.06011962890625
1759999951181,1123664090,11720,23,0.07958984375,-0.98883056640625,-0.08087158203125
1759999951181,1123664090,11720,24,0.07373046875,-0.99127197265625,-0.04180908203125
1759999951181,1123664090,11720,25,0.0986328125,-0.99664306640625,-0.04351806640625
1759999951181,1123664090,11720,26,0.056396484375,-1.00982666015625,-0.03546142578125
1759999951181,1123664090,11720,27,0.077880859375,-0.98516845703125,-0.08135986328125
1759999951181,1123664090,11720,28,0.080322265625,-0.98052978515625,-0.10089111328125
1759999951181,1123664090,11720,29,0.082763671875,-0.98223876953125,-0.07110595703125
1759999951181,1123664090,11720,30,0.10302734375,-0.99395751953125,-0.06988525390625
1759999951181,1123664090,11720,31,0.064453125,-1.00933837890625,-0.03204345703125
1759999953711,1123666609,11721,0,0.079833984375,-0.98883056640625,-0.07769775390625
1759999953711,1123666609,11721,1,0.093017578125,-0.99005126953125,-0.10821533203125
1759999953711,1123666609,11721,2,0.093505859375,-0.97467041015625,-0.07989501953125
1759999953711,1123666609,11721,3,0.099853515625,-1.00103759765625,-0.06207275390625
1759999953711,1123666609,11721,4,0.06982421875,-0.99078369140625,-0.02520751953125
1759999953711,1123666609,11721,5,0.080810546875,-0.99517822265625,-0.02862548828125
1759999953711,1123666609,11721,6,0.078369140625,-1.00274658203125,-0.05352783203125
1759999953711,1123666609,11721,7,0.077880859375,-0.98028564453125,-0.07135009765625
1759999953711,1123666609,11721,8,0.08349609375,-0.98956298828125,-0.09478759765625
1759999953711,1123666609,11721,9,0.089599609375,-0.98419189453125,-0.06939697265625
1759999953711,1123666609,11721,10,0.093017578125,-0.99273681640625,-0.03057861328125
1759999953711,1123666609,11721,11,0.063720703125,-1.00469970703125,-0.02667236328125
1759999953711,1123666609,11721,12,0.0810546875,-0.98760986328125,-0.04107666015625
1759999953711,1123666609,11721,13,0.084716796875,-0.98809814453125,-0.06524658203125
1759999953711,1123666609,11721,14,0.102783203125,-0.97979736328125,-0.10137939453125
1759999953711,1123666609,11721,15,0.080810546875,-0.99468994140625,-0.06304931640625
1759999953711,1123666609,11721,16,0.1044921875,-0.99273681640625,-0.04498291015625
1759999953711,1123666609,11721,17,0.05419921875,-1.00128173828125,-0.04083251953125
1759999953711,1123666609,11721,18,0.08154296875,-0.99493408203125,-0.08062744140625
1759999953711,1123666609,11721,19,0.07373046875,-0.97882080078125,-0.09454345703125
1759999953711,1123666609,11721,20,0.075927734375,-0.99371337890625,-0.05645751953125
1759999953711,1123666609,11721,21,0.083251953125,-0.99078369140625,-0.02935791015625
1759999953711,1123666609,11721,22,0.06591796875,-1.00177001953125,-0.01568603515625
1759999953711,1123666609,11721,23,0.066162109375,-0.99737548828125,-0.04278564453125
1759999953711,1123666609,11721,24,0.071044921875,-0.99517822265625,-0.05865478515625
1759999953711,1123666609,11721,25,0.064208984375,-0.99371337890625,-0.07501220703125
1759999953711,1123666609,11721,26,0.075439453125,-0.97637939453125,-0.09259033203125
1759999953711,1123666609,11721,27,0.079345703125,-0.98687744140625,-0.06524658203125
1759999953711,1123666609,11721,28,0.06201171875,-0.99761962890625,-0.07452392578125
1759999953711,1123666609,11721,29,0.078125,-0.99346923828125,-0.04400634765625
1759999953711,1123666609,11721,30,0.06884765625,-1.00811767578125,-0.02252197265625
1759999953711,1123666609,11721,31,0.0673828125,-0.98687744140625,-0.05157470703125
1759999956231,1123669128,11722,0,0.0654296875,-0.99444580078125,-0.07525634765625
1759999956231,1123669128,11722,1,0.067626953125,-0.97735595703125,-0.09478759765625
1759999956231,1123669128,11722,2,0.08056640625,-0.98199462890625,-0.07183837890625
1759999956231,1123669128,11722,3,0.064697265625,-1.00396728515625,-0.08184814453125
1759999956231,1123669128,11722,4,0.072021484375,-0.99639892578125,-0.03936767578125
1759999956231,1123669128,11722,5,0.05810546875,-1.00665283203125,-0.01983642578125
1759999956231,1123669128,11722,6,0.07275390625,-0.98248291015625,-0.06231689453125
1759999956231,1123669128,11722,7,0.07470703125,-0.99444580078125,-0.07110595703125
1759999956231,1123669128,11722,8,0.0732421875,-0.98345947265625,-0.08673095703125
1759999956231,1123669128,11722,9,0.075927734375,-0.98858642578125,-0.07550048828125
1759999956231,1123669128,11722,10,0.0693359375,-0.99737548828125,-0.06060791015625
1759999956231,1123669128,11722,11,0.0732421875,-1.00299072265625,-0.04205322265625
1759999956231,1123669128,11722,12,0.0693359375,-0.99151611328125,-0.05645751953125
1759999956231,1123669128,11722,13,0.073974609375,-0.99468994140625,-0.06500244140625
1759999956231,1123669128,11722,14,0.072265625,-0.98858642578125,-0.08355712890625
1759999956231,1123669128,11722,15,0.091796875,-0.98541259765625,-0.07916259765625
1759999956231,1123669128,11722,16,0.053466796875,-0.99542236328125,-0.05987548828125
1759999956231,1123669128,11722,17,0.0595703125,-1.00811767578125,-0.04498291015625
1759999956231,1123669128,11722,18,0.080322265625,-0.98834228515625,-0.08428955078125
1759999956231,1123669128,11722,19,0.077392578125,-0.98052978515625,-0.08917236328125
1759999956231,1123669128,11722,20,0.0810546875,-0.98956298828125,-0.07647705078125
1759999956231,1123669128,11722,21,0.068115234375,-1.00640869140625,-0.07598876953125
1759999956231,1123669128,11722,22,0.044677734375,-0.99786376953125,-0.06549072265625
1759999956231,1123669128,11722,23,0.073974609375,-0.99322509765625,-0.08917236328125
1759999956231,1123669128,11722,24,0.0859375,-0.98663330078125,-0.11700439453125
1759999956231,1123669128,11722,25,0.070556640625,-0.97760009765625,-0.09234619140625
1759999956231,1123669128,11722,26,0.071533203125,-0.99981689453125,-0.08160400390625
1759999956231,1123669128,11722,27,0.0498046875,-1.01031494140625,-0.04718017578125
1759999956231,1123669128,11722,28,0.06494140625,-0.98712158203125,-0.07916259765625
1759999956231,1123669128,11722,29,0.07421875,-0.99639892578125,-0.09039306640625
1759999956231,1123669128,11722,30,0.07080078125,-0.98101806640625,-0.09356689453125
1759999956231,1123669128,11722,31,0.069580078125,-0.99591064453125,-0.09210205078125
1759999958748,1123671647,11723,0,0.0595703125,-0.99102783203125,-0.09503173828125
1759999958748,1123671647,11723,1,0.06103515625,-0.98907470703125,-0.07257080078125
1759999958748,1123671647,11723,2,0.091064453125,-0.99420166015625,-0.06549072265625
1759999958748,1123671647,11723,3,0.052978515625,-1.00885009765625,-0.03619384765625
1759999958748,1123671647,11723,4,0.0654296875,-0.98858642578125,-0.06475830078125
1759999958748,1123671647,11723,5,0.064453125,-0.99200439453125,-0.09063720703125
1759999958748,1123671647,11723,6,0.078857421875,-0.98004150390625,-0.07672119140625
1759999958748,1123671647,11723,7,0.07080078125,-0.99346923828125,-0.06085205078125
1759999958748,1123671647,11723,8,0.068359375,-1.01690673828125,-0.03643798828125
1759999958748,1123671647,11723,9,0.055908203125,-0.98760986328125,-0.04547119140625
1759999958748,1123671647,11723,10,0.06787109375,-0.99932861328125,-0.06622314453125
1759999958748,1123671647,11723,11,0.07275390625,-0.98590087890625,-0.08917236328125
1759999958748,1123671647,11723,12,0.07470703125,-0.97955322265625,-0.10211181640625
1759999958748,1123671647,11723,13,0.070068359375,-0.99029541015625,-0.07086181640625
1759999958748,1123671647,11723,14,0.06103515625,-0.99713134765625,-0.06134033203125
1759999958748,1123671647,11723,15,0.081298828125,-0.99639892578125,-0.04376220703125
1759999958748,1123671647,11723,16,0.0595703125,-0.99859619140625,-0.02520751953125
1759999958748,1123671647,11723,17,0.079833984375,-1.00006103515625,-0.02008056640625
1759999958748,1123671647,11723,18,0.050537109375,-0.99029541015625,-0.04595947265625
1759999958748,1123671647,11723,19,0.079345703125,-0.98492431640625,-0.07061767578125
1759999958748,1123671647,11723,20,0.0654296875,-0.98907470703125,-0.09185791015625
1759999958748,1123671647,11723,21,0.0712890625,-0.98687744140625,-0.06353759765625
1759999958748,1123671647,11723,22,0.09228515625,-0.99322509765625,-0.05181884765625
1759999958748,1123671647,11723,23,0.07177734375,-1.00592041015625,-0.02520751953125
1759999958748,1123671647,11723,24,0.056640625,-0.98809814453125,-0.03399658203125
1759999958748,1123671647,11723,25,0.070068359375,-1.00006103515625,-0.07110595703125
1759999958748,1123671647,11723,26,0.07080078125,-0.98541259765625,-0.08526611328125
1759999958748,1123671647,11723,27,0.085205078125,-0.97857666015625,-0.08453369140625
1759999958748,1123671647,11723,28,0.074462890625,-0.99566650390625,-0.04888916015625
1759999958748,1123671647,11723,29,0.07275390625,-1.01397705078125,-0.03912353515625
1759999958748,1123671647,11723,30,0.063232421875,-0.97564697265625,-0.06915283203125
1759999958748,1123671647,11723,31,0.080810546875,-0.99346923828125,-0.09283447265625
1759999961260,1123674166,11724,0,0.084228515625,-0.98468017578125,-0.09405517578125
1759999961260,1123674166,11724,1,0.070068359375,-0.99395751953125,-0.05548095703125
1759999961260,1123674166,11724,2,0.063720703125,-1.00933837890625,-0.04229736328125
1759999961260,1123674166,11724,3,0.069091796875,-0.99029541015625,-0.06158447265625
1759999961260,1123674166,11724,4,0.0693359375,-0.99127197265625,-0.07891845703125
1759999961260,1123674166,11724,5,0.0849609375,-0.97882080078125,-0.10528564453125
1759999961260,1123674166,11724,6,0.070068359375,-0.98516845703125,-0.05621337890625
1759999961260,1123674166,11724,7,0.068359375,-1.01275634765625,-0.04498291015625
1759999961260,1123674166,11724,8,0.060546875,-0.98980712890625,-0.06427001953125
1759999961260,1123674166,11724,9,0.0703125,-0.99688720703125,-0.07623291015625
1759999961260,1123674166,11724,10,0.072998046875,-0.98052978515625,-0.11212158203125
1759999961260,1123674166,11724,11,0.07861328125,-0.97613525390625,-0.08502197265625
1759999961260,1123674166,11724,12,0.071044921875,-1.00885009765625,-0.05474853515625
1759999961260,1123674166,11724,13,0.054931640625,-1.00054931640625,-0.06793212890625
1759999961260,1123674166,11724,14,0.07666015625,-0.99078369140625,-0.08990478515625
1759999961260,1123674166,11724,15,0.069091796875,-0.97955322265625,-0.10870361328125
1759999961260,1123674166,11724,16,0.091552734375,-0.97979736328125,-0.10650634765625
1759999961260,1123674166,11724,17,0.061279296875,-1.00616455078125,-0.06109619140625
1759999961260,1123674166,11724,18,0.0546875,-1.00445556640625,-0.06646728515625
1759999961260,1123674166,11724,19,0.073974609375,-0.99444580078125,-0.08843994140625
1759999961260,1123674166,11724,20,0.0693359375,-0.98931884765625,-0.09991455078125
1759999961260,1123674166,11724,21,0.0859375,-0.97198486328125,-0.12506103515625
