receivedPhoneTimestamp,respeckTimestamp,packetSeqNum,sampleSeqNum,accelX,accelY,accelZ
1688220245467,738882623,33504,16,0.858154296875,0.02020263671875,0.43695068359375
1688220245467,738882623,33504,17,0.83349609375,0.05072021484375,0.41888427734375
1688220245467,738882623,33504,18,0.82470703125,0.03851318359375,0.42816162109375
1688220245467,738882623,33504,19,0.830810546875,0.03045654296875,0.43109130859375
1688220245467,738882623,33504,20,0.841552734375,0.02239990234375,0.46063232421875
1688220245467,738882623,33504,21,0.82470703125,0.05413818359375,0.41717529296875
1688220245467,738882623,33504,22,0.831787109375,0.04241943359375,0.41375732421875
1688220245467,738882623,33504,23,0.84521484375,0.03607177734375,0.40106201171875
1688220245467,738882623,33504,24,0.82763671875,0.04168701171875,0.40692138671875
1688220245467,738882623,33504,25,0.826171875,0.06390380859375,0.38690185546875
1688220245467,738882623,33504,26,0.8212890625,0.06488037109375,0.35955810546875
1688220245467,738882623,33504,27,0.84326171875,0.03094482421875,0.41448974609375
1688220245467,738882623,33504,28,0.84716796875,0.03802490234375,0.41717529296875
1688220245467,738882623,33504,29,0.832763671875,0.04168701171875,0.43890380859375
1688220245467,738882623,33504,30,0.830322265625,0.04168701171875,0.42572021484375
1688220245467,738882623,33504,31,0.829833984375,0.03240966796875,0.43060302734375
1688220248196,738885160,33505,0,0.841552734375,0.02899169921875,0.45184326171875
1688220248196,738885160,33505,1,0.828857421875,0.04632568359375,0.42376708984375
1688220248196,738885160,33505,2,0.833251953125,0.04852294921875,0.40692138671875
1688220248196,738885160,33505,3,0.83349609375,0.03509521484375,0.41571044921875
1688220248196,738885160,33505,4,0.8291015625,0.05047607421875,0.39886474609375
1688220248196,738885160,33505,5,0.830322265625,0.05609130859375,0.38714599609375
1688220248196,738885160,33505,6,0.823974609375,0.05926513671875,0.37078857421875
1688220248196,738885160,33505,7,0.845703125,0.03387451171875,0.41619873046875
1688220248196,738885160,33505,8,0.8427734375,0.03680419921875,0.41546630859375
1688220248196,738885160,33505,9,0.8349609375,0.04998779296875,0.41815185546875
1688220248196,738885160,33505,10,0.837646484375,0.03778076171875,0.42181396484375
1688220248196,738885160,33505,11,0.830810546875,0.03851318359375,0.42205810546875
1688220248196,738885160,33505,12,0.8349609375,0.03314208984375,0.45159912109375
1688220248196,738885160,33505,13,0.82861328125,0.04437255859375,0.42303466796875
1688220248196,738885160,33505,14,0.823486328125,0.03509521484375,0.44207763671875
1688220248196,738885160,33505,15,0.8291015625,0.03582763671875,0.41790771484375
1688220248196,738885160,33505,16,0.82958984375,0.05120849609375,0.42254638671875
1688220248196,738885160,33505,17,0.826416015625,0.05242919921875,0.41278076171875
1688220248196,738885160,33505,18,0.8173828125,0.06683349609375,0.38006591796875
1688220248196,738885160,33505,19,0.831298828125,0.04071044921875,0.40887451171875
1688220248196,738885160,33505,20,0.8369140625,0.02728271484375,0.43621826171875
1688220248196,738885160,33505,21,0.827880859375,0.04339599609375,0.43963623046875
1688220248196,738885160,33505,22,0.827392578125,0.03485107421875,0.43914794921875
1688220248196,738885160,33505,23,0.825439453125,0.03265380859375,0.43914794921875
1688220248196,738885160,33505,24,0.829833984375,0.02655029296875,0.46551513671875
1688220248196,738885160,33505,25,0.8291015625,0.03656005859375,0.42425537109375
1688220248196,738885160,33505,26,0.822265625,0.03680419921875,0.43768310546875
1688220248196,738885160,33505,27,0.82421875,0.03460693359375,0.43597412109375
1688220248196,738885160,33505,28,0.826416015625,0.04437255859375,0.41668701171875
1688220248196,738885160,33505,29,0.824462890625,0.05413818359375,0.41082763671875
1688220248196,738885160,33505,30,0.824951171875,0.05633544921875,0.38616943359375
1688220248196,738885160,33505,31,0.821044921875,0.05072021484375,0.38885498046875
1688220250537,738887697,33506,0,0.851318359375,0.02728271484375,0.43841552734375
1688220250537,738887697,33506,1,0.8359375,0.04266357421875,0.43182373046875
1688220250537,738887697,33506,2,0.828369140625,0.03509521484375,0.42523193359375
1688220250537,738887697,33506,3,0.828857421875,0.03314208984375,0.41546630859375
1688220250537,738887697,33506,4,0.83984375,0.02996826171875,0.44085693359375
1688220250537,738887697,33506,5,0.836669921875,0.02850341796875,0.43572998046875
1688220250537,738887697,33506,6,0.825927734375,0.04266357421875,0.42279052734375
1688220250537,738887697,33506,7,0.8271484375,0.03826904296875,0.41473388671875
1688220250537,738887697,33506,8,0.83203125,0.04339599609375,0.41693115234375
1688220250537,738887697,33506,9,0.828125,0.04315185546875,0.41326904296875
1688220250537,738887697,33506,10,0.829833984375,0.05316162109375,0.38739013671875
1688220250537,738887697,33506,11,0.831298828125,0.05828857421875,0.37664794921875
1688220250537,738887697,33506,12,0.847412109375,0.02923583984375,0.42962646484375
1688220250537,738887697,33506,13,0.83740234375,0.04217529296875,0.43060302734375
1688220250537,738887697,33506,14,0.835205078125,0.03753662109375,0.41058349609375
1688220250537,738887697,33506,15,0.83837890625,0.03656005859375,0.40789794921875
1688220250537,738887697,33506,16,0.84423828125,0.03558349609375,0.40301513671875
1688220250537,738887697,33506,17,0.845947265625,0.02825927734375,0.43475341796875
1688220250537,738887697,33506,18,0.8359375,0.03973388671875,0.41058349609375
1688220250537,738887697,33506,19,0.83642578125,0.03533935546875,0.42181396484375
1688220250537,738887697,33506,20,0.826904296875,0.03948974609375,0.41302490234375
1688220250537,738887697,33506,21,0.830810546875,0.04998779296875,0.41668701171875
1688220250537,738887697,33506,22,0.8369140625,0.05047607421875,0.40789794921875
1688220250537,738887697,33506,23,0.820068359375,0.06048583984375,0.38201904296875
1688220250537,738887697,33506,24,0.830078125,0.05584716796875,0.38519287109375
1688220250537,738887697,33506,25,0.8427734375,0.03631591796875,0.43475341796875
1688220250537,738887697,33506,26,0.840087890625,0.04364013671875,0.41864013671875
1688220250537,738887697,33506,27,0.8330078125,0.04168701171875,0.41473388671875
1688220250537,738887697,33506,28,0.84033203125,0.03436279296875,0.40277099609375
1688220250537,738887697,33506,29,0.843017578125,0.03216552734375,0.42059326171875
1688220250537,738887697,33506,30,0.846435546875,0.03729248046875,0.41473388671875
1688220250537,738887697,33506,31,0.836181640625,0.04144287109375,0.41131591796875
1688220253072,738890235,33507,0,0.83642578125,0.03729248046875,0.41204833984375
1688220253072,738890235,33507,1,0.83056640625,0.04559326171875,0.41009521484375
1688220253072,738890235,33507,2,0.83154296875,0.05096435546875,0.41229248046875
1688220253072,738890235,33507,3,0.836181640625,0.06048583984375,0.39422607421875
1688220253072,738890235,33507,4,0.817626953125,0.05999755859375,0.36102294921875
1688220253072,738890235,33507,5,0.84912109375,0.03753662109375,0.41693115234375
1688220253072,738890235,33507,6,0.842529296875,0.03997802734375,0.42108154296875
1688220253072,738890235,33507,7,0.836181640625,0.04510498046875,0.42425537109375
1688220253072,738890235,33507,8,0.840576171875,0.03485107421875,0.40960693359375
1688220253072,738890235,33507,9,0.841064453125,0.03460693359375,0.40887451171875
1688220253072,738890235,33507,10,0.84716796875,0.02703857421875,0.43914794921875
1688220253072,738890235,33507,11,0.830322265625,0.04876708984375,0.40692138671875
1688220253072,738890235,33507,12,0.836669921875,0.03729248046875,0.41180419921875
1688220253072,738890235,33507,13,0.83203125,0.03802490234375,0.41253662109375
1688220253072,738890235,33507,14,0.838134765625,0.04559326171875,0.40960693359375
1688220253072,738890235,33507,15,0.82861328125,0.04827880859375,0.41204833984375
1688220253072,738890235,33507,16,0.82275390625,0.06365966796875,0.37640380859375
1688220253072,738890235,33507,17,0.83349609375,0.04315185546875,0.39862060546875
1688220253072,738890235,33507,18,0.8466796875,0.03118896484375,0.42376708984375
1688220253072,738890235,33507,19,0.83349609375,0.04217529296875,0.43109130859375
1688220253072,738890235,33507,20,0.83203125,0.03533935546875,0.41595458984375
1688220253072,738890235,33507,21,0.842041015625,0.02923583984375,0.41766357421875
1688220253072,738890235,33507,22,0.8447265625,0.02606201171875,0.44036865234375
1688220253072,738890235,33507,23,0.835693359375,0.03997802734375,0.40789794921875
1688220253072,738890235,33507,24,0.831298828125,0.03436279296875,0.41131591796875
1688220253072,738890235,33507,25,0.83203125,0.03363037109375,0.41131591796875
1688220253072,738890235,33507,26,0.840087890625,0.03533935546875,0.41326904296875
1688220253072,738890235,33507,27,0.833251953125,0.04510498046875,0.40887451171875
1688220253072,738890235,33507,28,0.830078125,0.05145263671875,0.39471435546875
1688220253072,738890235,33507,29,0.82470703125,0.04510498046875,0.38006591796875
1688220253072,738890235,33507,30,0.84619140625,0.02215576171875,0.42816162109375
1688220253072,738890235,33507,31,0.8427734375,0.03851318359375,0.41156005859375
1688220255607,738892772,33508,0,0.837158203125,0.03778076171875,0.40277099609375
1688220255607,738892772,33508,1,0.8486328125,0.02801513671875,0.38739013671875
1688220255607,738892772,33508,2,0.851806640625,0.02850341796875,0.39739990234375
1688220255607,738892772,33508,3,0.852783203125,0.03094482421875,0.41033935546875
1688220255607,738892772,33508,4,0.8388671875,0.03460693359375,0.39178466796875
1688220255607,738892772,33508,5,0.84033203125,0.03045654296875,0.40667724609375
1688220255607,738892772,33508,6,0.83642578125,0.02801513671875,0.41375732421875
1688220255607,738892772,33508,7,0.8349609375,0.03533935546875,0.41912841796875
1688220255607,738892772,33508,8,0.830322265625,0.04339599609375,0.40496826171875
1688220255607,738892772,33508,9,0.826171875,0.04119873046875,0.37713623046875
1688220255607,738892772,33508,10,0.8466796875,0.04681396484375,0.37738037109375
1688220255607,738892772,33508,11,0.8583984375,0.02020263671875,0.39715576171875
1688220255607,738892772,33508,12,0.857177734375,0.04266357421875,0.37786865234375
1688220255607,738892772,33508,13,0.856689453125,0.03363037109375,0.37225341796875
1688220255607,738892772,33508,14,0.861083984375,0.03167724609375,0.36785888671875
1688220255607,738892772,33508,15,0.861328125,0.03436279296875,0.37567138671875
1688220255607,738892772,33508,16,0.857177734375,0.02508544921875,0.40570068359375
1688220255607,738892772,33508,17,0.838623046875,0.03973388671875,0.38616943359375
1688220255607,738892772,33508,18,0.841552734375,0.03363037109375,0.39691162109375
1688220255607,738892772,33508,19,0.843505859375,0.02166748046875,0.40570068359375
1688220255607,738892772,33508,20,0.833740234375,0.03192138671875,0.41766357421875
1688220255607,738892772,33508,21,0.8359375,0.05096435546875,0.37493896484375
1688220255607,738892772,33508,22,0.832275390625,0.04364013671875,0.37615966796875
1688220255607,738892772,33508,23,0.8447265625,0.02191162109375,0.41131591796875
1688220255607,738892772,33508,24,0.843505859375,0.02972412109375,0.40399169921875
1688220255607,738892772,33508,25,0.837646484375,0.03118896484375,0.41790771484375
1688220255607,738892772,33508,26,0.841064453125,0.02752685546875,0.40179443359375
1688220255607,738892772,33508,27,0.847900390625,0.02630615234375,0.40399169921875
1688220255607,738892772,33508,28,0.858154296875,0.01971435546875,0.41351318359375
1688220255607,738892772,33508,29,0.84130859375,0.03826904296875,0.39276123046875
1688220255607,738892772,33508,30,0.84619140625,0.02557373046875,0.40008544921875
1688220255607,738892772,33508,31,0.841552734375,0.03948974609375,0.39569091796875
1688220258143,738895309,33509,0,0.834716796875,0.04168701171875,0.39276123046875
1688220258143,738895309,33509,1,0.837890625,0.04022216796875,0.38421630859375
1688220258143,738895309,33509,2,0.8330078125,0.04266357421875,0.37884521484375
1688220258143,738895309,33509,3,0.8505859375,0.02728271484375,0.40887451171875
1688220258143,738895309,33509,4,0.850830078125,0.03045654296875,0.38909912109375
1688220258143,738895309,33509,5,0.8525390625,0.02679443359375,0.38641357421875
1688220258143,738895309,33509,6,0.853271484375,0.03338623046875,0.37469482421875
1688220258143,738895309,33509,7,0.8525390625,0.02777099609375,0.38226318359375
1688220258143,738895309,33509,8,0.86572265625,0.02557373046875,0.39031982421875
1688220258143,738895309,33509,9,0.8466796875,0.03973388671875,0.37811279296875
1688220258143,738895309,33509,10,0.845458984375,0.03240966796875,0.39251708984375
1688220258143,738895309,33509,11,0.849365234375,0.03021240234375,0.40325927734375
1688220258143,738895309,33509,12,0.83349609375,0.04510498046875,0.39691162109375
1688220258143,738895309,33509,13,0.834228515625,0.04461669921875,0.38055419921875
1688220258143,738895309,33509,14,0.838134765625,0.04412841796875,0.37689208984375
1688220258143,738895309,33509,15,0.846923828125,0.03680419921875,0.41302490234375
1688220258143,738895309,33509,16,0.839111328125,0.03094482421875,0.40545654296875
1688220258143,738895309,33509,17,0.845703125,0.03265380859375,0.40643310546875
1688220258143,738895309,33509,18,0.845947265625,0.03143310546875,0.39520263671875
1688220258143,738895309,33509,19,0.84423828125,0.02923583984375,0.39935302734375
1688220258143,738895309,33509,20,0.85205078125,0.02606201171875,0.41571044921875
1688220258143,738895309,33509,21,0.8388671875,0.03607177734375,0.39886474609375
1688220258143,738895309,33509,22,0.8447265625,0.03118896484375,0.40789794921875
1688220258143,738895309,33509,23,0.838623046875,0.03143310546875,0.40301513671875
1688220258143,738895309,33509,24,0.83349609375,0.03753662109375,0.39862060546875
1688220258143,738895309,33509,25,0.835693359375,0.04266357421875,0.39276123046875
1688220258143,738895309,33509,26,0.829833984375,0.03924560546875,0.37957763671875
1688220258143,738895309,33509,27,0.848876953125,0.02923583984375,0.39959716796875
1688220258143,738895309,33509,28,0.84912109375,0.03143310546875,0.39007568359375
1688220258143,738895309,33509,29,0.8515625,0.02972412109375,0.38787841796875
1688220258143,738895309,33509,30,0.857666015625,0.02557373046875,0.38250732421875
1688220258143,738895309,33509,31,0.85107421875,0.03436279296875,0.38861083984375
1688220260677,738897846,33510,0,0.85546875,0.02728271484375,0.40008544921875
1688220260677,738897846,33510,1,0.842041015625,0.03411865234375,0.38421630859375
1688220260677,738897846,33510,2,0.844482421875,0.03021240234375,0.39349365234375
1688220260677,738897846,33510,3,0.83935546875,0.02923583984375,0.41107177734375
1688220260677,738897846,33510,4,0.829345703125,0.03509521484375,0.40399169921875
1688220260677,738897846,33510,5,0.840087890625,0.03948974609375,0.40008544921875
1688220260677,738897846,33510,6,0.83056640625,0.04534912109375,0.39178466796875
1688220260677,738897846,33510,7,0.83251953125,0.03363037109375,0.39715576171875
1688220260677,738897846,33510,8,0.839599609375,0.03216552734375,0.40521240234375
1688220260677,738897846,33510,9,0.84130859375,0.03314208984375,0.41253662109375
1688220260677,738897846,33510,10,0.839111328125,0.02801513671875,0.40447998046875
1688220260677,738897846,33510,11,0.847412109375,0.02728271484375,0.39984130859375
1688220260677,738897846,33510,12,0.84228515625,0.02777099609375,0.40765380859375
1688220260677,738897846,33510,13,0.850341796875,0.01898193359375,0.41839599609375
1688220260677,738897846,33510,14,0.831787109375,0.03094482421875,0.40667724609375
1688220260677,738897846,33510,15,0.842041015625,0.02679443359375,0.40545654296875
1688220260677,738897846,33510,16,0.834716796875,0.02801513671875,0.42401123046875
1688220260677,738897846,33510,17,0.83154296875,0.03460693359375,0.41058349609375
1688220260677,738897846,33510,18,0.835205078125,0.03436279296875,0.40985107421875
1688220260677,738897846,33510,19,0.82666015625,0.04608154296875,0.39300537109375
1688220260677,738897846,33510,20,0.830078125,0.03240966796875,0.39324951171875
1688220260677,738897846,33510,21,0.842529296875,0.01849365234375,0.41229248046875
1688220260677,738897846,33510,22,0.84765625,0.03558349609375,0.42010498046875
1688220260677,738897846,33510,23,0.8408203125,0.03045654296875,0.40740966796875
1688220260677,738897846,33510,24,0.84619140625,0.02752685546875,0.39642333984375
1688220260677,738897846,33510,25,0.8515625,0.01800537109375,0.41400146484375
1688220260677,738897846,33510,26,0.845947265625,0.02801513671875,0.40032958984375
1688220260677,738897846,33510,27,0.836181640625,0.02777099609375,0.40521240234375
1688220260677,738897846,33510,28,0.831298828125,0.02899169921875,0.41546630859375
1688220260677,738897846,33510,29,0.83984375,0.02947998046875,0.41253662109375
1688220260677,738897846,33510,30,0.8330078125,0.03118896484375,0.41229248046875
1688220260677,738897846,33510,31,0.82958984375,0.03900146484375,0.39739990234375
1688220263212,738900383,33511,0,0.83984375,0.02899169921875,0.36614990234375
1688220263212,738900383,33511,1,0.84228515625,0.03582763671875,0.40643310546875
1688220263212,738900383,33511,2,0.86328125,0.02313232421875,0.39007568359375
1688220263212,738900383,33511,3,0.85498046875,0.02752685546875,0.37762451171875
1688220263212,738900383,33511,4,0.860107421875,0.03143310546875,0.37127685546875
1688220263212,738900383,33511,5,0.857421875,0.03070068359375,0.37322998046875
1688220263212,738900383,33511,6,0.8564453125,0.02777099609375,0.39276123046875
1688220263212,738900383,33511,7,0.8515625,0.02728271484375,0.39300537109375
1688220263212,738900383,33511,8,0.842529296875,0.02874755859375,0.40350341796875
1688220263212,738900383,33511,9,0.83935546875,0.03338623046875,0.40594482421875
1688220263212,738900383,33511,10,0.837646484375,0.03192138671875,0.40447998046875
1688220263212,738900383,33511,11,0.83544921875,0.03167724609375,0.40618896484375
1688220263212,738900383,33511,12,0.8359375,0.04266357421875,0.39129638671875
1688220263212,738900383,33511,13,0.832763671875,0.03240966796875,0.38079833984375
1688220263212,738900383,33511,14,0.849853515625,0.03167724609375,0.40399169921875
1688220263212,738900383,33511,15,0.85009765625,0.03118896484375,0.39178466796875
1688220263212,738900383,33511,16,0.849365234375,0.02728271484375,0.39007568359375
1688220263212,738900383,33511,17,0.85302734375,0.02655029296875,0.39154052734375
1688220263212,738900383,33511,18,0.856201171875,0.02581787109375,0.39251708984375
1688220263212,738900383,33511,19,0.847900390625,0.02923583984375,0.39349365234375
1688220263212,738900383,33511,20,0.84423828125,0.02655029296875,0.40130615234375
1688220263212,738900383,33511,21,0.840087890625,0.02996826171875,0.40277099609375
1688220263212,738900383,33511,22,0.843505859375,0.02532958984375,0.40179443359375
1688220263212,738900383,33511,23,0.83544921875,0.02777099609375,0.41009521484375
1688220263212,738900383,33511,24,0.83935546875,0.04022216796875,0.39617919921875
1688220263212,738900383,33511,25,0.836181640625,0.03631591796875,0.39154052734375
1688220263212,738900383,33511,26,0.832763671875,0.03582763671875,0.38446044921875
1688220263212,738900383,33511,27,0.84228515625,0.02703857421875,0.40985107421875
1688220263212,738900383,33511,28,0.841796875,0.02386474609375,0.40911865234375
1688220263212,738900383,33511,29,0.842041015625,0.02606201171875,0.40179443359375
1688220263212,738900383,33511,30,0.84765625,0.02508544921875,0.39569091796875
1688220263212,738900383,33511,31,0.846923828125,0.02557373046875,0.39910888671875
1688220265747,738902920,33512,0,0.845703125,0.02020263671875,0.41497802734375
1688220265747,738902920,33512,1,0.840576171875,0.02337646484375,0.40521240234375
1688220265747,738902920,33512,2,0.840576171875,0.02825927734375,0.40472412109375
1688220265747,738902920,33512,3,0.836669921875,0.02825927734375,0.40765380859375
1688220265747,738902920,33512,4,0.835205078125,0.02777099609375,0.40814208984375
1688220265747,738902920,33512,5,0.83544921875,0.03314208984375,0.40716552734375
1688220265747,738902920,33512,6,0.83349609375,0.03631591796875,0.39886474609375
1688220265747,738902920,33512,7,0.83251953125,0.04071044921875,0.38787841796875
1688220265747,738902920,33512,8,0.835205078125,0.03509521484375,0.39862060546875
1688220265747,738902920,33512,9,0.84326171875,0.02459716796875,0.41961669921875
1688220265747,738902920,33512,10,0.836181640625,0.02703857421875,0.41864013671875
1688220265747,738902920,33512,11,0.839599609375,0.02703857421875,0.41204833984375
1688220265747,738902920,33512,12,0.83837890625,0.02337646484375,0.41253662109375
1688220265747,738902920,33512,13,0.841064453125,0.02215576171875,0.42987060546875
1688220265747,738902920,33512,14,0.8359375,0.02703857421875,0.41326904296875
1688220265747,738902920,33512,15,0.833984375,0.02508544921875,0.41204833984375
1688220265747,738902920,33512,16,0.833740234375,0.02825927734375,0.41473388671875
1688220265747,738902920,33512,17,0.839111328125,0.02923583984375,0.40789794921875
1688220265747,738902920,33512,18,0.834716796875,0.02850341796875,0.42205810546875
1688220265747,738902920,33512,19,0.837890625,0.03753662109375,0.39520263671875
1688220265747,738902920,33512,20,0.833984375,0.03314208984375,0.39129638671875
1688220265747,738902920,33512,21,0.8271484375,0.04095458984375,0.38250732421875
1688220265747,738902920,33512,22,0.84912109375,0.02044677734375,0.40838623046875
1688220265747,738902920,33512,23,0.84423828125,0.02777099609375,0.40594482421875
1688220265747,738902920,33512,24,0.843505859375,0.02142333984375,0.40618896484375
1688220265747,738902920,33512,25,0.8427734375,0.01580810546875,0.40692138671875
1688220265747,738902920,33512,26,0.843017578125,0.02337646484375,0.40863037109375
1688220265747,738902920,33512,27,0.841552734375,0.02239990234375,0.41204833984375
1688220265747,738902920,33512,28,0.8359375,0.01922607421875,0.41595458984375
1688220265747,738902920,33512,29,0.833740234375,0.02459716796875,0.40936279296875
1688220265747,738902920,33512,30,0.83984375,0.02166748046875,0.41448974609375
1688220265747,738902920,33512,31,0.8359375,0.03192138671875,0.41400146484375
1688220268282,738905457,33513,0,0.836181640625,0.03070068359375,0.40179443359375
1688220268282,738905457,33513,1,0.8349609375,0.03289794921875,0.40106201171875
1688220268282,738905457,33513,2,0.827880859375,0.04168701171875,0.36883544921875
1688220268282,738905457,33513,3,0.84521484375,0.02630615234375,0.40643310546875
1688220268282,738905457,33513,4,0.843017578125,0.02410888671875,0.41156005859375
1688220268282,738905457,33513,5,0.845458984375,0.02386474609375,0.41888427734375
1688220268282,738905457,33513,6,0.8466796875,0.02337646484375,0.40008544921875
1688220268282,738905457,33513,7,0.840576171875,0.02337646484375,0.39910888671875
1688220268282,738905457,33513,8,0.845458984375,0.02069091796875,0.41107177734375
1688220268282,738905457,33513,9,0.850341796875,0.02142333984375,0.40887451171875
1688220268282,738905457,33513,10,0.8369140625,0.02532958984375,0.39447021484375
1688220268282,738905457,33513,11,0.845458984375,0.02044677734375,0.40203857421875
1688220268282,738905457,33513,12,0.837158203125,0.02581787109375,0.40277099609375
1688220268282,738905457,33513,13,0.839111328125,0.03167724609375,0.40277099609375
1688220268282,738905457,33513,14,0.839111328125,0.03216552734375,0.38568115234375
1688220268282,738905457,33513,15,0.836181640625,0.03582763671875,0.37713623046875
1688220268282,738905457,33513,16,0.852294921875,0.02435302734375,0.38568115234375
1688220268282,738905457,33513,17,0.8583984375,0.01776123046875,0.37518310546875
1688220268282,738905457,33513,18,0.868408203125,0.02752685546875,0.35882568359375
1688220268282,738905457,33513,19,0.876220703125,0.02264404296875,0.34027099609375
1688220268282,738905457,33513,20,0.8740234375,0.02337646484375,0.33294677734375
1688220268282,738905457,33513,21,0.875244140625,0.03094482421875,0.34100341796875
1688220268282,738905457,33513,22,0.8681640625,0.02117919921875,0.37640380859375
1688220268282,738905457,33513,23,0.853759765625,0.02362060546875,0.36956787109375
1688220268282,738905457,33513,24,0.8466796875,0.02606201171875,0.39520263671875
1688220268282,738905457,33513,25,0.845703125,0.02777099609375,0.39105224609375
1688220268282,738905457,33513,26,0.84033203125,0.02166748046875,0.40570068359375
1688220268282,738905457,33513,27,0.838134765625,0.03729248046875,0.39422607421875
1688220268282,738905457,33513,28,0.84033203125,0.03558349609375,0.38421630859375
1688220268282,738905457,33513,29,0.831787109375,0.03582763671875,0.37078857421875
1688220268282,738905457,33513,30,0.85009765625,0.02288818359375,0.40838623046875
1688220268282,738905457,33513,31,0.851806640625,0.01873779296875,0.39764404296875
1688220270817,738907994,33514,0,0.84716796875,0.03118896484375,0.39276123046875
1688220270817,738907994,33514,1,0.859375,0.02288818359375,0.37689208984375
1688220270817,738907994,33514,2,0.864013671875,0.02655029296875,0.36834716796875
1688220270817,738907994,33514,3,0.853271484375,0.02459716796875,0.37518310546875
1688220270817,738907994,33514,4,0.8603515625,0.02557373046875,0.39154052734375
1688220270817,738907994,33514,5,0.850341796875,0.02508544921875,0.39666748046875
1688220270817,738907994,33514,6,0.841064453125,0.02850341796875,0.40301513671875
1688220270817,738907994,33514,7,0.839599609375,0.02728271484375,0.40155029296875
1688220270817,738907994,33514,8,0.83349609375,0.02801513671875,0.40740966796875
1688220270817,738907994,33514,9,0.83349609375,0.03387451171875,0.41375732421875
1688220270817,738907994,33514,10,0.829345703125,0.03704833984375,0.38983154296875
1688220270817,738907994,33514,11,0.831298828125,0.03753662109375,0.38299560546875
1688220270817,738907994,33514,12,0.84814453125,0.01873779296875,0.41204833984375
1688220270817,738907994,33514,13,0.84765625,0.02410888671875,0.39666748046875
1688220270817,738907994,33514,14,0.84765625,0.02679443359375,0.38446044921875
1688220270817,738907994,33514,15,0.8603515625,0.02410888671875,0.37274169921875
1688220270817,738907994,33514,16,0.854736328125,0.02215576171875,0.38958740234375
1688220270817,738907994,33514,17,0.858154296875,0.02337646484375,0.39813232421875
1688220270817,738907994,33514,18,0.83935546875,0.03070068359375,0.38812255859375
1688220270817,738907994,33514,19,0.84765625,0.02581787109375,0.40203857421875
1688220270817,738907994,33514,20,0.83544921875,0.03118896484375,0.40740966796875
1688220270817,738907994,33514,21,0.838134765625,0.03533935546875,0.40472412109375
1688220270817,738907994,33514,22,0.83251953125,0.03631591796875,0.40008544921875
1688220270817,738907994,33514,23,0.825439453125,0.04730224609375,0.36932373046875
1688220270817,738907994,33514,24,0.847412109375,0.02313232421875,0.40960693359375
1688220270817,738907994,33514,25,0.852783203125,0.02313232421875,0.39276123046875
1688220270817,738907994,33514,26,0.852783203125,0.03289794921875,0.39227294921875
1688220270817,738907994,33514,27,0.8564453125,0.02874755859375,0.37982177734375
1688220270817,738907994,33514,28,0.8583984375,0.02410888671875,0.37933349609375
1688220270817,738907994,33514,29,0.86181640625,0.02752685546875,0.39398193359375
1688220270817,738907994,33514,30,0.845947265625,0.03338623046875,0.37982177734375
1688220270817,738907994,33514,31,0.84619140625,0.02557373046875,0.39300537109375
1688220273353,738910531,33515,0,0.8427734375,0.02850341796875,0.40838623046875
1688220273353,738910531,33515,1,0.83544921875,0.03289794921875,0.40618896484375
1688220273353,738910531,33515,2,0.83837890625,0.03240966796875,0.40765380859375
1688220273353,738910531,33515,3,0.83056640625,0.03240966796875,0.39276123046875
1688220273353,738910531,33515,4,0.82568359375,0.03948974609375,0.37054443359375
1688220273353,738910531,33515,5,0.843505859375,0.02630615234375,0.40985107421875
1688220273353,738910531,33515,6,0.848876953125,0.02484130859375,0.39202880859375
1688220273353,738910531,33515,7,0.85107421875,0.02484130859375,0.39447021484375
1688220273353,738910531,33515,8,0.854248046875,0.02557373046875,0.37493896484375
1688220273353,738910531,33515,9,0.85693359375,0.02459716796875,0.37786865234375
1688220273353,738910531,33515,10,0.85302734375,0.03216552734375,0.37786865234375
1688220273353,738910531,33515,11,0.853759765625,0.02191162109375,0.40374755859375
1688220273353,738910531,33515,12,0.85009765625,0.02703857421875,0.38885498046875
1688220273353,738910531,33515,13,0.840087890625,0.02581787109375,0.40301513671875
1688220273353,738910531,33515,14,0.84033203125,0.02264404296875,0.40716552734375
1688220273353,738910531,33515,15,0.834716796875,0.03094482421875,0.39984130859375
1688220273353,738910531,33515,16,0.84326171875,0.03240966796875,0.39080810546875
1688220273353,738910531,33515,17,0.831787109375,0.04144287109375,0.36492919921875
1688220273353,738910531,33515,18,0.838623046875,0.02850341796875,0.38323974609375
1688220273353,738910531,33515,19,0.854736328125,0.01824951171875,0.40985107421875
1688220273353,738910531,33515,20,0.84716796875,0.02923583984375,0.39984130859375
1688220273353,738910531,33515,21,0.8427734375,0.02069091796875,0.39788818359375
1688220273353,738910531,33515,22,0.84716796875,0.02337646484375,0.40032958984375
1688220273353,738910531,33515,23,0.849365234375,0.00970458984375,0.42718505859375
1688220273353,738910531,33515,24,0.839599609375,0.02362060546875,0.39935302734375
1688220273353,738910531,33515,25,0.833740234375,0.02703857421875,0.40228271484375
1688220273353,738910531,33515,26,0.843505859375,0.01947021484375,0.40960693359375
1688220273353,738910531,33515,27,0.839599609375,0.02337646484375,0.41253662109375
1688220273353,738910531,33515,28,0.83251953125,0.03875732421875,0.40374755859375
1688220273353,738910531,33515,29,0.832763671875,0.04217529296875,0.38885498046875
1688220273353,738910531,33515,30,0.83056640625,0.03485107421875,0.37371826171875
1688220273353,738910531,33515,31,0.849365234375,0.01995849609375,0.41766357421875
1688220275887,738913068,33516,0,0.84033203125,0.02288818359375,0.41033935546875
1688220275887,738913068,33516,1,0.8388671875,0.01947021484375,0.41595458984375
1688220275887,738913068,33516,2,0.845947265625,0.01580810546875,0.41302490234375
1688220275887,738913068,33516,3,0.841552734375,0.02117919921875,0.40155029296875
1688220275887,738913068,33516,4,0.850830078125,0.01068115234375,0.42572021484375
1688220275887,738913068,33516,5,0.8349609375,0.03192138671875,0.40106201171875
1688220275887,738913068,33516,6,0.846435546875,0.02093505859375,0.41693115234375
1688220275887,738913068,33516,7,0.826904296875,0.02874755859375,0.39813232421875
1688220275887,738913068,33516,8,0.835693359375,0.03436279296875,0.41522216796875
1688220275887,738913068,33516,9,0.831298828125,0.03704833984375,0.39862060546875
1688220275887,738913068,33516,10,0.826171875,0.04949951171875,0.36004638671875
1688220275887,738913068,33516,11,0.848388671875,0.02386474609375,0.39300537109375
1688220275887,738913068,33516,12,0.854248046875,0.02093505859375,0.41864013671875
1688220275887,738913068,33516,13,0.842529296875,0.03118896484375,0.39544677734375
1688220275887,738913068,33516,14,0.861572265625,0.02679443359375,0.37469482421875
1688220275887,738913068,33516,15,0.8642578125,0.02728271484375,0.36639404296875
