receivedPhoneTimestamp,respeckTimestamp,packetSeqNum,sampleSeqNum,accelX,accelY,accelZ
1760019412880,77187982,538,0,0.0556640625,-1.07037353515625,0.08880615234375
1760019412880,77187982,538,1,0.050048828125,-1.08380126953125,0.10345458984375
1760019412880,77187982,538,2,0.053955078125,-1.06842041015625,0.08538818359375
1760019412880,77187982,538,3,0.050048828125,-1.05523681640625,0.10687255859375
1760019412880,77187982,538,4,0.048828125,-1.03887939453125,0.13958740234375
1760019412880,77187982,538,5,0.04638671875,-1.01641845703125,0.11907958984375
1760019412880,77187982,538,6,0.039306640625,-1.03546142578125,0.13641357421875
1760019412880,77187982,538,7,0.044189453125,-1.03082275390625,0.14862060546875
1760019412880,77187982,538,8,0.048828125,-1.05035400390625,0.16546630859375
1760019412880,77187982,538,9,0.05859375,-1.04595947265625,0.13641357421875
1760019412880,77187982,538,10,0.0537109375,-1.06817626953125,0.12689208984375
1760019412880,77187982,538,11,0.05712890625,-1.03619384765625,0.09149169921875
1760019412880,77187982,538,12,0.0693359375,-1.06231689453125,0.07244873046875
1760019412880,77187982,538,13,0.06201171875,-1.05743408203125,0.07318115234375
1760019412880,77187982,538,14,0.078125,-1.05401611328125,0.04241943359375
1760019412880,77187982,538,15,0.070068359375,-1.06011962890625,0.04510498046875
1760019412880,77187982,538,16,0.0771484375,-1.01861572265625,0.01214599609375
1760019412880,77187982,538,17,0.077392578125,-1.02935791015625,0.03143310546875
1760019412880,77187982,538,18,0.074462890625,-1.03765869140625,-0.00152587890625
1760019412880,77187982,538,19,0.075439453125,-1.01348876953125,0.05609130859375
1760019412880,77187982,538,20,0.077880859375,-0.99395751953125,0.04217529296875
1760019412880,77187982,538,21,0.072509765625,-1.06451416015625,0.06658935546875
1760019412880,77187982,538,22,0.066650390625,-1.08673095703125,0.11370849609375
1760019412880,77187982,538,23,0.051513671875,-1.04473876953125,0.09564208984375
1760019412880,77187982,538,24,0.06005859375,-1.05572509765625,0.04681396484375
1760019412880,77187982,538,25,0.04833984375,-1.06304931640625,0.06024169921875
1760019412880,77187982,538,26,0.030029296875,-1.10284423828125,0.05926513671875
1760019412880,77187982,538,27,0.04052734375,-1.07769775390625,0.05682373046875
1760019412880,77187982,538,28,0.025390625,-1.08209228515625,0.06658935546875
1760019412880,77187982,538,29,0.027099609375,-1.11822509765625,0.09539794921875
1760019412880,77187982,538,30,0.02783203125,-1.07232666015625,0.10443115234375
1760019412880,77187982,538,31,0.02587890625,-1.06036376953125,0.09979248046875
1760019415440,77190555,539,0,0.0458984375,-1.02227783203125,0.10345458984375
1760019415440,77190555,539,1,0.02490234375,-1.03424072265625,0.08343505859375
1760019415440,77190555,539,2,0.0419921875,-1.05010986328125,0.07415771484375
1760019415440,77190555,539,3,0.046875,-1.05450439453125,0.08221435546875
1760019415440,77190555,539,4,0.050048828125,-1.04254150390625,0.03948974609375
1760019415440,77190555,539,5,0.045166015625,-1.03790283203125,0.03240966796875
1760019415440,77190555,539,6,0.055419921875,-1.03912353515625,0.04559326171875
1760019415440,77190555,539,7,0.04443359375,-1.02008056640625,0.02532958984375
1760019415440,77190555,539,8,0.057373046875,-1.00982666015625,0.02459716796875
1760019415440,77190555,539,9,0.05126953125,-1.01666259765625,0.06634521484375
1760019415440,77190555,539,10,0.028564453125,-1.05889892578125,0.07196044921875
1760019415440,77190555,539,11,0.0888671875,-1.07257080078125,0.10589599609375
1760019415440,77190555,539,12,0.05712890625,-1.06719970703125,0.08294677734375
1760019415440,77190555,539,13,0.0322265625,-1.06207275390625,0.06317138671875
1760019415440,77190555,539,14,0.03125,-1.07696533203125,0.08221435546875
1760019415440,77190555,539,15,0.030029296875,-1.08135986328125,0.09100341796875
1760019415440,77190555,539,16,0.03759765625,-1.06158447265625,0.08831787109375
1760019415440,77190555,539,17,0.04541015625,-1.06573486328125,0.09368896484375
1760019415440,77190555,539,18,0.0341796875,-1.07061767578125,0.09832763671875
1760019415440,77190555,539,19,0.03857421875,-1.07647705078125,0.13372802734375
1760019415440,77190555,539,20,0.03125,-1.04888916015625,0.12982177734375
1760019415440,77190555,539,21,0.029052734375,-1.05084228515625,0.14447021484375
1760019415440,77190555,539,22,0.030029296875,-1.03131103515625,0.18743896484375
1760019415440,77190555,539,23,0.03076171875,-1.01715087890625,0.13983154296875
1760019415440,77190555,539,24,0.03271484375,-1.03228759765625,0.18280029296875
1760019415440,77190555,539,25,0.048828125,-1.02667236328125,0.15936279296875
1760019415440,77190555,539,26,0.05908203125,-1.03570556640625,0.14544677734375
1760019415440,77190555,539,27,0.0615234375,-1.03057861328125,0.13055419921875
1760019415440,77190555,539,28,0.06005859375,-1.02813720703125,0.11419677734375
1760019415440,77190555,539,29,0.064697265625,-1.01739501953125,0.10223388671875
1760019415440,77190555,539,30,0.06396484375,-1.01739501953125,0.08465576171875
1760019415440,77190555,539,31,0.054443359375,-1.00909423828125,0.12445068359375
1760019417981,77193122,540,0,0.053955078125,-1.04302978515625,0.14715576171875
1760019417981,77193122,540,1,0.06591796875,-1.04766845703125,0.09686279296875
1760019417981,77193122,540,2,0.0498046875,-1.04449462890625,0.13226318359375
1760019417981,77193122,540,3,0.047607421875,-1.04840087890625,0.09637451171875
1760019417981,77193122,540,4,0.042236328125,-1.06866455078125,0.09027099609375
1760019417981,77193122,540,5,0.045654296875,-1.06842041015625,0.08197021484375
1760019417981,77193122,540,6,0.044921875,-1.07550048828125,0.09222412109375
1760019417981,77193122,540,7,0.045166015625,-1.06988525390625,0.07000732421875
1760019417981,77193122,540,8,0.04345703125,-1.09136962890625,0.08221435546875
1760019417981,77193122,540,9,0.048828125,-1.10308837890625,0.10589599609375
1760019417981,77193122,540,10,0.0302734375,-1.06085205078125,0.08343505859375
1760019417981,77193122,540,11,0.045166015625,-1.06646728515625,0.09661865234375
1760019417981,77193122,540,12,0.054443359375,-1.02716064453125,0.09539794921875
1760019417981,77193122,540,13,0.053466796875,-1.02593994140625,0.08245849609375
1760019417981,77193122,540,14,0.044189453125,-1.05157470703125,0.08294677734375
1760019417981,77193122,540,15,0.059814453125,-1.03863525390625,0.05902099609375
1760019417981,77193122,540,16,0.06591796875,-1.04547119140625,0.05926513671875
1760019417981,77193122,540,17,0.069091796875,-1.04058837890625,0.04803466796875
1760019417981,77193122,540,18,0.072021484375,-1.02618408203125,0.04022216796875
1760019417981,77193122,540,19,0.07373046875,-1.02130126953125,-0.00592041015625
1760019417981,77193122,540,20,0.069580078125,-1.01666259765625,0.06878662109375
1760019417981,77193122,540,21,0.05908203125,-1.04498291015625,0.08074951171875
1760019417981,77193122,540,22,0.0703125,-1.04937744140625,0.04949951171875
1760019417981,77193122,540,23,0.08935546875,-1.05718994140625,0.09759521484375
1760019417981,77193122,540,24,0.0703125,-1.04669189453125,0.04022216796875
1760019417981,77193122,540,25,0.0478515625,-1.06427001953125,0.04559326171875
1760019417981,77193122,540,26,0.06884765625,-1.07843017578125,0.02410888671875
1760019417981,77193122,540,27,0.06884765625,-1.07696533203125,0.02777099609375
1760019417981,77193122,540,28,0.068115234375,-1.08428955078125,0.02410888671875
1760019417981,77193122,540,29,0.071044921875,-1.09478759765625,0.04608154296875
1760019417981,77193122,540,30,0.07568359375,-1.11431884765625,0.07781982421875
1760019417981,77193122,540,31,0.052978515625,-1.06427001953125,0.06756591796875
1760019420532,77195695,541,0,0.068603515625,-1.06060791015625,0.06634521484375
1760019420532,77195695,541,1,0.093505859375,-1.03424072265625,0.08856201171875
1760019420532,77195695,541,2,0.05322265625,-1.02423095703125,0.08392333984375
1760019420532,77195695,541,3,0.077880859375,-1.03619384765625,0.07562255859375
1760019420532,77195695,541,4,0.073486328125,-1.03765869140625,0.05364990234375
1760019420532,77195695,541,5,0.07373046875,-1.04913330078125,0.05535888671875
1760019420532,77195695,541,6,0.077880859375,-1.03887939453125,0.05047607421875
1760019420532,77195695,541,7,0.081787109375,-1.03839111328125,0.04730224609375
1760019420532,77195695,541,8,0.067626953125,-1.02911376953125,0.06854248046875
1760019420532,77195695,541,9,0.067626953125,-1.00494384765625,0.00311279296875
1760019420532,77195695,541,10,0.06494140625,-1.01495361328125,0.07904052734375
1760019420532,77195695,541,11,0.05908203125,-1.01495361328125,0.05975341796875
1760019420532,77195695,541,12,0.085205078125,-1.09576416015625,0.11761474609375
1760019420532,77195695,541,13,0.0693359375,-1.06231689453125,0.04754638671875
1760019420532,77195695,541,14,0.08935546875,-1.05303955078125,0.02362060546875
1760019420532,77195695,541,15,0.08056640625,-1.07183837890625,0.02069091796875
1760019420532,77195695,541,16,0.07861328125,-1.07940673828125,0.02752685546875
1760019420532,77195695,541,17,0.08642578125,-1.07989501953125,0.02899169921875
1760019420532,77195695,541,18,0.094482421875,-1.09527587890625,0.03900146484375
1760019420532,77195695,541,19,0.100341796875,-1.08648681640625,0.04583740234375
1760019420532,77195695,541,20,0.073486328125,-1.08721923828125,0.08074951171875
1760019420532,77195695,541,21,0.080078125,-1.05621337890625,0.05755615234375
1760019420532,77195695,541,22,0.084228515625,-1.02593994140625,0.07464599609375
1760019420532,77195695,541,23,0.056396484375,-1.03643798828125,0.07391357421875
1760019420532,77195695,541,24,0.0693359375,-1.02569580078125,0.09173583984375
1760019420532,77195695,541,25,0.0546875,-1.03912353515625,0.12078857421875
1760019420532,77195695,541,26,0.065673828125,-1.04132080078125,0.08514404296875
1760019420532,77195695,541,27,0.063720703125,-1.04400634765625,0.08660888671875
1760019420532,77195695,541,28,0.06689453125,-1.03790283203125,0.06536865234375
1760019420532,77195695,541,29,0.07421875,-1.02935791015625,0.06683349609375
1760019420532,77195695,541,30,0.068115234375,-1.04962158203125,0.04461669921875
1760019420532,77195695,541,31,0.080078125,-1.02471923828125,0.02581787109375
1760019423079,77198268,542,0,0.07568359375,-1.03155517578125,0.08074951171875
1760019423079,77198268,542,1,0.083740234375,-1.02618408203125,0.08367919921875
1760019423079,77198268,542,2,0.0927734375,-1.03302001953125,0.05072021484375
1760019423079,77198268,542,3,0.082275390625,-1.05157470703125,0.07342529296875
1760019423079,77198268,542,4,0.07177734375,-1.07476806640625,0.05804443359375
1760019423079,77198268,542,5,0.091552734375,-1.06060791015625,0.03851318359375
1760019423079,77198268,542,6,0.096923828125,-1.07379150390625,0.03704833984375
1760019423079,77198268,542,7,0.08984375,-1.07916259765625,0.03533935546875
1760019423079,77198268,542,8,0.091796875,-1.07598876953125,0.04754638671875
1760019423079,77198268,542,9,0.091552734375,-1.06988525390625,0.04095458984375
1760019423079,77198268,542,10,0.07958984375,-1.10064697265625,0.09735107421875
1760019423079,77198268,542,11,0.07568359375,-1.07769775390625,0.04364013671875
1760019423079,77198268,542,12,0.069580078125,-1.04449462890625,0.06488037109375
1760019423079,77198268,542,13,0.087158203125,-1.05035400390625,0.07928466796875
1760019423079,77198268,542,14,0.070068359375,-1.01788330078125,0.05926513671875
1760019423079,77198268,542,15,0.084228515625,-1.03009033203125,0.08807373046875
1760019423079,77198268,542,16,0.079833984375,-1.04571533203125,0.07464599609375
1760019423079,77198268,542,17,0.07275390625,-1.03399658203125,0.07293701171875
1760019423079,77198268,542,18,0.076416015625,-1.04010009765625,0.06683349609375
1760019423079,77198268,542,19,0.080810546875,-1.03106689453125,0.04388427734375
1760019423079,77198268,542,20,0.083251953125,-1.04034423828125,0.01849365234375
1760019423079,77198268,542,21,0.07861328125,-1.02056884765625,0.05975341796875
1760019423079,77198268,542,22,0.08544921875,-1.02691650390625,0.06365966796875
1760019423079,77198268,542,23,0.0673828125,-1.04498291015625,0.11737060546875
1760019423079,77198268,542,24,0.093017578125,-1.05474853515625,0.09686279296875
1760019423079,77198268,542,25,0.065673828125,-1.03985595703125,0.08074951171875
1760019423079,77198268,542,26,0.062744140625,-1.06280517578125,0.08685302734375
1760019423079,77198268,542,27,0.065185546875,-1.06817626953125,0.08074951171875
1760019423079,77198268,542,28,0.0712890625,-1.06329345703125,0.07659912109375
1760019423079,77198268,542,29,0.073974609375,-1.07281494140625,0.07586669921875
1760019423079,77198268,542,30,0.072021484375,-1.07647705078125,0.08319091796875
1760019423079,77198268,542,31,0.065673828125,-1.08087158203125,0.10980224609375
1760019425628,77200841,543,0,0.066650390625,-1.06158447265625,0.07708740234375
1760019425628,77200841,543,1,0.062744140625,-1.04913330078125,0.09735107421875
1760019425628,77200841,543,2,0.065673828125,-1.03985595703125,0.11346435546875
1760019425628,77200841,543,3,0.063720703125,-1.03106689453125,0.09100341796875
1760019425628,77200841,543,4,0.059814453125,-1.04449462890625,0.11175537109375
1760019425628,77200841,543,5,0.065673828125,-1.03277587890625,0.09197998046875
1760019425628,77200841,543,6,0.0625,-1.05059814453125,0.08880615234375
1760019425628,77200841,543,7,0.06494140625,-1.03668212890625,0.06707763671875
1760019425628,77200841,543,8,0.073974609375,-1.03912353515625,0.06781005859375
1760019425628,77200841,543,9,0.072265625,-1.04107666015625,0.05804443359375
1760019425628,77200841,543,10,0.064453125,-1.02740478515625,0.08660888671875
1760019425628,77200841,543,11,0.06298828125,-1.03375244140625,0.12322998046875
1760019425628,77200841,543,12,0.07080078125,-1.03668212890625,0.09588623046875
1760019425628,77200841,543,13,0.06884765625,-1.04107666015625,0.10516357421875
1760019425628,77200841,543,14,0.057373046875,-1.03472900390625,0.13494873046875
1760019425628,77200841,543,15,0.062255859375,-1.03253173828125,0.12811279296875
1760019425628,77200841,543,16,0.0546875,-1.05816650390625,0.13299560546875
1760019425628,77200841,543,17,0.05859375,-1.05499267578125,0.12225341796875
1760019425628,77200841,543,18,0.0712890625,-1.05352783203125,0.11273193359375
1760019425628,77200841,543,19,0.067138671875,-1.05841064453125,0.12445068359375
1760019425628,77200841,543,20,0.064453125,-1.08282470703125,0.13079833984375
1760019425628,77200841,543,21,0.04736328125,-1.06671142578125,0.15423583984375
1760019425628,77200841,543,22,0.06689453125,-1.03399658203125,0.10443115234375
1760019425628,77200841,543,23,0.06298828125,-1.04010009765625,0.14324951171875
1760019425628,77200841,543,24,0.069580078125,-1.02862548828125,0.13348388671875
1760019425628,77200841,543,25,0.068115234375,-1.03277587890625,0.15911865234375
1760019425628,77200841,543,26,0.0634765625,-1.03790283203125,0.12371826171875
1760019425628,77200841,543,27,0.074462890625,-1.03717041015625,0.12786865234375
1760019425628,77200841,543,28,0.083984375,-1.02886962890625,0.12054443359375
1760019425628,77200841,543,29,0.0849609375,-1.02618408203125,0.11224365234375
1760019425628,77200841,543,30,0.075439453125,-1.03179931640625,0.09027099609375
1760019425628,77200841,543,31,0.080078125,-1.02081298828125,0.09442138671875
1760019428327,77203415,544,0,0.081298828125,-1.02691650390625,0.12713623046875
1760019428327,77203415,544,1,0.073486328125,-1.02618408203125,0.12371826171875
1760019428327,77203415,544,2,0.07421875,-1.04547119140625,0.14080810546875
1760019428327,77203415,544,3,0.0771484375,-1.03961181640625,0.10809326171875
1760019428327,77203415,544,4,0.079833984375,-1.04644775390625,0.12640380859375
1760019428327,77203415,544,5,0.0830078125,-1.05181884765625,0.09075927734375
1760019428327,77203415,544,6,0.0791015625,-1.05792236328125,0.09832763671875
1760019428327,77203415,544,7,0.07958984375,-1.05743408203125,0.08734130859375
1760019428327,77203415,544,8,0.083740234375,-1.06231689453125,0.09368896484375
1760019428327,77203415,544,9,0.0908203125,-1.05523681640625,0.08319091796875
1760019428327,77203415,544,10,0.08447265625,-1.06085205078125,0.10003662109375
1760019428327,77203415,544,11,0.0751953125,-1.07354736328125,0.11517333984375
1760019428327,77203415,544,12,0.074951171875,-1.04913330078125,0.09759521484375
1760019428327,77203415,544,13,0.06982421875,-1.05133056640625,0.09906005859375
1760019428327,77203415,544,14,0.08154296875,-1.05474853515625,0.10614013671875
1760019428327,77203415,544,15,0.063720703125,-1.02691650390625,0.13006591796875
1760019428327,77203415,544,16,0.06640625,-1.03228759765625,0.13763427734375
1760019428327,77203415,544,17,0.069091796875,-1.03424072265625,0.12591552734375
1760019428327,77203415,544,18,0.069580078125,-1.03570556640625,0.12640380859375
1760019428327,77203415,544,19,0.072509765625,-1.02520751953125,0.12689208984375
1760019428327,77203415,544,20,0.067138671875,-1.03009033203125,0.11297607421875
1760019428327,77203415,544,21,0.065185546875,-1.02960205078125,0.09417724609375
1760019428327,77203415,544,22,0.068603515625,-1.02960205078125,0.11395263671875
1760019428327,77203415,544,23,0.070068359375,-1.02935791015625,0.13397216796875
1760019428327,77203415,544,24,0.072021484375,-1.02593994140625,0.14105224609375
1760019428327,77203415,544,25,0.06884765625,-1.04156494140625,0.13519287109375
1760019428327,77203415,544,26,0.067626953125,-1.03253173828125,0.11297607421875
1760019428327,77203415,544,27,0.071533203125,-1.04547119140625,0.11444091796875
1760019428327,77203415,544,28,0.07373046875,-1.05157470703125,0.08856201171875
1760019428327,77203415,544,29,0.077880859375,-1.05841064453125,0.07537841796875
1760019428327,77203415,544,30,0.076904296875,-1.05816650390625,0.08221435546875
1760019428327,77203415,544,31,0.08447265625,-1.06304931640625,0.06536865234375
1760019430878,77205988,545,0,0.087890625,-1.06768798828125,0.06488037109375
1760019430878,77205988,545,1,0.087890625,-1.06060791015625,0.06365966796875
1760019430878,77205988,545,2,0.089111328125,-1.06402587890625,0.07098388671875
1760019430878,77205988,545,3,0.07861328125,-1.05279541015625,0.07489013671875
1760019430878,77205988,545,4,0.084716796875,-1.05255126953125,0.06463623046875
1760019430878,77205988,545,5,0.078125,-1.05987548828125,0.08856201171875
1760019430878,77205988,545,6,0.0849609375,-1.04498291015625,0.08441162109375
1760019430878,77205988,545,7,0.077392578125,-1.05450439453125,0.08514404296875
1760019430878,77205988,545,8,0.08837890625,-1.04669189453125,0.09637451171875
1760019430878,77205988,545,9,0.073974609375,-1.04302978515625,0.09906005859375
1760019430878,77205988,545,10,0.073974609375,-1.04229736328125,0.10809326171875
1760019430878,77205988,545,11,0.08984375,-1.02691650390625,0.09588623046875
1760019430878,77205988,545,12,0.080810546875,-1.03472900390625,0.09051513671875
1760019430878,77205988,545,13,0.082763671875,-1.03131103515625,0.09735107421875
1760019430878,77205988,545,14,0.082763671875,-1.03424072265625,0.08612060546875
1760019430878,77205988,545,15,0.08740234375,-1.03106689453125,0.07562255859375
1760019430878,77205988,545,16,0.087890625,-1.02764892578125,0.10589599609375
1760019430878,77205988,545,17,0.08447265625,-1.02667236328125,0.10101318359375
1760019430878,77205988,545,18,0.07421875,-1.03887939453125,0.09783935546875
1760019430878,77205988,545,19,0.0791015625,-1.05059814453125,0.09539794921875
1760019430878,77205988,545,20,0.09033203125,-1.04840087890625,0.07147216796875
1760019430878,77205988,545,21,0.07421875,-1.05206298828125,0.05340576171875
1760019430878,77205988,545,22,0.08056640625,-1.05548095703125,0.05999755859375
1760019430878,77205988,545,23,0.07666015625,-1.05523681640625,0.03045654296875
1760019430878,77205988,545,24,0.078857421875,-1.07135009765625,0.02362060546875
1760019430878,77205988,545,25,0.085693359375,-1.07623291015625,0.02777099609375
1760019430878,77205988,545,26,0.07958984375,-1.08428955078125,0.03411865234375
1760019430878,77205988,545,27,0.08154296875,-1.10626220703125,0.05926513671875
1760019430878,77205988,545,28,0.074462890625,-1.06866455078125,0.04266357421875
1760019430878,77205988,545,29,0.058837890625,-1.05328369140625,0.04290771484375
1760019430878,77205988,545,30,0.07177734375,-1.05963134765625,0.07415771484375
1760019430878,77205988,545,31,0.083251953125,-1.04205322265625,0.08465576171875
1760019433429,77208561,546,0,0.072265625,-1.03009033203125,0.08221435546875
1760019433429,77208561,546,1,0.07177734375,-1.02838134765625,0.10052490234375
1760019433429,77208561,546,2,0.079833984375,-1.03424072265625,0.09295654296875
1760019433429,77208561,546,3,0.074462890625,-1.03277587890625,0.08636474609375
1760019433429,77208561,546,4,0.07275390625,-1.02789306640625,0.07611083984375
1760019433429,77208561,546,5,0.07373046875,-1.03985595703125,0.08123779296875
1760019433429,77208561,546,6,0.07470703125,-1.03570556640625,0.08758544921875
1760019433429,77208561,546,7,0.07275390625,-1.01861572265625,0.10540771484375
1760019433429,77208561,546,8,0.067626953125,-1.01373291015625,0.08807373046875
1760019433429,77208561,546,9,0.06884765625,-1.05133056640625,0.09906005859375
1760019433429,77208561,546,10,0.066162109375,-1.05743408203125,0.07952880859375
1760019433429,77208561,546,11,0.065185546875,-1.05157470703125,0.08197021484375
1760019433429,77208561,546,12,0.060546875,-1.05035400390625,0.04974365234375
1760019433429,77208561,546,13,0.075439453125,-1.06231689453125,0.03045654296875
1760019433429,77208561,546,14,0.083984375,-1.06866455078125,0.02435302734375
1760019433429,77208561,546,15,0.087158203125,-1.07354736328125,0.01556396484375
1760019433429,77208561,546,16,0.083251953125,-1.07720947265625,0.01116943359375
1760019433429,77208561,546,17,0.08642578125,-1.08038330078125,0.01409912109375
1760019433429,77208561,546,18,0.07861328125,-1.08282470703125,0.04193115234375
1760019433429,77208561,546,19,0.078125,-1.06988525390625,0.04339599609375
1760019433429,77208561,546,20,0.060546875,-1.05670166015625,0.04266357421875
1760019433429,77208561,546,21,0.054931640625,-1.05938720703125,0.07562255859375
1760019433429,77208561,546,22,0.04931640625,-1.05718994140625,0.08294677734375
1760019433429,77208561,546,23,0.052490234375,-1.04864501953125,0.10540771484375
1760019433429,77208561,546,24,0.0615234375,-1.03302001953125,0.10125732421875
1760019433429,77208561,546,25,0.052001953125,-1.03863525390625,0.13446044921875
1760019433429,77208561,546,26,0.04443359375,-1.01885986328125,0.10198974609375
1760019433429,77208561,546,27,0.051513671875,-1.02642822265625,0.10223388671875
1760019433429,77208561,546,28,0.0517578125,-1.03033447265625,0.09906005859375
1760019433429,77208561,546,29,0.058349609375,-1.02984619140625,0.09295654296875
1760019433429,77208561,546,30,0.047119140625,-1.01934814453125,0.11224365234375
1760019433429,77208561,546,31,0.040283203125,-1.01861572265625,0.09002685546875
1760019435981,77211134,547,0,0.055419921875,-1.07232666015625,0.10247802734375
1760019435981,77211134,547,1,0.0439453125,-1.05792236328125,0.05828857421875
1760019435981,77211134,547,2,0.05078125,-1.05181884765625,0.05462646484375
1760019435981,77211134,547,3,0.054443359375,-1.05987548828125,0.01019287109375
1760019435981,77211134,547,4,0.058349609375,-1.07476806640625,0.01947021484375
1760019435981,77211134,547,5,0.057861328125,-1.07257080078125,-0.00079345703125
1760019435981,77211134,547,6,0.053466796875,-1.07745361328125,-0.00274658203125
1760019435981,77211134,547,7,0.06982421875,-1.08746337890625,-6.103515625e-05
1760019435981,77211134,547,8,0.068603515625,-1.07989501953125,0.01605224609375
1760019435981,77211134,547,9,0.061767578125,-1.09625244140625,0.04046630859375
1760019435981,77211134,547,10,0.0625,-1.06842041015625,0.02923583984375
1760019435981,77211134,547,11,0.043701171875,-1.05230712890625,0.05145263671875
1760019435981,77211134,547,12,0.041015625,-1.05157470703125,0.06707763671875
1760019435981,77211134,547,13,0.049560546875,-1.05084228515625,0.07513427734375
1760019435981,77211134,547,14,0.04931640625,-1.04718017578125,0.09564208984375
1760019435981,77211134,547,15,0.05419921875,-1.03985595703125,0.09539794921875
1760019435981,77211134,547,16,0.046142578125,-1.04083251953125,0.10467529296875
1760019435981,77211134,547,17,0.0537109375,-1.04010009765625,0.09295654296875
1760019435981,77211134,547,18,0.06298828125,-1.02886962890625,0.07952880859375
1760019435981,77211134,547,19,0.05908203125,-1.03668212890625,0.07830810546875
1760019435981,77211134,547,20,0.05322265625,-1.03375244140625,0.08270263671875
1760019435981,77211134,547,21,0.05615234375,-1.03082275390625,0.08319091796875
1760019435981,77211134,547,22,0.0546875,-1.02301025390625,0.12445068359375
1760019435981,77211134,547,23,0.05224609375,-1.05133056640625,0.11663818359375
1760019435981,77211134,547,24,0.0556640625,-1.04669189453125,0.09906005859375
1760019435981,77211134,547,25,0.03466796875,-1.04498291015625,0.11102294921875
1760019435981,77211134,547,26,0.04248046875,-1.05133056640625,0.07489013671875
1760019435981,77211134,547,27,0.0341796875,-1.04962158203125,0.07073974609375
1760019435981,77211134,547,28,0.04736328125,-1.05865478515625,0.04632568359375
1760019435981,77211134,547,29,0.037353515625,-1.06964111328125,0.06072998046875
1760019435981,77211134,547,30,0.049560546875,-1.08355712890625,0.03704833984375
1760019435981,77211134,547,31,0.04931640625,-1.08526611328125,0.04022216796875
1760019438530,77213707,548,0,0.047607421875,-1.08526611328125,0.04998779296875
1760019438530,77213707,548,1,0.051513671875,-1.08282470703125,0.04827880859375
1760019438530,77213707,548,2,0.0458984375,-1.06964111328125,0.04193115234375
1760019438530,77213707,548,3,0.0419921875,-1.06378173828125,0.05072021484375
1760019438530,77213707,548,4,0.04296875,-1.06353759765625,0.07489013671875
1760019438530,77213707,548,5,0.0517578125,-1.04669189453125,0.06341552734375
1760019438530,77213707,548,6,0.0546875,-1.04571533203125,0.08123779296875
1760019438530,77213707,548,7,0.045654296875,-1.03399658203125,0.07977294921875
1760019438530,77213707,548,8,0.053466796875,-1.04034423828125,0.07806396484375
1760019438530,77213707,548,9,0.0595703125,-1.03179931640625,0.07757568359375
1760019438530,77213707,548,10,0.062255859375,-1.03741455078125,0.05926513671875
1760019438530,77213707,548,11,0.055908203125,-1.03424072265625,0.04901123046875
1760019438530,77213707,548,12,0.059814453125,-1.03009033203125,0.09271240234375
1760019438530,77213707,548,13,0.057373046875,-1.03765869140625,0.08905029296875
1760019438530,77213707,548,14,0.060791015625,-1.05279541015625,0.10662841796875
1760019438530,77213707,548,15,0.05078125,-1.05621337890625,0.10589599609375
1760019438530,77213707,548,16,0.038818359375,-1.05670166015625,0.08538818359375
1760019438530,77213707,548,17,0.048828125,-1.05621337890625,0.07830810546875
1760019438530,77213707,548,18,0.04150390625,-1.05206298828125,0.08709716796875
1760019438530,77213707,548,19,0.041748046875,-1.03985595703125,0.05755615234375
1760019438530,77213707,548,20,0.045166015625,-1.05914306640625,0.06976318359375
1760019438530,77213707,548,21,0.04443359375,-1.06256103515625,0.06536865234375
1760019438530,77213707,548,22,0.041259765625,-1.08038330078125,0.06903076171875
1760019438530,77213707,548,23,0.03955078125,-1.08551025390625,0.07415771484375
1760019438530,77213707,548,24,0.044677734375,-1.08209228515625,0.06439208984375
1760019438530,77213707,548,25,0.0322265625,-1.06109619140625,0.07977294921875
1760019438530,77213707,548,26,0.036865234375,-1.06304931640625,0.07562255859375
1760019438530,77213707,548,27,0.044921875,-1.03057861328125,0.12445068359375
1760019438530,77213707,548,28,0.053955078125,-1.03546142578125,0.08587646484375
1760019438530,77213707,548,29,0.052490234375,-1.03863525390625,0.09075927734375
1760019438530,77213707,548,30,0.052490234375,-1.03863525390625,0.07464599609375
1760019438530,77213707,548,31,0.058349609375,-1.04010009765625,0.07269287109375
1760019441076,77216280,549,0,0.05517578125,-1.03302001953125,0.06756591796875
1760019441076,77216280,549,1,0.06103515625,-1.02862548828125,0.05413818359375
1760019441076,77216280,549,2,0.061767578125,-1.02862548828125,0.08856201171875
1760019441076,77216280,549,3,0.055419921875,-1.03570556640625,0.09075927734375
1760019441076,77216280,549,4,0.05810546875,-1.04107666015625,0.09710693359375
1760019441076,77216280,549,5,0.04541015625,-1.06231689453125,0.08270263671875
1760019441076,77216280,549,6,0.033203125,-1.05230712890625,0.05828857421875
1760019441076,77216280,549,7,0.044189453125,-1.04840087890625,0.03509521484375
1760019441076,77216280,549,8,0.046630859375,-1.06353759765625,0.03387451171875
1760019441076,77216280,549,9,0.05712890625,-1.08160400390625,0.05413818359375
1760019441076,77216280,549,10,0.06787109375,-1.08013916015625,0.02362060546875
1760019441076,77216280,549,11,0.065185546875,-1.09014892578125,0.04193115234375
1760019441076,77216280,549,12,0.0634765625,-1.09478759765625,0.04779052734375
1760019441076,77216280,549,13,0.05810546875,-1.07305908203125,0.04730224609375
1760019441076,77216280,549,14,0.052001953125,-1.05548095703125,0.03607177734375
1760019441076,77216280,549,15,0.052978515625,-1.05963134765625,0.09588623046875
1760019441076,77216280,549,16,0.06591796875,-1.03887939453125,0.06439208984375
1760019441076,77216280,549,17,0.059814453125,-1.03448486328125,0.10638427734375
1760019441076,77216280,549,18,0.05712890625,-1.02691650390625,0.10272216796875
1760019441076,77216280,549,19,0.049072265625,-1.03082275390625,0.09832763671875
1760019441076,77216280,549,20,0.062744140625,-1.02764892578125,0.10028076171875
1760019441076,77216280,549,21,0.053955078125,-1.03228759765625,0.09100341796875
1760019441076,77216280,549,22,0.052490234375,-1.02301025390625,0.06805419921875
1760019441076,77216280,549,23,0.05322265625,-1.00543212890625,0.11151123046875
1760019441076,77216280,549,24,0.042724609375,-1.02423095703125,0.11224365234375
1760019441076,77216280,549,25,0.052978515625,-1.05426025390625,0.10882568359375
1760019441076,77216280,549,26,0.03662109375,-1.04473876953125,0.09002685546875
1760019441076,77216280,549,27,0.046875,-1.06085205078125,0.07049560546875
1760019441076,77216280,549,28,0.058837890625,-1.06866455078125,0.04193115234375
1760019441076,77216280,549,29,0.063720703125,-1.07720947265625,0.05633544921875
1760019441076,77216280,549,30,0.080078125,-1.08233642578125,0.04119873046875
1760019441076,77216280,549,31,0.079833984375,-1.07354736328125,0.03070068359375
