receivedPhoneTimestamp,respeckTimestamp,packetSeqNum,sampleSeqNum,accelX,accelY,accelZ
1760201934966,1404587358,17746,0,0.05712890625,-1.08038330078125,-0.03448486328125
1760201934966,1404587358,17746,1,0.009765625,-1.02520751953125,0.01312255859375
1760201934966,1404587358,17746,2,0.000732421875,-0.99224853515625,0.04998779296875
1760201934966,1404587358,17746,3,0.0224609375,-1.02105712890625,0.08441162109375
1760201934966,1404587358,17746,4,-0.008544921875,-1.02032470703125,0.14617919921875
1760201934966,1404587358,17746,5,0.00732421875,-0.97125244140625,0.12176513671875
1760201934966,1404587358,17746,6,0.024658203125,-0.97760009765625,0.14178466796875
1760201934966,1404587358,17746,7,-0.0009765625,-0.98736572265625,0.11737060546875
1760201934966,1404587358,17746,8,0.000732421875,-0.95806884765625,0.10565185546875
1760201934966,1404587358,17746,9,0.006103515625,-0.92462158203125,0.05926513671875
1760201934966,1404587358,17746,10,-0.007568359375,-0.92657470703125,0.06805419921875
1760201934966,1404587358,17746,11,0.027099609375,-1.07305908203125,-0.02154541015625
1760201934966,1404587358,17746,12,0.017333984375,-1.00909423828125,0.03436279296875
1760201934966,1404587358,17746,13,-0.0068359375,-1.01104736328125,0.05487060546875
1760201934966,1404587358,17746,14,0.01220703125,-1.03741455078125,0.04803466796875
1760201934966,1404587358,17746,15,-0.009521484375,-0.98248291015625,0.07708740234375
1760201934966,1404587358,17746,16,0.0029296875,-1.01373291015625,0.05120849609375
1760201934966,1404587358,17746,17,0.007568359375,-0.97076416015625,0.14178466796875
1760201934966,1404587358,17746,18,-0.0146484375,-0.97808837890625,0.16497802734375
1760201934966,1404587358,17746,19,-0.013671875,-0.94635009765625,0.11737060546875
1760201934966,1404587358,17746,20,-0.01171875,-0.90240478515625,0.06781005859375
1760201934966,1404587358,17746,21,-0.013671875,-0.94146728515625,0.09954833984375
1760201934966,1404587358,17746,22,0.055908203125,-1.09429931640625,-0.06964111328125
1760201934966,1404587358,17746,23,-0.001953125,-0.99420166015625,0.01019287109375
1760201934966,1404587358,17746,24,0.01220703125,-1.03179931640625,0.00799560546875
1760201934966,1404587358,17746,25,0.007080078125,-1.02618408203125,0.03045654296875
1760201934966,1404587358,17746,26,-0.021484375,-0.99346923828125,0.10760498046875
1760201934966,1404587358,17746,27,0.005859375,-0.97711181640625,0.08587646484375
1760201934966,1404587358,17746,28,0.0048828125,-0.98199462890625,0.15545654296875
1760201934966,1404587358,17746,29,-0.0126953125,-0.98468017578125,0.14031982421875
1760201934966,1404587358,17746,30,0.009765625,-0.96392822265625,0.11077880859375
1760201934966,1404587358,17746,31,-0.017333984375,-0.88800048828125,0.06878662109375
1760201937486,1404589932,17747,0,-0.007080078125,-0.91143798828125,0.06146240234375
1760201937486,1404589932,17747,1,0.081787109375,-1.14263916015625,-0.10821533203125
1760201937486,1404589932,17747,2,0.025390625,-0.99078369140625,0.03070068359375
1760201937486,1404589932,17747,3,0.01123046875,-1.02667236328125,0.02947998046875
1760201937486,1404589932,17747,4,-0.003173828125,-1.03302001953125,0.04534912109375
1760201937486,1404589932,17747,5,-0.005126953125,-1.01422119140625,0.03387451171875
1760201937486,1404589932,17747,6,0.003173828125,-1.00299072265625,0.08123779296875
1760201937486,1404589932,17747,7,-0.01220703125,-0.96368408203125,0.09100341796875
1760201937486,1404589932,17747,8,-0.02685546875,-0.99517822265625,0.12469482421875
1760201937486,1404589932,17747,9,-0.01220703125,-0.96685791015625,0.08074951171875
1760201937486,1404589932,17747,10,-0.016845703125,-0.90533447265625,0.07171630859375
1760201937486,1404589932,17747,11,-0.010009765625,-0.92803955078125,0.03192138671875
1760201937486,1404589932,17747,12,0.029541015625,-1.09722900390625,-0.05938720703125
1760201937486,1404589932,17747,13,0.03125,-1.01153564453125,-0.01568603515625
1760201937486,1404589932,17747,14,-0.03125,-1.01959228515625,0.03826904296875
1760201937486,1404589932,17747,15,-0.043212890625,-1.03643798828125,0.05950927734375
1760201937486,1404589932,17747,16,-0.019775390625,-0.99517822265625,0.06781005859375
1760201937486,1404589932,17747,17,-0.052978515625,-0.99566650390625,0.10369873046875
1760201937486,1404589932,17747,18,-0.04736328125,-0.96002197265625,0.12738037109375
1760201937486,1404589932,17747,19,-0.025146484375,-0.98516845703125,0.09344482421875
1760201937486,1404589932,17747,20,-0.021240234375,-0.95074462890625,0.06219482421875
1760201937486,1404589932,17747,21,-0.0283203125,-0.90679931640625,0.06829833984375
1760201937486,1404589932,17747,22,-0.0107421875,-0.96612548828125,0.02606201171875
1760201937486,1404589932,17747,23,0.036865234375,-1.07183837890625,-0.05914306640625
1760201937486,1404589932,17747,24,-0.01171875,-0.98492431640625,0.05218505859375
1760201937486,1404589932,17747,25,-0.031982421875,-1.03814697265625,0.03826904296875
1760201937486,1404589932,17747,26,0.0126953125,-1.03424072265625,0.04974365234375
1760201937486,1404589932,17747,27,-0.02197265625,-0.98809814453125,0.04632568359375
1760201937486,1404589932,17747,28,-0.040771484375,-0.99591064453125,0.09271240234375
1760201937486,1404589932,17747,29,-0.025390625,-0.97613525390625,0.12982177734375
1760201937486,1404589932,17747,30,-0.01708984375,-0.99835205078125,0.11810302734375
1760201937486,1404589932,17747,31,-0.01513671875,-0.98223876953125,0.09686279296875
1760201940007,1404592505,17748,0,-0.025146484375,-0.93389892578125,0.05194091796875
1760201940007,1404592505,17748,1,-0.023681640625,-0.90704345703125,0.06488037109375
1760201940007,1404592505,17748,2,0.0224609375,-1.02593994140625,-0.05474853515625
1760201940007,1404592505,17748,3,0.010498046875,-1.05328369140625,0.00946044921875
1760201940007,1404592505,17748,4,-0.0107421875,-0.98687744140625,0.02947998046875
1760201940007,1404592505,17748,5,-0.02001953125,-1.04327392578125,0.02508544921875
1760201940007,1404592505,17748,6,0.03125,-1.03863525390625,0.01580810546875
1760201940007,1404592505,17748,7,-0.025146484375,-0.99078369140625,0.00360107421875
1760201940007,1404592505,17748,8,-0.052978515625,-0.99395751953125,0.07000732421875
1760201940007,1404592505,17748,9,-0.040283203125,-0.96612548828125,0.10516357421875
1760201940007,1404592505,17748,10,-0.0302734375,-0.99810791015625,0.05804443359375
1760201940007,1404592505,17748,11,-0.014892578125,-0.96636962890625,0.02630615234375
1760201940007,1404592505,17748,12,-0.00830078125,-0.94488525390625,0.04852294921875
1760201940007,1404592505,17748,13,0.010986328125,-0.97174072265625,0.01165771484375
1760201940007,1404592505,17748,14,0.027587890625,-1.06280517578125,-0.04718017578125
1760201940007,1404592505,17748,15,0.0029296875,-0.99664306640625,0.01995849609375
1760201940007,1404592505,17748,16,-0.01611328125,-1.02911376953125,0.02117919921875
1760201940007,1404592505,17748,17,0.001953125,-1.02593994140625,0.02435302734375
1760201940007,1404592505,17748,18,-0.021484375,-1.01593017578125,0.04241943359375
1760201940007,1404592505,17748,19,-0.01953125,-0.97027587890625,0.08489990234375
1760201940007,1404592505,17748,20,-0.001220703125,-0.99298095703125,0.10662841796875
1760201940007,1404592505,17748,21,-0.0361328125,-0.97198486328125,0.12884521484375
1760201940007,1404592505,17748,22,-0.012451171875,-0.95977783203125,0.07391357421875
1760201940007,1404592505,17748,23,0.02001953125,-0.95977783203125,0.05804443359375
1760201940007,1404592505,17748,24,-0.021484375,-0.90704345703125,0.08197021484375
1760201940007,1404592505,17748,25,0.01171875,-1.05523681640625,0.01629638671875
1760201940007,1404592505,17748,26,0.024658203125,-1.03204345703125,-0.00811767578125
1760201940007,1404592505,17748,27,-0.0009765625,-0.99395751953125,0.02996826171875
1760201940007,1404592505,17748,28,0.011474609375,-1.05816650390625,-0.00201416015625
1760201940007,1404592505,17748,29,-0.035888671875,-1.00738525390625,0.09466552734375
1760201940007,1404592505,17748,30,-0.00634765625,-0.96319580078125,0.09759521484375
1760201940007,1404592505,17748,31,-0.02734375,-0.96685791015625,0.11322021484375
1760201942707,1404595078,17749,0,-0.004150390625,-0.99395751953125,0.08367919921875
1760201942707,1404595078,17749,1,-0.005859375,-0.96343994140625,0.06243896484375
1760201942707,1404595078,17749,2,0.002197265625,-0.95953369140625,0.04364013671875
1760201942707,1404595078,17749,3,0.0048828125,-0.96026611328125,0.04437255859375
1760201942707,1404595078,17749,4,-0.002685546875,-1.02764892578125,-0.00079345703125
1760201942707,1404595078,17749,5,0.018310546875,-1.01568603515625,0.01800537109375
1760201942707,1404595078,17749,6,-0.004150390625,-1.00958251953125,0.01092529296875
1760201942707,1404595078,17749,7,0.003662109375,-1.03131103515625,0.01214599609375
1760201942707,1404595078,17749,8,-0.00439453125,-1.02398681640625,0.02044677734375
1760201942707,1404595078,17749,9,-0.00390625,-1.00079345703125,0.03997802734375
1760201942707,1404595078,17749,10,-0.028564453125,-0.95684814453125,0.13836669921875
1760201942707,1404595078,17749,11,-0.02783203125,-0.98297119140625,0.07611083984375
1760201942707,1404595078,17749,12,-0.02490234375,-0.98126220703125,0.06781005859375
1760201942707,1404595078,17749,13,0.001220703125,-0.95635986328125,0.01605224609375
1760201942707,1404595078,17749,14,-0.002197265625,-0.94366455078125,0.03900146484375
1760201942707,1404595078,17749,15,-0.00390625,-1.02667236328125,0.00921630859375
1760201942707,1404595078,17749,16,0.021240234375,-1.04547119140625,-0.02740478515625
1760201942707,1404595078,17749,17,-0.015625,-0.99127197265625,0.02337646484375
1760201942707,1404595078,17749,18,0.0029296875,-1.03570556640625,-0.00640869140625
1760201942707,1404595078,17749,19,-0.003173828125,-1.01983642578125,0.02239990234375
1760201942707,1404595078,17749,20,-0.017333984375,-0.98443603515625,0.03289794921875
1760201942707,1404595078,17749,21,-0.012939453125,-0.99371337890625,0.06072998046875
1760201942707,1404595078,17749,22,-0.013916015625,-1.00396728515625,0.08905029296875
1760201942707,1404595078,17749,23,-0.013427734375,-1.00054931640625,0.05023193359375
1760201942707,1404595078,17749,24,-0.000732421875,-0.94952392578125,0.01409912109375
1760201942707,1404595078,17749,25,0.00341796875,-0.94610595703125,0.01190185546875
1760201942707,1404595078,17749,26,-0.0107421875,-0.95245361328125,0.00238037109375
1760201942707,1404595078,17749,27,0.004150390625,-1.05865478515625,-0.03570556640625
1760201942707,1404595078,17749,28,0.026611328125,-1.03253173828125,-0.03302001953125
1760201942707,1404595078,17749,29,-0.009033203125,-0.99908447265625,-0.00469970703125
1760201942707,1404595078,17749,30,0.010009765625,-1.04083251953125,-0.02838134765625
1760201942707,1404595078,17749,31,0.00341796875,-1.01300048828125,-0.00592041015625
1760201945227,1404597651,17750,0,-0.0146484375,-0.99127197265625,0.01507568359375
1760201945227,1404597651,17750,1,-0.01708984375,-0.97857666015625,0.07220458984375
1760201945227,1404597651,17750,2,-0.021240234375,-0.97369384765625,0.08758544921875
1760201945227,1404597651,17750,3,0.005126953125,-0.98834228515625,0.01947021484375
1760201945227,1404597651,17750,4,0.001220703125,-0.96539306640625,0.00335693359375
1760201945227,1404597651,17750,5,-0.010986328125,-0.93927001953125,0.01458740234375
1760201945227,1404597651,17750,6,0.023193359375,-1.04132080078125,-0.05621337890625
1760201945227,1404597651,17750,7,0.0185546875,-1.02911376953125,-0.02764892578125
1760201945227,1404597651,17750,8,-0.0009765625,-1.00201416015625,0.00506591796875
1760201945227,1404597651,17750,9,0.01416015625,-1.03814697265625,-0.02203369140625
1760201945227,1404597651,17750,10,-0.001220703125,-1.02081298828125,-0.00201416015625
1760201945227,1404597651,17750,11,-0.04150390625,-0.97833251953125,0.05340576171875
1760201945227,1404597651,17750,12,-0.021728515625,-0.96368408203125,0.08123779296875
1760201945227,1404597651,17750,13,-0.021240234375,-1.00225830078125,0.05877685546875
1760201945227,1404597651,17750,14,-0.020263671875,-0.96881103515625,0.03289794921875
1760201945227,1404597651,17750,15,0.005859375,-0.95733642578125,0.00262451171875
1760201945227,1404597651,17750,16,-0.004150390625,-0.97808837890625,-0.01202392578125
1760201945227,1404597651,17750,17,0.02099609375,-1.03668212890625,-0.03863525390625
1760201945227,1404597651,17750,18,0.013916015625,-1.00616455078125,-0.01080322265625
1760201945227,1404597651,17750,19,-0.001708984375,-1.01446533203125,0.00506591796875
1760201945227,1404597651,17750,20,0.017822265625,-1.03350830078125,-0.01641845703125
1760201945227,1404597651,17750,21,-0.021484375,-1.00054931640625,0.03143310546875
1760201945227,1404597651,17750,22,-0.029296875,-0.97906494140625,0.03875732421875
1760201945227,1404597651,17750,23,-0.002685546875,-1.00616455078125,0.07147216796875
1760201945227,1404597651,17750,24,-0.01171875,-0.99346923828125,0.06829833984375
1760201945227,1404597651,17750,25,-0.018310546875,-0.98687744140625,0.04290771484375
1760201945227,1404597651,17750,26,-0.00732421875,-0.95684814453125,0.03045654296875
1760201945227,1404597651,17750,27,0.007080078125,-0.97320556640625,0.02191162109375
1760201945227,1404597651,17750,28,-0.010498046875,-0.95831298828125,0.03656005859375
1760201945227,1404597651,17750,29,0.012939453125,-1.04205322265625,-0.01544189453125
1760201945227,1404597651,17750,30,0.025390625,-1.01641845703125,0.00408935546875
1760201945227,1404597651,17750,31,-0.011474609375,-1.00177001953125,0.01678466796875
1760201947747,1404600224,17751,0,0.009033203125,-1.01861572265625,0.01922607421875
1760201947747,1404600224,17751,1,-0.004150390625,-1.01031494140625,0.04974365234375
1760201947747,1404600224,17751,2,-0.00537109375,-0.98590087890625,0.04486083984375
1760201947747,1404600224,17751,3,0.019287109375,-1.01544189453125,0.06536865234375
1760201947747,1404600224,17751,4,-0.000244140625,-0.97735595703125,0.10052490234375
1760201947747,1404600224,17751,5,-0.005859375,-0.95611572265625,0.05316162109375
1760201947747,1404600224,17751,6,-0.00048828125,-0.96807861328125,0.01873779296875
1760201947747,1404600224,17751,7,0.013916015625,-0.97540283203125,0.00238037109375
1760201947747,1404600224,17751,8,0.020263671875,-0.99713134765625,-0.00860595703125
1760201947747,1404600224,17751,9,0.005859375,-1.01641845703125,-0.02569580078125
1760201947747,1404600224,17751,10,0.037353515625,-1.01470947265625,-0.03546142578125
1760201947747,1404600224,17751,11,0.013916015625,-1.01055908203125,-0.02667236328125
1760201947747,1404600224,17751,12,0.014892578125,-1.03179931640625,-0.01544189453125
1760201947747,1404600224,17751,13,-0.002685546875,-1.00982666015625,0.01165771484375
1760201947747,1404600224,17751,14,-0.004150390625,-0.99444580078125,0.02703857421875
1760201947747,1404600224,17751,15,-0.016845703125,-0.99713134765625,0.05731201171875
1760201947747,1404600224,17751,16,0.007568359375,-0.97613525390625,-0.00225830078125
1760201947747,1404600224,17751,17,0.017822265625,-0.99591064453125,-0.00128173828125
1760201947747,1404600224,17751,18,0.028564453125,-0.96466064453125,-0.03839111328125
1760201947747,1404600224,17751,19,-0.0048828125,-0.96343994140625,-0.00225830078125
1760201947747,1404600224,17751,20,0.027587890625,-1.02642822265625,-0.05792236328125
1760201947747,1404600224,17751,21,0.049560546875,-1.01446533203125,-0.05328369140625
1760201947747,1404600224,17751,22,0.00341796875,-1.01202392578125,-0.01617431640625
1760201947747,1404600224,17751,23,0.027099609375,-1.03741455078125,-0.04058837890625
1760201947747,1404600224,17751,24,0.00390625,-1.00665283203125,-0.00640869140625
1760201947747,1404600224,17751,25,-0.012939453125,-1.02252197265625,-0.00030517578125
1760201947747,1404600224,17751,26,-0.0146484375,-0.94708251953125,0.08660888671875
1760201947747,1404600224,17751,27,-0.00341796875,-0.98980712890625,0.05706787109375
1760201947747,1404600224,17751,28,-0.00439453125,-0.97271728515625,0.02264404296875
1760201947747,1404600224,17751,29,0.013427734375,-0.96246337890625,0.00701904296875
1760201947747,1404600224,17751,30,0.014404296875,-0.98541259765625,0.00042724609375
1760201947747,1404600224,17751,31,0.031005859375,-1.03155517578125,-0.05206298828125
1760201950446,1404602797,17752,0,0.02490234375,-1.00079345703125,-0.02667236328125
1760201950446,1404602797,17752,1,0.003173828125,-1.01568603515625,-0.01641845703125
1760201950446,1404602797,17752,2,0.02001953125,-1.03302001953125,-0.03399658203125
1760201950446,1404602797,17752,3,0.00341796875,-0.99615478515625,-0.01007080078125
1760201950446,1404602797,17752,4,-0.01513671875,-1.00250244140625,0.04705810546875
1760201950446,1404602797,17752,5,-0.005126953125,-0.97222900390625,0.06781005859375
1760201950446,1404602797,17752,6,-0.024658203125,-1.00177001953125,0.06512451171875
1760201950446,1404602797,17752,7,-0.016845703125,-0.95709228515625,0.04559326171875
1760201950446,1404602797,17752,8,0.03564453125,-0.96343994140625,0.00848388671875
1760201950446,1404602797,17752,9,0.012939453125,-0.98150634765625,0.00579833984375
1760201950446,1404602797,17752,10,0.010498046875,-1.03009033203125,-0.02691650390625
1760201950446,1404602797,17752,11,0.044921875,-1.01300048828125,-0.03912353515625
1760201950446,1404602797,17752,12,0.0,-1.00665283203125,-0.01373291015625
1760201950446,1404602797,17752,13,0.0244140625,-1.02545166015625,-0.04205322265625
1760201950446,1404602797,17752,14,0.002197265625,-1.00201416015625,-0.00396728515625
1760201950446,1404602797,17752,15,-0.01513671875,-0.99835205078125,0.02728271484375
1760201950446,1404602797,17752,16,0.012451171875,-1.00299072265625,0.05316162109375
1760201950446,1404602797,17752,17,-0.016845703125,-0.98809814453125,0.06414794921875
1760201950446,1404602797,17752,18,0.018798828125,-0.96661376953125,0.04803466796875
1760201950446,1404602797,17752,19,0.020751953125,-0.95465087890625,0.01385498046875
1760201950446,1404602797,17752,20,0.0078125,-0.98492431640625,-0.01275634765625
1760201950446,1404602797,17752,21,0.0234375,-1.01397705078125,-0.04547119140625
1760201950446,1404602797,17752,22,0.04931640625,-1.02667236328125,-0.05767822265625
1760201950446,1404602797,17752,23,0.029296875,-0.99542236328125,-0.04669189453125
1760201950446,1404602797,17752,24,0.030029296875,-1.02276611328125,-0.03033447265625
1760201950446,1404602797,17752,25,0.022705078125,-1.02935791015625,-0.00762939453125
1760201950446,1404602797,17752,26,0.01513671875,-1.01177978515625,0.00653076171875
1760201950446,1404602797,17752,27,-0.023193359375,-0.97027587890625,0.07293701171875
1760201950446,1404602797,17752,28,0.007080078125,-0.99810791015625,0.01898193359375
1760201950446,1404602797,17752,29,0.01611328125,-0.96685791015625,0.02313232421875
1760201950446,1404602797,17752,30,0.04345703125,-0.96954345703125,-0.00811767578125
1760201950446,1404602797,17752,31,0.02294921875,-0.99127197265625,-0.01519775390625
1760201952967,1404605370,17753,0,0.03564453125,-1.01129150390625,-0.01568603515625
1760201952967,1404605370,17753,1,0.054443359375,-1.00201416015625,-0.00592041015625
1760201952967,1404605370,17753,2,0.0205078125,-1.00933837890625,-0.00225830078125
1760201952967,1404605370,17753,3,0.0361328125,-1.01519775390625,0.00628662109375
1760201952967,1404605370,17753,4,0.03173828125,-1.02960205078125,-0.02227783203125
1760201952967,1404605370,17753,5,0.002685546875,-0.98931884765625,0.02947998046875
1760201952967,1404605370,17753,6,-0.02880859375,-0.99151611328125,0.07562255859375
1760201952967,1404605370,17753,7,-0.00927734375,-0.97979736328125,0.09124755859375
1760201952967,1404605370,17753,8,0.011962890625,-0.99615478515625,0.01336669921875
1760201952967,1404605370,17753,9,0.039794921875,-0.97564697265625,-0.00201416015625
1760201952967,1404605370,17753,10,0.0302734375,-0.95806884765625,-0.03497314453125
1760201952967,1404605370,17753,11,-0.016845703125,-0.98931884765625,0.02484130859375
1760201952967,1404605370,17753,12,0.03076171875,-1.02984619140625,-0.02105712890625
1760201952967,1404605370,17753,13,0.035888671875,-1.01348876953125,-0.01397705078125
1760201952967,1404605370,17753,14,0.0146484375,-1.01422119140625,0.01629638671875
1760201952967,1404605370,17753,15,0.031494140625,-1.01812744140625,-0.01397705078125
1760201952967,1404605370,17753,16,0.02685546875,-1.00396728515625,-0.01666259765625
1760201952967,1404605370,17753,17,-0.018798828125,-0.99176025390625,0.07781982421875
1760201952967,1404605370,17753,18,-0.00341796875,-1.01202392578125,0.06634521484375
1760201952967,1404605370,17753,19,-0.028076171875,-0.93414306640625,0.14422607421875
1760201952967,1404605370,17753,20,0.0205078125,-0.97564697265625,0.03704833984375
1760201952967,1404605370,17753,21,0.00244140625,-0.94879150390625,0.03118896484375
1760201952967,1404605370,17753,22,0.0166015625,-0.98834228515625,0.01531982421875
1760201952967,1404605370,17753,23,0.038818359375,-1.03668212890625,-0.01031494140625
1760201952967,1404605370,17753,24,0.035400390625,-0.99835205078125,0.02386474609375
1760201952967,1404605370,17753,25,0.020263671875,-1.01666259765625,0.02435302734375
1760201952967,1404605370,17753,26,0.02880859375,-1.00811767578125,-0.00225830078125
1760201952967,1404605370,17753,27,0.039306640625,-1.01007080078125,-0.00323486328125
1760201952967,1404605370,17753,28,0.000244140625,-0.99395751953125,0.03948974609375
1760201952967,1404605370,17753,29,0.009521484375,-1.01080322265625,0.06878662109375
1760201952967,1404605370,17753,30,-0.048095703125,-0.99224853515625,0.12274169921875
1760201952967,1404605370,17753,31,-0.00146484375,-0.93341064453125,0.09442138671875
1760201955487,1404607943,17754,0,0.00732421875,-0.98419189453125,0.02679443359375
1760201955487,1404607943,17754,1,0.000732421875,-0.95025634765625,0.01434326171875
1760201955487,1404607943,17754,2,0.003173828125,-0.98834228515625,0.01947021484375
1760201955487,1404607943,17754,3,0.03466796875,-1.04205322265625,-0.00225830078125
1760201955487,1404607943,17754,4,0.0126953125,-0.99932861328125,0.03460693359375
1760201955487,1404607943,17754,5,0.015869140625,-1.01910400390625,0.01019287109375
1760201955487,1404607943,17754,6,0.012451171875,-1.02862548828125,0.01190185546875
1760201955487,1404607943,17754,7,-0.006591796875,-0.99420166015625,0.03216552734375
1760201955487,1404607943,17754,8,-0.0068359375,-0.99420166015625,0.07537841796875
1760201955487,1404607943,17754,9,-0.01806640625,-0.98370361328125,0.08953857421875
1760201955487,1404607943,17754,10,-0.023193359375,-0.96929931640625,0.11199951171875
1760201955487,1404607943,17754,11,0.002685546875,-0.96466064453125,0.04193115234375
1760201955487,1404607943,17754,12,0.010986328125,-0.97418212890625,0.01190185546875
1760201955487,1404607943,17754,13,0.005126953125,-0.97052001953125,0.01385498046875
1760201955487,1404607943,17754,14,0.008544921875,-1.02935791015625,-0.02496337890625
1760201955487,1404607943,17754,15,0.02783203125,-1.01226806640625,-0.01226806640625
1760201955487,1404607943,17754,16,0.015380859375,-1.00518798828125,-0.02545166015625
1760201955487,1404607943,17754,17,0.00732421875,-1.02423095703125,-0.02178955078125
1760201955487,1404607943,17754,18,0.004150390625,-1.01202392578125,-0.00933837890625
1760201955487,1404607943,17754,19,-0.032958984375,-0.99053955078125,0.03729248046875
1760201955487,1404607943,17754,20,-0.01318359375,-1.00030517578125,0.06317138671875
1760201955487,1404607943,17754,21,-0.012939453125,-0.99444580078125,0.06658935546875
1760201955487,1404607943,17754,22,0.002197265625,-0.96978759765625,0.05462646484375
1760201955487,1404607943,17754,23,0.0009765625,-0.93927001953125,0.03924560546875
1760201955487,1404607943,17754,24,0.00439453125,-0.97930908203125,-0.01129150390625
1760201955487,1404607943,17754,25,0.014892578125,-1.03082275390625,-0.03326416015625
1760201955487,1404607943,17754,26,0.054443359375,-1.02984619140625,-0.04937744140625
1760201955487,1404607943,17754,27,0.012939453125,-1.00347900390625,-0.02545166015625
1760201955487,1404607943,17754,28,0.03173828125,-1.02056884765625,-0.04595947265625
1760201955487,1404607943,17754,29,0.054443359375,-1.01715087890625,-0.04888916015625
1760201955487,1404607943,17754,30,0.01318359375,-0.99273681640625,-0.00592041015625
1760201955487,1404607943,17754,31,-0.016845703125,-1.00469970703125,0.04949951171875
1760201958188,1404610517,17755,0,-0.013671875,-1.00445556640625,0.05975341796875
1760201958188,1404610517,17755,1,-0.008056640625,-0.95880126953125,0.02288818359375
1760201958188,1404610517,17755,2,0.044677734375,-0.97857666015625,-0.00225830078125
1760201958188,1404610517,17755,3,0.017578125,-0.95733642578125,-0.00836181640625
1760201958188,1404610517,17755,4,0.02490234375,-1.03570556640625,-0.06231689453125
1760201958188,1404610517,17755,5,0.04736328125,-1.02423095703125,-0.02593994140625
1760201958188,1404610517,17755,6,0.028564453125,-1.01568603515625,-0.03741455078125
1760201958188,1404610517,17755,7,0.023193359375,-1.02276611328125,-0.04327392578125
1760201958188,1404610517,17755,8,0.040771484375,-1.00567626953125,-0.05377197265625
1760201958188,1404610517,17755,9,-0.008544921875,-1.00933837890625,0.02532958984375
1760201958188,1404610517,17755,10,0.00048828125,-0.99029541015625,0.00457763671875
1760201958188,1404610517,17755,11,0.001708984375,-1.00030517578125,0.06170654296875
1760201958188,1404610517,17755,12,-0.01220703125,-0.96710205078125,0.06903076171875
1760201958188,1404610517,17755,13,0.02734375,-0.97369384765625,-0.01275634765625
1760201958188,1404610517,17755,14,0.0185546875,-0.96710205078125,0.02655029296875
1760201958188,1404610517,17755,15,0.02001953125,-1.00836181640625,-0.01641845703125
1760201958188,1404610517,17755,16,0.03662109375,-1.01055908203125,-0.00689697265625
1760201958188,1404610517,17755,17,0.009765625,-1.00177001953125,0.01800537109375
1760201958188,1404610517,17755,18,0.0283203125,-1.02984619140625,-0.00762939453125
1760201958188,1404610517,17755,19,-0.008544921875,-1.01763916015625,0.04412841796875
1760201958188,1404610517,17755,20,-0.044677734375,-0.97882080078125,0.06805419921875
1760201958188,1404610517,17755,21,0.0,-0.97979736328125,0.10858154296875
1760201958188,1404610517,17755,22,-0.0048828125,-0.97735595703125,0.07391357421875
1760201958188,1404610517,17755,23,0.000732421875,-0.98248291015625,0.01458740234375
1760201958188,1404610517,17755,24,0.025390625,-0.95758056640625,-0.01104736328125
1760201958188,1404610517,17755,25,0.008056640625,-0.99298095703125,0.00701904296875
1760201958188,1404610517,17755,26,0.0224609375,-1.02716064453125,-0.01934814453125
1760201958188,1404610517,17755,27,0.015869140625,-1.00836181640625,-0.00421142578125
1760201958188,1404610517,17755,28,0.006591796875,-1.02008056640625,-0.00787353515625
1760201958188,1404610517,17755,29,0.00830078125,-1.03765869140625,-0.00762939453125
1760201958188,1404610517,17755,30,-0.018798828125,-0.96881103515625,0.05389404296875
1760201958188,1404610517,17755,31,-0.020263671875,-1.01202392578125,0.09051513671875
1760201960708,1404613090,17756,0,-0.0322265625,-0.96807861328125,0.11517333984375
1760201960708,1404613090,17756,1,-0.01318359375,-0.96002197265625,0.04876708984375
1760201960708,1404613090,17756,2,0.015380859375,-0.98492431640625,0.01800537109375
1760201960708,1404613090,17756,3,-0.002197265625,-0.96295166015625,-0.00494384765625
1760201960708,1404613090,17756,4,0.02734375,-1.02618408203125,-0.02691650390625
1760201960708,1404613090,17756,5,0.0302734375,-1.02276611328125,-0.04913330078125
1760201960708,1404613090,17756,6,0.029296875,-0.99713134765625,-0.02667236328125
1760201960708,1404613090,17756,7,0.0244140625,-1.03228759765625,-0.03009033203125
1760201960708,1404613090,17756,8,0.01708984375,-1.00128173828125,0.00579833984375
1760201960708,1404613090,17756,9,-0.03515625,-1.01153564453125,0.06024169921875
1760201960708,1404613090,17756,10,-0.0302734375,-0.97198486328125,0.08319091796875
1760201960708,1404613090,17756,11,-0.01318359375,-0.94293212890625,0.09197998046875
1760201960708,1404613090,17756,12,0.0283203125,-0.99884033203125,-0.02349853515625
1760201960708,1404613090,17756,13,0.0126953125,-0.95806884765625,-0.00469970703125
1760201960708,1404613090,17756,14,0.00732421875,-1.00689697265625,-0.00518798828125
1760201960708,1404613090,17756,15,0.039794921875,-1.02813720703125,-0.01519775390625
1760201960708,1404613090,17756,16,0.030517578125,-0.99932861328125,0.01995849609375
1760201960708,1404613090,17756,17,0.016357421875,-1.02520751953125,-0.00640869140625
1760201960708,1404613090,17756,18,0.03466796875,-1.02032470703125,-0.01617431640625
1760201960708,1404613090,17756,19,0.0283203125,-0.97467041015625,0.00726318359375
1760201960708,1404613090,17756,20,-0.005615234375,-0.98223876953125,0.13763427734375
1760201960708,1404613090,17756,21,-0.018310546875,-0.97515869140625,0.10101318359375
1760201960708,1404613090,17756,22,0.010009765625,-0.97149658203125,0.05535888671875
1760201960708,1404613090,17756,23,0.063720703125,-0.99932861328125,-0.03863525390625
1760201960708,1404613090,17756,24,-0.0126953125,-0.95220947265625,0.01898193359375
1760201960708,1404613090,17756,25,0.024169921875,-1.01348876953125,-0.01715087890625
1760201960708,1404613090,17756,26,0.037353515625,-1.01739501953125,0.00262451171875
1760201960708,1404613090,17756,27,0.019287109375,-1.01031494140625,0.00579833984375
1760201960708,1404613090,17756,28,0.023193359375,-1.02545166015625,0.00140380859375
1760201960708,1404613090,17756,29,0.031982421875,-1.01544189453125,-0.01031494140625
1760201960708,1404613090,17756,30,-0.0361328125,-0.96905517578125,0.08489990234375
1760201960708,1404613090,17756,31,-0.013671875,-0.98101806640625,0.05657958984375
1760201963227,1404615663,17757,0,0.02734375,-1.00762939453125,0.05682373046875
1760201963227,1404615663,17757,1,0.02880859375,-0.97296142578125,0.02996826171875
1760201963227,1404615663,17757,2,0.02685546875,-0.97247314453125,0.00408935546875
1760201963227,1404615663,17757,3,0.021240234375,-0.97369384765625,0.00628662109375
1760201963227,1404615663,17757,4,0.033447265625,-1.02032470703125,0.00897216796875
1760201963227,1404615663,17757,5,0.019287109375,-1.00445556640625,0.01483154296875
1760201963227,1404615663,17757,6,0.011962890625,-1.02618408203125,0.01849365234375
1760201963227,1404615663,17757,7,0.021484375,-1.02374267578125,0.01849365234375
1760201963227,1404615663,17757,8,-0.04345703125,-0.98394775390625,0.06463623046875
1760201963227,1404615663,17757,9,-0.0078125,-0.97808837890625,0.08050537109375
1760201963227,1404615663,17757,10,0.00390625,-0.99444580078125,0.11077880859375
1760201963227,1404615663,17757,11,-0.01611328125,-0.98419189453125,0.08831787109375
1760201963227,1404615663,17757,12,0.01513671875,-0.96392822265625,0.01531982421875
1760201963227,1404615663,17757,13,0.01806640625,-0.96929931640625,-0.01568603515625
1760201963227,1404615663,17757,14,0.007568359375,-0.98663330078125,0.01995849609375
1760201963227,1404615663,17757,15,0.041748046875,-1.02520751953125,-0.02569580078125
1760201963227,1404615663,17757,16,0.018798828125,-1.00933837890625,0.02728271484375
1760201963227,1404615663,17757,17,0.013427734375,-1.01837158203125,0.00164794921875
1760201963227,1404615663,17757,18,0.031982421875,-1.03082275390625,0.02655029296875
1760201963227,1404615663,17757,19,-0.00244140625,-0.98541259765625,-0.00396728515625
1760201963227,1404615663,17757,20,-0.016845703125,-0.98883056640625,0.09027099609375
1760201963227,1404615663,17757,21,0.015869140625,-0.97589111328125,0.11175537109375
1760201963227,1404615663,17757,22,-0.010498046875,-0.97637939453125,0.08026123046875
