receivedPhoneTimestamp,respeckTimestamp,packetSeqNum,sampleSeqNum,accelX,accelY,accelZ
1759571282804,702590255,35481,19,0.8076171875,0.11907958984375,0.43817138671875
1759571282804,702590255,35481,20,0.772216796875,0.13641357421875,0.47430419921875
1759571282804,702590255,35481,21,0.761474609375,0.11151123046875,0.46307373046875
1759571282804,702590255,35481,22,0.84326171875,0.17034912109375,0.41961669921875
1759571282804,702590255,35481,23,0.81689453125,0.17376708984375,0.46624755859375
1759571282804,702590255,35481,24,0.78466796875,0.17352294921875,0.44451904296875
1759571282804,702590255,35481,25,0.79150390625,0.18280029296875,0.44281005859375
1759571282804,702590255,35481,26,0.8037109375,0.18914794921875,0.45989990234375
1759571282804,702590255,35481,27,0.796142578125,0.18914794921875,0.45648193359375
1759571282804,702590255,35481,28,0.782470703125,0.19573974609375,0.44183349609375
1759571282804,702590255,35481,29,0.789306640625,0.19573974609375,0.44549560546875
1759571282804,702590255,35481,30,0.802978515625,0.20330810546875,0.44671630859375
1759571282804,702590255,35481,31,0.806884765625,0.19622802734375,0.42669677734375
1759571285145,702592810,35482,0,0.816650390625,0.19647216796875,0.43060302734375
1759571285145,702592810,35482,1,0.814208984375,0.17889404296875,0.42864990234375
1759571285145,702592810,35482,2,0.798583984375,0.16571044921875,0.44110107421875
1759571285145,702592810,35482,3,0.7998046875,0.14764404296875,0.44964599609375
1759571285145,702592810,35482,4,0.816650390625,0.15130615234375,0.42742919921875
1759571285145,702592810,35482,5,0.810302734375,0.14471435546875,0.43597412109375
1759571285145,702592810,35482,6,0.8115234375,0.14251708984375,0.43304443359375
1759571285145,702592810,35482,7,0.82177734375,0.11737060546875,0.44525146484375
1759571285145,702592810,35482,8,0.796875,0.13714599609375,0.45111083984375
1759571285145,702592810,35482,9,0.766845703125,0.13055419921875,0.47283935546875
1759571285145,702592810,35482,10,0.80908203125,0.14788818359375,0.42938232421875
1759571285145,702592810,35482,11,0.81787109375,0.17620849609375,0.47015380859375
1759571285145,702592810,35482,12,0.796875,0.17645263671875,0.44012451171875
1759571285145,702592810,35482,13,0.783935546875,0.19134521484375,0.44647216796875
1759571285145,702592810,35482,14,0.79736328125,0.19378662109375,0.44842529296875
1759571285145,702592810,35482,15,0.80029296875,0.19720458984375,0.44744873046875
1759571285145,702592810,35482,16,0.809326171875,0.19891357421875,0.42376708984375
1759571285145,702592810,35482,17,0.794921875,0.18304443359375,0.45135498046875
1759571285145,702592810,35482,18,0.80908203125,0.16668701171875,0.43597412109375
1759571285145,702592810,35482,19,0.806640625,0.15277099609375,0.43255615234375
1759571285145,702592810,35482,20,0.798583984375,0.14813232421875,0.45233154296875
1759571285145,702592810,35482,21,0.809326171875,0.14227294921875,0.44647216796875
1759571285145,702592810,35482,22,0.802734375,0.12567138671875,0.45867919921875
1759571285145,702592810,35482,23,0.805908203125,0.12957763671875,0.44744873046875
1759571285145,702592810,35482,24,0.79541015625,0.12469482421875,0.44989013671875
1759571285145,702592810,35482,25,0.769775390625,0.13226318359375,0.48016357421875
1759571285145,702592810,35482,26,0.787841796875,0.12933349609375,0.44842529296875
1759571285145,702592810,35482,27,0.809326171875,0.16229248046875,0.46697998046875
1759571285145,702592810,35482,28,0.787353515625,0.15399169921875,0.47698974609375
1759571285145,702592810,35482,29,0.803955078125,0.17718505859375,0.40130615234375
1759571285145,702592810,35482,30,0.80078125,0.18719482421875,0.43475341796875
1759571285145,702592810,35482,31,0.8017578125,0.19476318359375,0.44989013671875
1759571287680,702595365,35483,0,0.783203125,0.19525146484375,0.46038818359375
1759571287680,702595365,35483,1,0.7841796875,0.19451904296875,0.43743896484375
1759571287680,702595365,35483,2,0.808837890625,0.19549560546875,0.43402099609375
1759571287680,702595365,35483,3,0.828125,0.18475341796875,0.43304443359375
1759571287680,702595365,35483,4,0.818603515625,0.18743896484375,0.42791748046875
1759571287680,702595365,35483,5,0.784912109375,0.16961669921875,0.40179443359375
1759571287680,702595365,35483,6,0.822265625,0.16619873046875,0.41497802734375
1759571287680,702595365,35483,7,0.82373046875,0.16571044921875,0.40496826171875
1759571287680,702595365,35483,8,0.821533203125,0.15155029296875,0.38983154296875
1759571287680,702595365,35483,9,0.80517578125,0.15643310546875,0.39739990234375
1759571287680,702595365,35483,10,0.813232421875,0.14739990234375,0.45306396484375
1759571287680,702595365,35483,11,0.784912109375,0.15618896484375,0.47576904296875
1759571287680,702595365,35483,12,0.835205078125,0.16595458984375,0.41693115234375
1759571287680,702595365,35483,13,0.805419921875,0.16839599609375,0.47650146484375
1759571287680,702595365,35483,14,0.7919921875,0.18572998046875,0.44940185546875
1759571287680,702595365,35483,15,0.791015625,0.19134521484375,0.44671630859375
1759571287680,702595365,35483,16,0.793212890625,0.18768310546875,0.45941162109375
1759571287680,702595365,35483,17,0.803466796875,0.19989013671875,0.44744873046875
1759571287680,702595365,35483,18,0.80419921875,0.18841552734375,0.41131591796875
1759571287680,702595365,35483,19,0.80078125,0.19891357421875,0.43499755859375
1759571287680,702595365,35483,20,0.82470703125,0.19158935546875,0.41107177734375
1759571287680,702595365,35483,21,0.833984375,0.18670654296875,0.41448974609375
1759571287680,702595365,35483,22,0.822998046875,0.17816162109375,0.39105224609375
1759571287680,702595365,35483,23,0.82373046875,0.17205810546875,0.39154052734375
1759571287680,702595365,35483,24,0.82275390625,0.15643310546875,0.39935302734375
1759571287680,702595365,35483,25,0.828369140625,0.16229248046875,0.39447021484375
1759571287680,702595365,35483,26,0.82275390625,0.15350341796875,0.39495849609375
1759571287680,702595365,35483,27,0.814208984375,0.15228271484375,0.43157958984375
1759571287680,702595365,35483,28,0.783935546875,0.16156005859375,0.48211669921875
1759571287680,702595365,35483,29,0.826416015625,0.14276123046875,0.42132568359375
1759571287680,702595365,35483,30,0.826171875,0.19403076171875,0.42327880859375
1759571287680,702595365,35483,31,0.802734375,0.18597412109375,0.44451904296875
1759571290215,702597920,35484,0,0.79296875,0.18695068359375,0.43646240234375
1759571290215,702597920,35484,1,0.796875,0.20184326171875,0.44134521484375
1759571290215,702597920,35484,2,0.8056640625,0.19940185546875,0.43792724609375
1759571290215,702597920,35484,3,0.801513671875,0.20989990234375,0.43548583984375
1759571290215,702597920,35484,4,0.810302734375,0.20013427734375,0.40692138671875
1759571290215,702597920,35484,5,0.822265625,0.21136474609375,0.41131591796875
1759571290215,702597920,35484,6,0.817626953125,0.19598388671875,0.41864013671875
1759571290215,702597920,35484,7,0.823486328125,0.19110107421875,0.39666748046875
1759571290215,702597920,35484,8,0.82568359375,0.19378662109375,0.37933349609375
1759571290215,702597920,35484,9,0.833251953125,0.17596435546875,0.39056396484375
1759571290215,702597920,35484,10,0.826904296875,0.16204833984375,0.39056396484375
1759571290215,702597920,35484,11,0.8271484375,0.17303466796875,0.40106201171875
1759571290215,702597920,35484,12,0.794189453125,0.15789794921875,0.42230224609375
1759571290215,702597920,35484,13,0.795654296875,0.14105224609375,0.48211669921875
1759571290215,702597920,35484,14,0.852294921875,0.17083740234375,0.37713623046875
1759571290215,702597920,35484,15,0.816650390625,0.18328857421875,0.45867919921875
1759571290215,702597920,35484,16,0.801025390625,0.18719482421875,0.43377685546875
1759571290215,702597920,35484,17,0.78955078125,0.19647216796875,0.43328857421875
1759571290215,702597920,35484,18,0.798828125,0.19232177734375,0.44500732421875
1759571290215,702597920,35484,19,0.806396484375,0.21405029296875,0.44085693359375
1759571290215,702597920,35484,20,0.800048828125,0.20330810546875,0.42449951171875
1759571290215,702597920,35484,21,0.807373046875,0.20208740234375,0.42156982421875
1759571290215,702597920,35484,22,0.811279296875,0.20819091796875,0.42694091796875
1759571290215,702597920,35484,23,0.8115234375,0.19110107421875,0.41839599609375
1759571290215,702597920,35484,24,0.817138671875,0.17767333984375,0.41815185546875
1759571290215,702597920,35484,25,0.8232421875,0.17742919921875,0.39764404296875
1759571290215,702597920,35484,26,0.8251953125,0.16961669921875,0.40740966796875
1759571290215,702597920,35484,27,0.812744140625,0.17034912109375,0.40936279296875
1759571290215,702597920,35484,28,0.805908203125,0.15301513671875,0.42401123046875
1759571290215,702597920,35484,29,0.816162109375,0.15008544921875,0.42449951171875
1759571290215,702597920,35484,30,0.817138671875,0.15399169921875,0.42669677734375
1759571290215,702597920,35484,31,0.76953125,0.14471435546875,0.46356201171875
1759571292747,702600475,35485,0,0.825927734375,0.16912841796875,0.42547607421875
1759571292747,702600475,35485,1,0.820556640625,0.18035888671875,0.45135498046875
1759571292747,702600475,35485,2,0.78857421875,0.17620849609375,0.45257568359375
1759571292747,702600475,35485,3,0.779052734375,0.19500732421875,0.44281005859375
1759571292747,702600475,35485,4,0.7978515625,0.19183349609375,0.44818115234375
1759571292747,702600475,35485,5,0.8115234375,0.19305419921875,0.43084716796875
1759571292747,702600475,35485,6,0.818359375,0.22064208984375,0.40960693359375
1759571292747,702600475,35485,7,0.801025390625,0.20086669921875,0.44256591796875
1759571292747,702600475,35485,8,0.81982421875,0.19085693359375,0.40057373046875
1759571292747,702600475,35485,9,0.819580078125,0.17620849609375,0.41082763671875
1759571292747,702600475,35485,10,0.81640625,0.17572021484375,0.40594482421875
1759571292747,702600475,35485,11,0.830078125,0.17401123046875,0.40960693359375
1759571292747,702600475,35485,12,0.821533203125,0.15789794921875,0.41351318359375
1759571292747,702600475,35485,13,0.807861328125,0.14642333984375,0.42767333984375
1759571292747,702600475,35485,14,0.796142578125,0.14544677734375,0.43572998046875
1759571292747,702600475,35485,15,0.792724609375,0.14178466796875,0.45697021484375
1759571292747,702600475,35485,16,0.81884765625,0.15155029296875,0.42474365234375
1759571292747,702600475,35485,17,0.80810546875,0.17523193359375,0.45672607421875
1759571292747,702600475,35485,18,0.794921875,0.17425537109375,0.45672607421875
1759571292747,702600475,35485,19,0.791259765625,0.18646240234375,0.44818115234375
1759571292747,702600475,35485,20,0.791748046875,0.18646240234375,0.45404052734375
1759571292747,702600475,35485,21,0.8017578125,0.19158935546875,0.43817138671875
1759571292747,702600475,35485,22,0.799560546875,0.20111083984375,0.42669677734375
1759571292747,702600475,35485,23,0.808349609375,0.19793701171875,0.42034912109375
1759571292747,702600475,35485,24,0.820068359375,0.20184326171875,0.41180419921875
1759571292747,702600475,35485,25,0.80712890625,0.19842529296875,0.42913818359375
1759571292747,702600475,35485,26,0.802001953125,0.18011474609375,0.40789794921875
1759571292747,702600475,35485,27,0.8154296875,0.18939208984375,0.41204833984375
1759571292747,702600475,35485,28,0.82275390625,0.18206787109375,0.41668701171875
1759571292747,702600475,35485,29,0.814208984375,0.16693115234375,0.41644287109375
1759571292747,702600475,35485,30,0.794677734375,0.17449951171875,0.42523193359375
1759571292747,702600475,35485,31,0.8017578125,0.16009521484375,0.45086669921875
1759571295286,702603031,35486,0,0.79150390625,0.15618896484375,0.45257568359375
1759571295286,702603031,35486,1,0.81201171875,0.16326904296875,0.41424560546875
1759571295286,702603031,35486,2,0.810302734375,0.17694091796875,0.44500732421875
1759571295286,702603031,35486,3,0.803466796875,0.19427490234375,0.45867919921875
1759571295286,702603031,35486,4,0.802734375,0.19183349609375,0.42547607421875
1759571295286,702603031,35486,5,0.789306640625,0.19549560546875,0.43817138671875
1759571295286,702603031,35486,6,0.81005859375,0.20697021484375,0.43768310546875
1759571295286,702603031,35486,7,0.807373046875,0.20355224609375,0.42132568359375
1759571295286,702603031,35486,8,0.81982421875,0.20794677734375,0.41033935546875
1759571295286,702603031,35486,9,0.81201171875,0.20159912109375,0.42352294921875
1759571295286,702603031,35486,10,0.811767578125,0.18255615234375,0.40374755859375
1759571295286,702603031,35486,11,0.8349609375,0.18475341796875,0.37933349609375
1759571295286,702603031,35486,12,0.83203125,0.17034912109375,0.39251708984375
1759571295286,702603031,35486,13,0.8359375,0.16424560546875,0.39373779296875
1759571295286,702603031,35486,14,0.82080078125,0.15618896484375,0.39813232421875
1759571295286,702603031,35486,15,0.812744140625,0.15252685546875,0.42474365234375
1759571295286,702603031,35486,16,0.79638671875,0.16156005859375,0.45501708984375
1759571295286,702603031,35486,17,0.799560546875,0.15643310546875,0.46942138671875
1759571295286,702603031,35486,18,0.827392578125,0.15985107421875,0.40716552734375
1759571295286,702603031,35486,19,0.811279296875,0.18133544921875,0.45501708984375
1759571295286,702603031,35486,20,0.7978515625,0.18182373046875,0.43841552734375
1759571295286,702603031,35486,21,0.79443359375,0.18475341796875,0.44134521484375
1759571295286,702603031,35486,22,0.797607421875,0.19354248046875,0.44598388671875
1759571295286,702603031,35486,23,0.80078125,0.18963623046875,0.43743896484375
1759571295286,702603031,35486,24,0.80517578125,0.19744873046875,0.41937255859375
1759571295286,702603031,35486,25,0.81298828125,0.19500732421875,0.40814208984375
1759571295286,702603031,35486,26,0.822509765625,0.20257568359375,0.43255615234375
1759571295286,702603031,35486,27,0.812255859375,0.18988037109375,0.41009521484375
1759571295286,702603031,35486,28,0.816650390625,0.18133544921875,0.38861083984375
1759571295286,702603031,35486,29,0.830322265625,0.17108154296875,0.40106201171875
1759571295286,702603031,35486,30,0.8330078125,0.17279052734375,0.40057373046875
1759571295286,702603031,35486,31,0.8173828125,0.15887451171875,0.40521240234375
1759571297820,702605586,35487,0,0.808837890625,0.15399169921875,0.43035888671875
1759571297820,702605586,35487,1,0.806396484375,0.14959716796875,0.45501708984375
1759571297820,702605586,35487,2,0.814697265625,0.13861083984375,0.42376708984375
1759571297820,702605586,35487,3,0.825439453125,0.17987060546875,0.41961669921875
1759571297820,702605586,35487,4,0.816650390625,0.17108154296875,0.44354248046875
1759571297820,702605586,35487,5,0.79638671875,0.18133544921875,0.44940185546875
1759571297820,702605586,35487,6,0.7890625,0.18768310546875,0.44256591796875
1759571297820,702605586,35487,7,0.79638671875,0.19012451171875,0.45013427734375
1759571297820,702605586,35487,8,0.805419921875,0.19281005859375,0.43182373046875
1759571297820,702605586,35487,9,0.80517578125,0.19964599609375,0.42132568359375
1759571297820,702605586,35487,10,0.81884765625,0.19647216796875,0.38739013671875
1759571297820,702605586,35487,11,0.825927734375,0.20404052734375,0.41961669921875
1759571297820,702605586,35487,12,0.811279296875,0.18939208984375,0.39080810546875
1759571297820,702605586,35487,13,0.824462890625,0.18817138671875,0.38885498046875
1759571297820,702605586,35487,14,0.833251953125,0.18402099609375,0.39593505859375
1759571297820,702605586,35487,15,0.824462890625,0.16839599609375,0.40252685546875
1759571297820,702605586,35487,16,0.8154296875,0.16082763671875,0.40667724609375
1759571297820,702605586,35487,17,0.820068359375,0.14544677734375,0.43255615234375
1759571297820,702605586,35487,18,0.805908203125,0.16546630859375,0.44451904296875
1759571297820,702605586,35487,19,0.79248046875,0.13006591796875,0.42889404296875
1759571297820,702605586,35487,20,0.825439453125,0.16351318359375,0.43280029296875
1759571297820,702605586,35487,21,0.8125,0.18084716796875,0.44915771484375
1759571297820,702605586,35487,22,0.784423828125,0.18133544921875,0.45355224609375
1759571297820,702605586,35487,23,0.783935546875,0.17547607421875,0.44573974609375
1759571297820,702605586,35487,24,0.794189453125,0.18768310546875,0.46478271484375
1759571297820,702605586,35487,25,0.802490234375,0.18817138671875,0.43450927734375
1759571297820,702605586,35487,26,0.806640625,0.19622802734375,0.42034912109375
1759571297820,702605586,35487,27,0.80517578125,0.18524169921875,0.41864013671875
1759571297820,702605586,35487,28,0.8212890625,0.19525146484375,0.41375732421875
1759571297820,702605586,35487,29,0.819580078125,0.20404052734375,0.41766357421875
1759571297820,702605586,35487,30,0.8046875,0.19036865234375,0.41595458984375
1759571297820,702605586,35487,31,0.814453125,0.18524169921875,0.40301513671875
1759571300550,702608141,35488,0,0.8212890625,0.17498779296875,0.41278076171875
1759571300550,702608141,35488,1,0.81103515625,0.17987060546875,0.43060302734375
1759571300550,702608141,35488,2,0.8046875,0.14398193359375,0.41888427734375
1759571300550,702608141,35488,3,0.812255859375,0.12933349609375,0.41375732421875
1759571300550,702608141,35488,4,0.802001953125,0.15570068359375,0.43719482421875
1759571300550,702608141,35488,5,0.806884765625,0.16302490234375,0.42669677734375
1759571300550,702608141,35488,6,0.800048828125,0.17767333984375,0.44964599609375
1759571300550,702608141,35488,7,0.802490234375,0.18182373046875,0.46282958984375
1759571300550,702608141,35488,8,0.79638671875,0.18499755859375,0.43719482421875
1759571300550,702608141,35488,9,0.801025390625,0.19061279296875,0.44085693359375
1759571300550,702608141,35488,10,0.800048828125,0.19329833984375,0.44207763671875
1759571300550,702608141,35488,11,0.800537109375,0.19500732421875,0.43743896484375
1759571300550,702608141,35488,12,0.806640625,0.19085693359375,0.42181396484375
1759571300550,702608141,35488,13,0.814453125,0.18280029296875,0.42010498046875
1759571300550,702608141,35488,14,0.816650390625,0.19354248046875,0.43255615234375
1759571300550,702608141,35488,15,0.801513671875,0.18499755859375,0.41473388671875
1759571300550,702608141,35488,16,0.81689453125,0.18695068359375,0.41302490234375
1759571300550,702608141,35488,17,0.81787109375,0.17669677734375,0.41986083984375
1759571300550,702608141,35488,18,0.809326171875,0.16571044921875,0.42523193359375
1759571300550,702608141,35488,19,0.805419921875,0.16131591796875,0.42327880859375
1759571300550,702608141,35488,20,0.79833984375,0.15618896484375,0.44598388671875
1759571300550,702608141,35488,21,0.823974609375,0.13348388671875,0.40667724609375
1759571300550,702608141,35488,22,0.814453125,0.16888427734375,0.43475341796875
1759571300550,702608141,35488,23,0.80078125,0.19305419921875,0.45111083984375
1759571300550,702608141,35488,24,0.799560546875,0.18280029296875,0.43719482421875
1759571300550,702608141,35488,25,0.792236328125,0.18988037109375,0.44744873046875
1759571300550,702608141,35488,26,0.799560546875,0.19744873046875,0.45111083984375
1759571300550,702608141,35488,27,0.798095703125,0.19622802734375,0.43719482421875
1759571300550,702608141,35488,28,0.81201171875,0.19061279296875,0.41864013671875
1759571300550,702608141,35488,29,0.82080078125,0.22137451171875,0.41180419921875
1759571300550,702608141,35488,30,0.791015625,0.20086669921875,0.43841552734375
1759571300550,702608141,35488,31,0.8076171875,0.19134521484375,0.41717529296875
1759571303085,702610696,35489,0,0.8212890625,0.18402099609375,0.39862060546875
1759571303085,702610696,35489,1,0.83056640625,0.18255615234375,0.40472412109375
1759571303085,702610696,35489,2,0.818115234375,0.17669677734375,0.41424560546875
1759571303085,702610696,35489,3,0.808349609375,0.16693115234375,0.42034912109375
1759571303085,702610696,35489,4,0.81298828125,0.16351318359375,0.42083740234375
1759571303085,702610696,35489,5,0.815673828125,0.16009521484375,0.42156982421875
1759571303085,702610696,35489,6,0.786376953125,0.17694091796875,0.44744873046875
1759571303085,702610696,35489,7,0.81689453125,0.18548583984375,0.43402099609375
1759571303085,702610696,35489,8,0.8173828125,0.19842529296875,0.43035888671875
1759571303085,702610696,35489,9,0.79248046875,0.18646240234375,0.43939208984375
1759571303085,702610696,35489,10,0.794189453125,0.19671630859375,0.43670654296875
1759571303085,702610696,35489,11,0.808837890625,0.20013427734375,0.43109130859375
1759571303085,702610696,35489,12,0.80712890625,0.19891357421875,0.42132568359375
1759571303085,702610696,35489,13,0.82275390625,0.21112060546875,0.40032958984375
1759571303085,702610696,35489,14,0.815185546875,0.20452880859375,0.42181396484375
1759571303085,702610696,35489,15,0.805419921875,0.19427490234375,0.41424560546875
1759571303085,702610696,35489,16,0.814208984375,0.18597412109375,0.39813232421875
1759571303085,702610696,35489,17,0.823974609375,0.18499755859375,0.40277099609375
1759571303085,702610696,35489,18,0.824951171875,0.17547607421875,0.40667724609375
1759571303085,702610696,35489,19,0.81201171875,0.16278076171875,0.41400146484375
1759571303085,702610696,35489,20,0.809814453125,0.17425537109375,0.42742919921875
1759571303085,702610696,35489,21,0.809814453125,0.16033935546875,0.42791748046875
1759571303085,702610696,35489,22,0.799072265625,0.19378662109375,0.47137451171875
1759571303085,702610696,35489,23,0.8232421875,0.15936279296875,0.40692138671875
1759571303085,702610696,35489,24,0.8193359375,0.18450927734375,0.42620849609375
1759571303085,702610696,35489,25,0.798095703125,0.17938232421875,0.44647216796875
1759571303085,702610696,35489,26,0.80029296875,0.18621826171875,0.44036865234375
1759571303085,702610696,35489,27,0.80078125,0.18743896484375,0.43548583984375
1759571303085,702610696,35489,28,0.810791015625,0.20404052734375,0.42669677734375
1759571303085,702610696,35489,29,0.815673828125,0.19696044921875,0.40325927734375
1759571303085,702610696,35489,30,0.815673828125,0.18328857421875,0.41131591796875
1759571303085,702610696,35489,31,0.821044921875,0.18719482421875,0.42010498046875
1759571305617,702613251,35490,0,0.81494140625,0.17498779296875,0.40789794921875
1759571305617,702613251,35490,1,0.826171875,0.17352294921875,0.40008544921875
1759571305617,702613251,35490,2,0.822998046875,0.16839599609375,0.40618896484375
1759571305617,702613251,35490,3,0.823486328125,0.16693115234375,0.40960693359375
1759571305617,702613251,35490,4,0.81494140625,0.14569091796875,0.41253662109375
1759571305617,702613251,35490,5,0.805419921875,0.15570068359375,0.44232177734375
1759571305617,702613251,35490,6,0.78857421875,0.14959716796875,0.45770263671875
1759571305617,702613251,35490,7,0.830322265625,0.17376708984375,0.38494873046875
1759571305617,702613251,35490,8,0.816162109375,0.18817138671875,0.45550537109375
1759571305617,702613251,35490,9,0.80029296875,0.18621826171875,0.44793701171875
1759571305617,702613251,35490,10,0.78173828125,0.19696044921875,0.44427490234375
1759571305617,702613251,35490,11,0.792236328125,0.19256591796875,0.44305419921875
1759571305617,702613251,35490,12,0.805908203125,0.19818115234375,0.44110107421875
1759571305617,702613251,35490,13,0.80419921875,0.19964599609375,0.42108154296875
1759571305617,702613251,35490,14,0.808837890625,0.19525146484375,0.40643310546875
1759571305617,702613251,35490,15,0.81591796875,0.20721435546875,0.43231201171875
1759571305617,702613251,35490,16,0.810302734375,0.19598388671875,0.42083740234375
1759571305617,702613251,35490,17,0.80126953125,0.18011474609375,0.40252685546875
1759571305617,702613251,35490,18,0.828125,0.18035888671875,0.40692138671875
1759571305617,702613251,35490,19,0.830322265625,0.17498779296875,0.40594482421875
1759571305617,702613251,35490,20,0.820068359375,0.16522216796875,0.40960693359375
1759571305617,702613251,35490,21,0.8076171875,0.16131591796875,0.42279052734375
1759571305617,702613251,35490,22,0.792236328125,0.16375732421875,0.45452880859375
1759571305617,702613251,35490,23,0.80712890625,0.17279052734375,0.45477294921875
1759571305617,702613251,35490,24,0.817626953125,0.17059326171875,0.42059326171875
1759571305617,702613251,35490,25,0.812744140625,0.18841552734375,0.44818115234375
1759571305617,702613251,35490,26,0.802001953125,0.18914794921875,0.42962646484375
1759571305617,702613251,35490,27,0.803466796875,0.19012451171875,0.42816162109375
1759571305617,702613251,35490,28,0.80224609375,0.20208740234375,0.44281005859375
1759571305617,702613251,35490,29,0.805419921875,0.20062255859375,0.42840576171875
1759571305617,702613251,35490,30,0.82177734375,0.19207763671875,0.40155029296875
1759571305617,702613251,35490,31,0.80517578125,0.19866943359375,0.43109130859375
1759571308156,702615806,35491,0,0.8134765625,0.19305419921875,0.41278076171875
1759571308156,702615806,35491,1,0.826904296875,0.17913818359375,0.38226318359375
1759571308156,702615806,35491,2,0.8369140625,0.16790771484375,0.38885498046875
1759571308156,702615806,35491,3,0.83251953125,0.17132568359375,0.39495849609375
1759571308156,702615806,35491,4,0.816650390625,0.15521240234375,0.40277099609375
1759571308156,702615806,35491,5,0.814453125,0.15618896484375,0.41546630859375
1759571308156,702615806,35491,6,0.810546875,0.14837646484375,0.42401123046875
1759571308156,702615806,35491,7,0.80615234375,0.16424560546875,0.43450927734375
1759571308156,702615806,35491,8,0.826904296875,0.17669677734375,0.40814208984375
1759571308156,702615806,35491,9,0.813232421875,0.18572998046875,0.44964599609375
1759571308156,702615806,35491,10,0.800537109375,0.18768310546875,0.43426513671875
1759571308156,702615806,35491,11,0.79833984375,0.19012451171875,0.42425537109375
1759571308156,702615806,35491,12,0.812744140625,0.19769287109375,0.43035888671875
1759571308156,702615806,35491,13,0.8037109375,0.20013427734375,0.43157958984375
1759571308156,702615806,35491,14,0.815673828125,0.21331787109375,0.40301513671875
1759571308156,702615806,35491,15,0.816162109375,0.19720458984375,0.40692138671875
1759571308156,702615806,35491,16,0.811279296875,0.20989990234375,0.41912841796875
1759571308156,702615806,35491,17,0.8203125,0.19964599609375,0.39300537109375
1759571308156,702615806,35491,18,0.830078125,0.19525146484375,0.38616943359375
1759571308156,702615806,35491,19,0.82958984375,0.18841552734375,0.39129638671875
1759571308156,702615806,35491,20,0.825439453125,0.17864990234375,0.40057373046875
1759571308156,702615806,35491,21,0.816162109375,0.17132568359375,0.39910888671875
1759571308156,702615806,35491,22,0.825439453125,0.15399169921875,0.41278076171875
1759571308156,702615806,35491,23,0.802490234375,0.17645263671875,0.43963623046875
1759571308156,702615806,35491,24,0.802490234375,0.17327880859375,0.42938232421875
1759571308156,702615806,35491,25,0.817626953125,0.19110107421875,0.42108154296875
1759571308156,702615806,35491,26,0.8125,0.19354248046875,0.42938232421875
1759571308156,702615806,35491,27,0.7900390625,0.19158935546875,0.44598388671875
1759571308156,702615806,35491,28,0.78955078125,0.19720458984375,0.43572998046875
1759571308156,702615806,35491,29,0.810791015625,0.20501708984375,0.42889404296875
1759571308156,702615806,35491,30,0.8125,0.20867919921875,0.41424560546875
1759571308156,702615806,35491,31,0.815673828125,0.20672607421875,0.40618896484375
1759571310690,702618361,35492,0,0.80419921875,0.20941162109375,0.43109130859375
1759571310690,702618361,35492,1,0.814208984375,0.19012451171875,0.41033935546875
1759571310690,702618361,35492,2,0.81494140625,0.19110107421875,0.40032958984375
1759571310690,702618361,35492,3,0.818603515625,0.17816162109375,0.39544677734375
1759571310690,702618361,35492,4,0.825927734375,0.18206787109375,0.40472412109375
1759571310690,702618361,35492,5,0.816650390625,0.16693115234375,0.40960693359375
1759571310690,702618361,35492,6,0.802490234375,0.15692138671875,0.41888427734375
1759571310690,702618361,35492,7,0.80126953125,0.12689208984375,0.42791748046875
1759571310690,702618361,35492,8,0.820556640625,0.15692138671875,0.41058349609375
1759571310690,702618361,35492,9,0.81298828125,0.19012451171875,0.44061279296875
1759571310690,702618361,35492,10,0.802490234375,0.18450927734375,0.43890380859375
1759571310690,702618361,35492,11,0.7890625,0.19769287109375,0.44818115234375
1759571310690,702618361,35492,12,0.801513671875,0.19232177734375,0.43695068359375
1759571310690,702618361,35492,13,0.80810546875,0.20037841796875,0.43328857421875
1759571310690,702618361,35492,14,0.803955078125,0.20599365234375,0.42523193359375
1759571310690,702618361,35492,15,0.807861328125,0.19818115234375,0.41888427734375
1759571310690,702618361,35492,16,0.81103515625,0.19964599609375,0.43841552734375
1759571310690,702618361,35492,17,0.79638671875,0.18939208984375,0.43035888671875
1759571310690,702618361,35492,18,0.80615234375,0.18963623046875,0.40985107421875
1759571310690,702618361,35492,19,0.819580078125,0.18157958984375,0.41033935546875
1759571310690,702618361,35492,20,0.81103515625,0.17401123046875,0.42498779296875
1759571310690,702618361,35492,21,0.810546875,0.16497802734375,0.40521240234375
1759571310690,702618361,35492,22,0.80029296875,0.16815185546875,0.42962646484375
1759571310690,702618361,35492,23,0.791748046875,0.16839599609375,0.44256591796875
1759571310690,702618361,35492,24,0.817138671875,0.16619873046875,0.43133544921875
1759571310690,702618361,35492,25,0.82568359375,0.19720458984375,0.41888427734375
1759571310690,702618361,35492,26,0.808837890625,0.19378662109375,0.43939208984375
1759571310690,702618361,35492,27,0.794189453125,0.18939208984375,0.43963623046875
1759571310690,702618361,35492,28,0.7978515625,0.19818115234375,0.43768310546875
1759571310690,702618361,35492,29,0.80810546875,0.20184326171875,0.43206787109375
1759571310690,702618361,35492,30,0.811767578125,0.19378662109375,0.40643310546875
1759571310690,702618361,35492,31,0.82958984375,0.21746826171875,0.40618896484375
1759571313225,702620916,35493,0,0.810546875,0.19329833984375,0.42034912109375
1759571313225,702620916,35493,1,0.8095703125,0.19500732421875,0.40887451171875
1759571313225,702620916,35493,2,0.812255859375,0.17767333984375,0.40350341796875
1759571313225,702620916,35493,3,0.828125,0.17254638671875,0.40570068359375
1759571313225,702620916,35493,4,0.813720703125,0.16986083984375,0.41351318359375
1759571313225,702620916,35493,5,0.796875,0.15887451171875,0.43035888671875
1759571313225,702620916,35493,6,0.7841796875,0.15936279296875,0.45989990234375
1759571313225,702620916,35493,7,0.82080078125,0.16619873046875,0.40985107421875
