receivedPhoneTimestamp,respeckTimestamp,packetSeqNum,sampleSeqNum,accelX,accelY,accelZ
1760105686090,1201152075,18561,13,-0.619140625,-0.13604736328125,0.69500732421875
1760105686090,1201152075,18561,14,-0.632568359375,-0.15313720703125,0.72357177734375
1760105686090,1201152075,18561,15,-0.65771484375,-0.21441650390625,0.72576904296875
1760105686090,1201152075,18561,16,-0.647705078125,-0.20220947265625,0.70745849609375
1760105686090,1201152075,18561,17,-0.6435546875,-0.13433837890625,0.68572998046875
1760105686090,1201152075,18561,18,-0.650146484375,-0.15142822265625,0.71405029296875
1760105686090,1201152075,18561,19,-0.65673828125,-0.22174072265625,0.71405029296875
1760105686090,1201152075,18561,20,-0.664306640625,-0.20904541015625,0.71942138671875
1760105686090,1201152075,18561,21,-0.638671875,-0.13067626953125,0.69818115234375
1760105686090,1201152075,18561,22,-0.6298828125,-0.11700439453125,0.71234130859375
1760105686090,1201152075,18561,23,-0.609375,-0.18975830078125,0.72430419921875
1760105686090,1201152075,18561,24,-0.679931640625,-0.21832275390625,0.69989013671875
1760105686090,1201152075,18561,25,-0.6875,-0.19927978515625,0.68841552734375
1760105686090,1201152075,18561,26,-0.619873046875,-0.10699462890625,0.68670654296875
1760105686090,1201152075,18561,27,-0.655517578125,-0.13824462890625,0.73040771484375
1760105686090,1201152075,18561,28,-0.675048828125,-0.23931884765625,0.70501708984375
1760105686090,1201152075,18561,29,-0.647216796875,-0.18389892578125,0.70281982421875
1760105686090,1201152075,18561,30,-0.657470703125,-0.11627197265625,0.68182373046875
1760105686090,1201152075,18561,31,-0.665283203125,-0.18438720703125,0.70721435546875
1760105688876,1201154666,18562,0,-0.66162109375,-0.23052978515625,0.70892333984375
1760105688876,1201154666,18562,1,-0.6689453125,-0.17364501953125,0.70306396484375
1760105688876,1201154666,18562,2,-0.6533203125,-0.10504150390625,0.69476318359375
1760105688876,1201154666,18562,3,-0.6328125,-0.12579345703125,0.70989990234375
1760105688876,1201154666,18562,4,-0.619140625,-0.17242431640625,0.73797607421875
1760105688876,1201154666,18562,5,-0.6435546875,-0.18878173828125,0.71502685546875
1760105688876,1201154666,18562,6,-0.634033203125,-0.13775634765625,0.71795654296875
1760105688876,1201154666,18562,7,-0.6240234375,-0.12042236328125,0.70233154296875
1760105688876,1201154666,18562,8,-0.6572265625,-0.16339111328125,0.73699951171875
1760105688876,1201154666,18562,9,-0.657958984375,-0.24298095703125,0.71380615234375
1760105688876,1201154666,18562,10,-0.6357421875,-0.18341064453125,0.71453857421875
1760105688876,1201154666,18562,11,-0.651611328125,-0.10040283203125,0.70306396484375
1760105688876,1201154666,18562,12,-0.617431640625,-0.12603759765625,0.71844482421875
1760105688876,1201154666,18562,13,-0.623291015625,-0.18658447265625,0.74407958984375
1760105688876,1201154666,18562,14,-0.644287109375,-0.19390869140625,0.74554443359375
1760105688876,1201154666,18562,15,-0.6376953125,-0.14556884765625,0.68646240234375
1760105688876,1201154666,18562,16,-0.6552734375,-0.10479736328125,0.69427490234375
1760105688876,1201154666,18562,17,-0.65771484375,-0.15509033203125,0.74212646484375
1760105688876,1201154666,18562,18,-0.6103515625,-0.19244384765625,0.73138427734375
1760105688876,1201154666,18562,19,-0.55419921875,-0.14678955078125,0.74261474609375
1760105688876,1201154666,18562,20,-0.568359375,-0.13726806640625,0.72869873046875
1760105688876,1201154666,18562,21,-0.607421875,-0.18585205078125,0.73699951171875
1760105688876,1201154666,18562,22,-0.66650390625,-0.23516845703125,0.70794677734375
1760105688876,1201154666,18562,23,-0.6865234375,-0.20953369140625,0.69403076171875
1760105688876,1201154666,18562,24,-0.6904296875,-0.14727783203125,0.68865966796875
1760105688876,1201154666,18562,25,-0.66455078125,-0.17926025390625,0.69549560546875
1760105688876,1201154666,18562,26,-0.63671875,-0.22760009765625,0.72674560546875
1760105688876,1201154666,18562,27,-0.592529296875,-0.17852783203125,0.74554443359375
1760105688876,1201154666,18562,28,-0.559814453125,-0.08917236328125,0.71795654296875
1760105688876,1201154666,18562,29,-0.630615234375,-0.07891845703125,0.71356201171875
1760105688876,1201154666,18562,30,-0.71533203125,-0.18414306640625,0.72894287109375
1760105688876,1201154666,18562,31,-0.65966796875,-0.26080322265625,0.70330810546875
1760105691660,1201157258,18563,0,-0.627197265625,-0.18438720703125,0.71380615234375
1760105691660,1201157258,18563,1,-0.624755859375,-0.13897705078125,0.70672607421875
1760105691660,1201157258,18563,2,-0.59814453125,-0.15728759765625,0.73773193359375
1760105691660,1201157258,18563,3,-0.60205078125,-0.17706298828125,0.75457763671875
1760105691660,1201157258,18563,4,-0.617431640625,-0.16168212890625,0.73895263671875
1760105691660,1201157258,18563,5,-0.630126953125,-0.12872314453125,0.71600341796875
1760105691660,1201157258,18563,6,-0.603515625,-0.13336181640625,0.72454833984375
1760105691660,1201157258,18563,7,-0.587646484375,-0.17633056640625,0.75335693359375
1760105691660,1201157258,18563,8,-0.628662109375,-0.18585205078125,0.73602294921875
1760105691660,1201157258,18563,9,-0.625732421875,-0.14385986328125,0.71624755859375
1760105691660,1201157258,18563,10,-0.646240234375,-0.12872314453125,0.69378662109375
1760105691660,1201157258,18563,11,-0.6015625,-0.10137939453125,0.71087646484375
1760105691660,1201157258,18563,12,-0.705322265625,-0.17169189453125,0.76019287109375
1760105691660,1201157258,18563,13,-0.62646484375,-0.19561767578125,0.70623779296875
1760105691660,1201157258,18563,14,-0.638427734375,-0.10601806640625,0.71087646484375
1760105691660,1201157258,18563,15,-0.636474609375,-0.12677001953125,0.72283935546875
1760105691660,1201157258,18563,16,-0.602783203125,-0.15142822265625,0.74456787109375
1760105691660,1201157258,18563,17,-0.641357421875,-0.16192626953125,0.73846435546875
1760105691660,1201157258,18563,18,-0.63671875,-0.15411376953125,0.70623779296875
1760105691660,1201157258,18563,19,-0.64892578125,-0.12652587890625,0.70477294921875
1760105691660,1201157258,18563,20,-0.635009765625,-0.13897705078125,0.73358154296875
1760105691660,1201157258,18563,21,-0.64501953125,-0.17584228515625,0.71478271484375
1760105691660,1201157258,18563,22,-0.636962890625,-0.15191650390625,0.72113037109375
1760105691660,1201157258,18563,23,-0.62646484375,-0.11822509765625,0.70721435546875
1760105691660,1201157258,18563,24,-0.62939453125,-0.13262939453125,0.72943115234375
1760105691660,1201157258,18563,25,-0.631591796875,-0.17047119140625,0.74017333984375
1760105691660,1201157258,18563,26,-0.64501953125,-0.17999267578125,0.72454833984375
1760105691660,1201157258,18563,27,-0.635009765625,-0.13922119140625,0.70599365234375
1760105691660,1201157258,18563,28,-0.627197265625,-0.11724853515625,0.71234130859375
1760105691660,1201157258,18563,29,-0.62646484375,-0.14874267578125,0.73699951171875
1760105691660,1201157258,18563,30,-0.63916015625,-0.18536376953125,0.72772216796875
1760105691660,1201157258,18563,31,-0.61865234375,-0.15264892578125,0.72943115234375
1760105694045,1201159849,18564,0,-0.602783203125,-0.10772705078125,0.70452880859375
1760105694045,1201159849,18564,1,-0.658935546875,-0.12725830078125,0.70965576171875
1760105694045,1201159849,18564,2,-0.701904296875,-0.18853759765625,0.70550537109375
1760105694045,1201159849,18564,3,-0.66259765625,-0.18365478515625,0.70623779296875
1760105694045,1201159849,18564,4,-0.59326171875,-0.16656494140625,0.72845458984375
1760105694045,1201159849,18564,5,-0.6005859375,-0.17950439453125,0.71893310546875
1760105694045,1201159849,18564,6,-0.6083984375,-0.18707275390625,0.74407958984375
1760105694045,1201159849,18564,7,-0.617431640625,-0.20684814453125,0.74017333984375
1760105694045,1201159849,18564,8,-0.63232421875,-0.18878173828125,0.71405029296875
1760105694045,1201159849,18564,9,-0.6494140625,-0.14825439453125,0.69573974609375
1760105694045,1201159849,18564,10,-0.653564453125,-0.12725830078125,0.71087646484375
1760105694045,1201159849,18564,11,-0.642822265625,-0.18951416015625,0.73089599609375
1760105694045,1201159849,18564,12,-0.627685546875,-0.22735595703125,0.72503662109375
1760105694045,1201159849,18564,13,-0.607666015625,-0.16607666015625,0.72137451171875
1760105694045,1201159849,18564,14,-0.6318359375,-0.12823486328125,0.70989990234375
1760105694045,1201159849,18564,15,-0.638916015625,-0.15606689453125,0.74066162109375
1760105694045,1201159849,18564,16,-0.62353515625,-0.19732666015625,0.72235107421875
1760105694045,1201159849,18564,17,-0.6318359375,-0.17779541015625,0.72406005859375
1760105694045,1201159849,18564,18,-0.632568359375,-0.14141845703125,0.72039794921875
1760105694045,1201159849,18564,19,-0.59716796875,-0.13482666015625,0.72528076171875
1760105694045,1201159849,18564,20,-0.587646484375,-0.17803955078125,0.74261474609375
1760105694045,1201159849,18564,21,-0.63671875,-0.22003173828125,0.72601318359375
1760105694045,1201159849,18564,22,-0.630859375,-0.19317626953125,0.71160888671875
1760105694045,1201159849,18564,23,-0.6591796875,-0.15972900390625,0.68743896484375
1760105694045,1201159849,18564,24,-0.681640625,-0.16729736328125,0.72479248046875
1760105694045,1201159849,18564,25,-0.6572265625,-0.20733642578125,0.72113037109375
1760105694045,1201159849,18564,26,-0.613037109375,-0.17413330078125,0.72259521484375
1760105694045,1201159849,18564,27,-0.60107421875,-0.13824462890625,0.71136474609375
1760105694045,1201159849,18564,28,-0.604736328125,-0.15679931640625,0.73162841796875
1760105694045,1201159849,18564,29,-0.63037109375,-0.19537353515625,0.73431396484375
1760105694045,1201159849,18564,30,-0.64453125,-0.19317626953125,0.71575927734375
1760105694045,1201159849,18564,31,-0.63671875,-0.16241455078125,0.70599365234375
1760105697024,1201162440,18565,0,-0.6484375,-0.16851806640625,0.70086669921875
1760105697024,1201162440,18565,1,-0.6455078125,-0.17974853515625,0.73162841796875
1760105697024,1201162440,18565,2,-0.641357421875,-0.20196533203125,0.73236083984375
1760105697024,1201162440,18565,3,-0.60693359375,-0.16461181640625,0.73040771484375
1760105697024,1201162440,18565,4,-0.5986328125,-0.14093017578125,0.72259521484375
1760105697024,1201162440,18565,5,-0.59619140625,-0.14459228515625,0.73919677734375
1760105697024,1201162440,18565,6,-0.60009765625,-0.17510986328125,0.75921630859375
1760105697024,1201162440,18565,7,-0.601806640625,-0.17999267578125,0.74285888671875
1760105697024,1201162440,18565,8,-0.61962890625,-0.15045166015625,0.71844482421875
1760105697024,1201162440,18565,9,-0.61474609375,-0.14263916015625,0.71795654296875
1760105697024,1201162440,18565,10,-0.61474609375,-0.18096923828125,0.74505615234375
1760105697024,1201162440,18565,11,-0.629150390625,-0.22052001953125,0.73504638671875
1760105697024,1201162440,18565,12,-0.62646484375,-0.18658447265625,0.72698974609375
1760105697024,1201162440,18565,13,-0.6337890625,-0.14044189453125,0.71527099609375
1760105697024,1201162440,18565,14,-0.61279296875,-0.15093994140625,0.72747802734375
1760105697024,1201162440,18565,15,-0.6162109375,-0.19171142578125,0.74822998046875
1760105697024,1201162440,18565,16,-0.620849609375,-0.19781494140625,0.73504638671875
1760105697024,1201162440,18565,17,-0.605712890625,-0.15386962890625,0.72113037109375
1760105697024,1201162440,18565,18,-0.614013671875,-0.13140869140625,0.72332763671875
1760105697024,1201162440,18565,19,-0.611328125,-0.17095947265625,0.73773193359375
1760105697024,1201162440,18565,20,-0.620361328125,-0.21441650390625,0.74481201171875
1760105697024,1201162440,18565,21,-0.623291015625,-0.18048095703125,0.72674560546875
1760105697024,1201162440,18565,22,-0.62841796875,-0.13702392578125,0.71282958984375
1760105697024,1201162440,18565,23,-0.610595703125,-0.14141845703125,0.72088623046875
1760105697024,1201162440,18565,24,-0.613037109375,-0.18243408203125,0.75482177734375
1760105697024,1201162440,18565,25,-0.61865234375,-0.21466064453125,0.73895263671875
1760105697024,1201162440,18565,26,-0.620849609375,-0.17926025390625,0.72821044921875
1760105697024,1201162440,18565,27,-0.622802734375,-0.12921142578125,0.70623779296875
1760105697024,1201162440,18565,28,-0.610107421875,-0.14825439453125,0.72869873046875
1760105697024,1201162440,18565,29,-0.61181640625,-0.21173095703125,0.74896240234375
1760105697024,1201162440,18565,30,-0.627197265625,-0.20465087890625,0.72625732421875
1760105697024,1201162440,18565,31,-0.618896484375,-0.13922119140625,0.71331787109375
1760105699609,1201165031,18566,0,-0.619140625,-0.12530517578125,0.72113037109375
1760105699609,1201165031,18566,1,-0.608642578125,-0.17974853515625,0.73406982421875
1760105699609,1201165031,18566,2,-0.62255859375,-0.21636962890625,0.75018310546875
1760105699609,1201165031,18566,3,-0.6259765625,-0.19171142578125,0.72821044921875
1760105699609,1201165031,18566,4,-0.61572265625,-0.13653564453125,0.71160888671875
1760105699609,1201165031,18566,5,-0.607421875,-0.14361572265625,0.72650146484375
1760105699609,1201165031,18566,6,-0.615966796875,-0.20977783203125,0.75579833984375
1760105699609,1201165031,18566,7,-0.6416015625,-0.21759033203125,0.73040771484375
1760105699609,1201165031,18566,8,-0.62109375,-0.15118408203125,0.70574951171875
1760105699609,1201165031,18566,9,-0.603515625,-0.09381103515625,0.69476318359375
1760105699609,1201165031,18566,10,-0.635986328125,-0.17681884765625,0.75726318359375
1760105699609,1201165031,18566,11,-0.6435546875,-0.24176025390625,0.75433349609375
1760105699609,1201165031,18566,12,-0.599853515625,-0.20513916015625,0.72332763671875
1760105699609,1201165031,18566,13,-0.61669921875,-0.14678955078125,0.71697998046875
1760105699609,1201165031,18566,14,-0.626953125,-0.12872314453125,0.71160888671875
1760105699609,1201165031,18566,15,-0.639892578125,-0.17877197265625,0.73016357421875
1760105699609,1201165031,18566,16,-0.63427734375,-0.21051025390625,0.72821044921875
1760105699609,1201165031,18566,17,-0.62646484375,-0.18975830078125,0.73431396484375
1760105699609,1201165031,18566,18,-0.6123046875,-0.14434814453125,0.70281982421875
1760105699609,1201165031,18566,19,-0.614501953125,-0.13580322265625,0.71868896484375
1760105699609,1201165031,18566,20,-0.632568359375,-0.14971923828125,0.74090576171875
1760105699609,1201165031,18566,21,-0.613525390625,-0.19146728515625,0.74676513671875
1760105699609,1201165031,18566,22,-0.590576171875,-0.18536376953125,0.73162841796875
1760105699609,1201165031,18566,23,-0.611083984375,-0.16729736328125,0.71380615234375
1760105699609,1201165031,18566,24,-0.641357421875,-0.16094970703125,0.71673583984375
1760105699609,1201165031,18566,25,-0.67236328125,-0.19439697265625,0.71356201171875
1760105699609,1201165031,18566,26,-0.681396484375,-0.17999267578125,0.71185302734375
1760105699609,1201165031,18566,27,-0.646728515625,-0.14556884765625,0.70257568359375
1760105699609,1201165031,18566,28,-0.61376953125,-0.13970947265625,0.71527099609375
1760105699609,1201165031,18566,29,-0.594482421875,-0.17486572265625,0.74554443359375
1760105699609,1201165031,18566,30,-0.6025390625,-0.20977783203125,0.74310302734375
1760105699609,1201165031,18566,31,-0.62158203125,-0.18682861328125,0.72381591796875
1760105701797,1201167622,18567,0,-0.646728515625,-0.12530517578125,0.70843505859375
1760105701797,1201167622,18567,1,-0.63037109375,-0.13531494140625,0.71697998046875
1760105701797,1201167622,18567,2,-0.6337890625,-0.17169189453125,0.72308349609375
1760105701797,1201167622,18567,3,-0.654052734375,-0.22393798828125,0.72723388671875
1760105701797,1201167622,18567,4,-0.6279296875,-0.17266845703125,0.71844482421875
1760105701797,1201167622,18567,5,-0.629150390625,-0.14117431640625,0.71405029296875
1760105701797,1201167622,18567,6,-0.61962890625,-0.16119384765625,0.73455810546875
1760105701797,1201167622,18567,7,-0.625244140625,-0.19366455078125,0.72894287109375
1760105701797,1201167622,18567,8,-0.62744140625,-0.17193603515625,0.72650146484375
1760105701797,1201167622,18567,9,-0.61669921875,-0.13336181640625,0.71331787109375
1760105701797,1201167622,18567,10,-0.6259765625,-0.14678955078125,0.72381591796875
1760105701797,1201167622,18567,11,-0.619873046875,-0.20294189453125,0.74407958984375
1760105701797,1201167622,18567,12,-0.63134765625,-0.19537353515625,0.72406005859375
1760105701797,1201167622,18567,13,-0.642333984375,-0.13702392578125,0.71771240234375
1760105701797,1201167622,18567,14,-0.621337890625,-0.14825439453125,0.72064208984375
1760105701797,1201167622,18567,15,-0.609130859375,-0.18560791015625,0.72601318359375
1760105701797,1201167622,18567,16,-0.613037109375,-0.19561767578125,0.73626708984375
1760105701797,1201167622,18567,17,-0.61865234375,-0.16754150390625,0.72430419921875
1760105701797,1201167622,18567,18,-0.644287109375,-0.14068603515625,0.72186279296875
1760105701797,1201167622,18567,19,-0.6201171875,-0.16339111328125,0.71917724609375
1760105701797,1201167622,18567,20,-0.6025390625,-0.18756103515625,0.71844482421875
1760105701797,1201167622,18567,21,-0.649658203125,-0.20831298828125,0.76019287109375
1760105701797,1201167622,18567,22,-0.6328125,-0.18341064453125,0.71624755859375
1760105701797,1201167622,18567,23,-0.6162109375,-0.13604736328125,0.70281982421875
1760105701797,1201167622,18567,24,-0.624755859375,-0.12847900390625,0.71868896484375
1760105701797,1201167622,18567,25,-0.615478515625,-0.18536376953125,0.74871826171875
1760105701797,1201167622,18567,26,-0.625,-0.22515869140625,0.74993896484375
1760105701797,1201167622,18567,27,-0.59765625,-0.18927001953125,0.70794677734375
1760105701797,1201167622,18567,28,-0.626708984375,-0.14044189453125,0.70916748046875
1760105701797,1201167622,18567,29,-0.637451171875,-0.14581298828125,0.71624755859375
1760105701797,1201167622,18567,30,-0.63525390625,-0.18829345703125,0.75091552734375
1760105701797,1201167622,18567,31,-0.61767578125,-0.20489501953125,0.73431396484375
1760105705570,1201170213,18568,0,-0.59228515625,-0.16412353515625,0.72381591796875
1760105705570,1201170213,18568,1,-0.59716796875,-0.13922119140625,0.72845458984375
1760105705570,1201170213,18568,2,-0.617919921875,-0.16119384765625,0.74090576171875
1760105705570,1201170213,18568,3,-0.6044921875,-0.18780517578125,0.75164794921875
1760105705570,1201170213,18568,4,-0.5966796875,-0.17169189453125,0.73114013671875
1760105705570,1201170213,18568,5,-0.636474609375,-0.12579345703125,0.70892333984375
1760105705570,1201170213,18568,6,-0.641845703125,-0.15460205078125,0.71966552734375
1760105705570,1201170213,18568,7,-0.629150390625,-0.21832275390625,0.73553466796875
1760105705570,1201170213,18568,8,-0.644775390625,-0.24786376953125,0.72503662109375
1760105705570,1201170213,18568,9,-0.639404296875,-0.17559814453125,0.70184326171875
1760105705570,1201170213,18568,10,-0.63232421875,-0.12139892578125,0.71575927734375
1760105705570,1201170213,18568,11,-0.61572265625,-0.16510009765625,0.74603271484375
1760105705570,1201170213,18568,12,-0.60498046875,-0.21441650390625,0.73724365234375
1760105705570,1201170213,18568,13,-0.608154296875,-0.18878173828125,0.71844482421875
1760105705570,1201170213,18568,14,-0.63720703125,-0.12969970703125,0.71697998046875
1760105705570,1201170213,18568,15,-0.613525390625,-0.13800048828125,0.73016357421875
1760105705570,1201170213,18568,16,-0.590087890625,-0.20074462890625,0.75579833984375
1760105705570,1201170213,18568,17,-0.622802734375,-0.20074462890625,0.72210693359375
1760105705570,1201170213,18568,18,-0.654541015625,-0.15899658203125,0.70672607421875
1760105705570,1201170213,18568,19,-0.63330078125,-0.14215087890625,0.71185302734375
1760105705570,1201170213,18568,20,-0.62646484375,-0.18463134765625,0.72723388671875
1760105705570,1201170213,18568,21,-0.618408203125,-0.23760986328125,0.74261474609375
1760105705570,1201170213,18568,22,-0.600830078125,-0.17022705078125,0.73870849609375
1760105705570,1201170213,18568,23,-0.626220703125,-0.10894775390625,0.71917724609375
1760105705570,1201170213,18568,24,-0.5986328125,-0.13311767578125,0.72698974609375
1760105705570,1201170213,18568,25,-0.611328125,-0.17706298828125,0.74725341796875
1760105705570,1201170213,18568,26,-0.63232421875,-0.21588134765625,0.73187255859375
1760105705570,1201170213,18568,27,-0.628662109375,-0.17706298828125,0.71649169921875
1760105705570,1201170213,18568,28,-0.638427734375,-0.13067626953125,0.71185302734375
1760105705570,1201170213,18568,29,-0.627685546875,-0.15045166015625,0.72723388671875
1760105705570,1201170213,18568,30,-0.619140625,-0.19610595703125,0.73968505859375
1760105705570,1201170213,18568,31,-0.610107421875,-0.18756103515625,0.73919677734375
1760105706961,1201172804,18569,0,-0.615234375,-0.13873291015625,0.71771240234375
1760105706961,1201172804,18569,1,-0.610107421875,-0.14093017578125,0.71917724609375
1760105706961,1201172804,18569,2,-0.619140625,-0.16265869140625,0.72161865234375
1760105706961,1201172804,18569,3,-0.626220703125,-0.19586181640625,0.74969482421875
1760105706961,1201172804,18569,4,-0.62939453125,-0.18707275390625,0.73382568359375
1760105706961,1201172804,18569,5,-0.617919921875,-0.13726806640625,0.71624755859375
1760105706961,1201172804,18569,6,-0.61083984375,-0.12579345703125,0.72821044921875
1760105706961,1201172804,18569,7,-0.607177734375,-0.17095947265625,0.73944091796875
1760105706961,1201172804,18569,8,-0.61328125,-0.21075439453125,0.74627685546875
1760105706961,1201172804,18569,9,-0.619140625,-0.17510986328125,0.72503662109375
1760105706961,1201172804,18569,10,-0.626953125,-0.11920166015625,0.70965576171875
1760105706961,1201172804,18569,11,-0.634033203125,-0.15264892578125,0.74212646484375
1760105706961,1201172804,18569,12,-0.619384765625,-0.20831298828125,0.73748779296875
1760105706961,1201172804,18569,13,-0.607666015625,-0.18707275390625,0.73211669921875
1760105706961,1201172804,18569,14,-0.618408203125,-0.12969970703125,0.72137451171875
1760105706961,1201172804,18569,15,-0.619140625,-0.13995361328125,0.72698974609375
1760105706961,1201172804,18569,16,-0.608642578125,-0.17706298828125,0.74090576171875
1760105706961,1201172804,18569,17,-0.6220703125,-0.20196533203125,0.73065185546875
1760105706961,1201172804,18569,18,-0.621337890625,-0.16314697265625,0.72723388671875
1760105706961,1201172804,18569,19,-0.619140625,-0.12823486328125,0.71917724609375
1760105706961,1201172804,18569,20,-0.60888671875,-0.15679931640625,0.73309326171875
1760105706961,1201172804,18569,21,-0.615966796875,-0.20220947265625,0.74578857421875
1760105706961,1201172804,18569,22,-0.622802734375,-0.19244384765625,0.73162841796875
1760105706961,1201172804,18569,23,-0.620849609375,-0.14434814453125,0.71478271484375
1760105706961,1201172804,18569,24,-0.623046875,-0.13507080078125,0.72625732421875
1760105706961,1201172804,18569,25,-0.60986328125,-0.17340087890625,0.73602294921875
1760105706961,1201172804,18569,26,-0.617919921875,-0.20196533203125,0.74066162109375
1760105706961,1201172804,18569,27,-0.61474609375,-0.17535400390625,0.73504638671875
1760105706961,1201172804,18569,28,-0.62451171875,-0.12945556640625,0.70794677734375
1760105706961,1201172804,18569,29,-0.622314453125,-0.13507080078125,0.72991943359375
1760105706961,1201172804,18569,30,-0.605712890625,-0.19732666015625,0.73675537109375
1760105706961,1201172804,18569,31,-0.617919921875,-0.19635009765625,0.74847412109375
1760105709942,1201175396,18570,0,-0.607421875,-0.14752197265625,0.72015380859375
1760105709942,1201175396,18570,1,-0.625732421875,-0.12115478515625,0.72772216796875
1760105709942,1201175396,18570,2,-0.613525390625,-0.16510009765625,0.73992919921875
1760105709942,1201175396,18570,3,-0.61865234375,-0.20318603515625,0.73431396484375
1760105709942,1201175396,18570,4,-0.623291015625,-0.17291259765625,0.73382568359375
1760105709942,1201175396,18570,5,-0.622802734375,-0.14117431640625,0.71209716796875
1760105709942,1201175396,18570,6,-0.6201171875,-0.14678955078125,0.73089599609375
1760105709942,1201175396,18570,7,-0.60791015625,-0.18096923828125,0.73846435546875
1760105709942,1201175396,18570,8,-0.62744140625,-0.19097900390625,0.73748779296875
1760105709942,1201175396,18570,9,-0.6201171875,-0.15289306640625,0.72113037109375
1760105709942,1201175396,18570,10,-0.62451171875,-0.12847900390625,0.72283935546875
1760105709942,1201175396,18570,11,-0.61181640625,-0.15411376953125,0.72381591796875
1760105709942,1201175396,18570,12,-0.627197265625,-0.20001220703125,0.74114990234375
1760105709942,1201175396,18570,13,-0.627197265625,-0.18756103515625,0.72967529296875
1760105709942,1201175396,18570,14,-0.62060546875,-0.13287353515625,0.71795654296875
1760105709942,1201175396,18570,15,-0.61083984375,-0.11846923828125,0.72552490234375
1760105709942,1201175396,18570,16,-0.61865234375,-0.16925048828125,0.74822998046875
1760105709942,1201175396,18570,17,-0.628173828125,-0.20904541015625,0.73577880859375
1760105709942,1201175396,18570,18,-0.614501953125,-0.17388916015625,0.72747802734375
1760105709942,1201175396,18570,19,-0.61572265625,-0.11944580078125,0.71014404296875
1760105709942,1201175396,18570,20,-0.6171875,-0.16412353515625,0.74822998046875
1760105709942,1201175396,18570,21,-0.6044921875,-0.22271728515625,0.74627685546875
1760105709942,1201175396,18570,22,-0.603271484375,-0.18267822265625,0.74066162109375
1760105709942,1201175396,18570,23,-0.616455078125,-0.11773681640625,0.71868896484375
1760105709942,1201175396,18570,24,-0.609130859375,-0.14166259765625,0.73431396484375
1760105709942,1201175396,18570,25,-0.59765625,-0.17413330078125,0.73382568359375
1760105709942,1201175396,18570,26,-0.618408203125,-0.21978759765625,0.76068115234375
1760105709942,1201175396,18570,27,-0.61376953125,-0.19073486328125,0.73236083984375
1760105709942,1201175396,18570,28,-0.605712890625,-0.12847900390625,0.70623779296875
1760105709942,1201175396,18570,29,-0.6171875,-0.12554931640625,0.72235107421875
1760105709942,1201175396,18570,30,-0.64453125,-0.19879150390625,0.75091552734375
1760105709942,1201175396,18570,31,-0.633056640625,-0.22418212890625,0.74066162109375
1760105712319,1201177987,18571,0,-0.601318359375,-0.19708251953125,0.72552490234375
1760105712319,1201177987,18571,1,-0.605224609375,-0.16168212890625,0.70965576171875
1760105712319,1201177987,18571,2,-0.603759765625,-0.14434814453125,0.72943115234375
1760105712319,1201177987,18571,3,-0.61328125,-0.19268798828125,0.75628662109375
1760105712319,1201177987,18571,4,-0.6103515625,-0.21661376953125,0.73944091796875
1760105712319,1201177987,18571,5,-0.60791015625,-0.18341064453125,0.73211669921875
1760105712319,1201177987,18571,6,-0.61083984375,-0.15386962890625,0.72650146484375
1760105712319,1201177987,18571,7,-0.6259765625,-0.16094970703125,0.76507568359375
1760105712319,1201177987,18571,8,-0.58544921875,-0.24981689453125,0.73358154296875
1760105712319,1201177987,18571,9,-0.530029296875,-0.21539306640625,0.72967529296875
1760105712319,1201177987,18571,10,-0.5859375,-0.18389892578125,0.76727294921875
1760105712319,1201177987,18571,11,-0.600341796875,-0.12457275390625,0.72796630859375
1760105712319,1201177987,18571,12,-0.599365234375,-0.16241455078125,0.78094482421875
1760105712319,1201177987,18571,13,-0.5673828125,-0.26959228515625,0.79168701171875
1760105712319,1201177987,18571,14,-0.559326171875,-0.19830322265625,0.71234130859375
1760105712319,1201177987,18571,15,-0.584716796875,-0.13189697265625,0.77362060546875
1760105712319,1201177987,18571,16,-0.589599609375,-0.12701416015625,0.76068115234375
1760105712319,1201177987,18571,17,-0.5771484375,-0.21783447265625,0.74896240234375
1760105712319,1201177987,18571,18,-0.596435546875,-0.20684814453125,0.74969482421875
1760105712319,1201177987,18571,19,-0.58984375,-0.13604736328125,0.71356201171875
1760105712319,1201177987,18571,20,-0.625244140625,-0.13897705078125,0.76458740234375
1760105712319,1201177987,18571,21,-0.593505859375,-0.18780517578125,0.75579833984375
1760105712319,1201177987,18571,22,-0.5869140625,-0.18609619140625,0.76068115234375
1760105712319,1201177987,18571,23,-0.58056640625,-0.16021728515625,0.74920654296875
1760105712319,1201177987,18571,24,-0.580322265625,-0.14508056640625,0.74822998046875
1760105712319,1201177987,18571,25,-0.55322265625,-0.14044189453125,0.73577880859375
1760105712319,1201177987,18571,26,-0.611572265625,-0.19561767578125,0.75384521484375
1760105712319,1201177987,18571,27,-0.647216796875,-0.23297119140625,0.73651123046875
1760105712319,1201177987,18571,28,-0.64599609375,-0.17730712890625,0.70550537109375
1760105712319,1201177987,18571,29,-0.647216796875,-0.13018798828125,0.69818115234375
1760105712319,1201177987,18571,30,-0.617431640625,-0.16387939453125,0.74212646484375
1760105712319,1201177987,18571,31,-0.602294921875,-0.21343994140625,0.75555419921875
1760105714709,1201180578,18572,0,-0.587890625,-0.18927001953125,0.75628662109375
1760105714709,1201180578,18572,1,-0.57861328125,-0.14312744140625,0.73577880859375
1760105714709,1201180578,18572,2,-0.595703125,-0.12725830078125,0.73333740234375
1760105714709,1201180578,18572,3,-0.592529296875,-0.18121337890625,0.74261474609375
1760105714709,1201180578,18572,4,-0.61328125,-0.22344970703125,0.73992919921875
1760105714709,1201180578,18572,5,-0.612060546875,-0.20806884765625,0.74017333984375
1760105714709,1201180578,18572,6,-0.60693359375,-0.15069580078125,0.72674560546875
1760105714709,1201180578,18572,7,-0.59228515625,-0.14190673828125,0.73699951171875
1760105714709,1201180578,18572,8,-0.59814453125,-0.18731689453125,0.75286865234375
1760105714709,1201180578,18572,9,-0.60498046875,-0.22296142578125,0.73455810546875
1760105714709,1201180578,18572,10,-0.620361328125,-0.18902587890625,0.72918701171875
1760105714709,1201180578,18572,11,-0.61328125,-0.14581298828125,0.72039794921875
1760105714709,1201180578,18572,12,-0.610595703125,-0.14410400390625,0.72406005859375
1760105714709,1201180578,18572,13,-0.605224609375,-0.20684814453125,0.75579833984375
1760105714709,1201180578,18572,14,-0.62158203125,-0.23175048828125,0.73431396484375
1760105714709,1201180578,18572,15,-0.60986328125,-0.17071533203125,0.71282958984375
1760105714709,1201180578,18572,16,-0.616943359375,-0.12969970703125,0.72113037109375
1760105714709,1201180578,18572,17,-0.61767578125,-0.15924072265625,0.73968505859375
1760105714709,1201180578,18572,18,-0.626220703125,-0.22100830078125,0.73602294921875
1760105714709,1201180578,18572,19,-0.61669921875,-0.20562744140625,0.73284912109375
1760105714709,1201180578,18572,20,-0.612548828125,-0.14947509765625,0.72039794921875
1760105714709,1201180578,18572,21,-0.62158203125,-0.13092041015625,0.73211669921875
1760105714709,1201180578,18572,22,-0.607177734375,-0.14019775390625,0.75750732421875
1760105714709,1201180578,18572,23,-0.560546875,-0.23248291015625,0.74261474609375
1760105714709,1201180578,18572,24,-0.58203125,-0.26324462890625,0.73626708984375
1760105714709,1201180578,18572,25,-0.602783203125,-0.15997314453125,0.69061279296875
1760105714709,1201180578,18572,26,-0.662109375,-0.15557861328125,0.72674560546875
1760105714709,1201180578,18572,27,-0.677490234375,-0.25714111328125,0.70526123046875
1760105714709,1201180578,18572,28,-0.6513671875,-0.26715087890625,0.70306396484375
1760105714709,1201180578,18572,29,-0.6171875,-0.19683837890625,0.70233154296875
1760105714709,1201180578,18572,30,-0.638427734375,-0.13970947265625,0.70306396484375
1760105714709,1201180578,18572,31,-0.6494140625,-0.15557861328125,0.71405029296875
