receivedPhoneTimestamp,respeckTimestamp,packetSeqNum,sampleSeqNum,accelX,accelY,accelZ
1759912727918,1008211178,9161,0,-0.711181640625,-0.02154541015625,0.67523193359375
1759912727918,1008211178,9161,1,-0.6845703125,-0.04229736328125,0.67083740234375
1759912727918,1008211178,9161,2,-0.677490234375,-0.01544189453125,0.70941162109375
1759912727918,1008211178,9161,3,-0.6904296875,0.03192138671875,0.68792724609375
1759912727918,1008211178,9161,4,-0.649658203125,0.03094482421875,0.68865966796875
1759912727918,1008211178,9161,5,-0.687255859375,-0.00250244140625,0.69281005859375
1759912727918,1008211178,9161,6,-0.7158203125,-0.03546142578125,0.69232177734375
1759912727918,1008211178,9161,7,-0.680419921875,-0.03033447265625,0.68182373046875
1759912727918,1008211178,9161,8,-0.697509765625,0.01239013671875,0.67816162109375
1759912727918,1008211178,9161,9,-0.689208984375,0.00604248046875,0.67791748046875
1759912727918,1008211178,9161,10,-0.692138671875,-0.00885009765625,0.68011474609375
1759912727918,1008211178,9161,11,-0.696044921875,-0.01324462890625,0.68011474609375
1759912727918,1008211178,9161,12,-0.685546875,0.00213623046875,0.68817138671875
1759912727918,1008211178,9161,13,-0.695068359375,-0.01373291015625,0.68060302734375
1759912727918,1008211178,9161,14,-0.693603515625,-0.01251220703125,0.68280029296875
1759912727918,1008211178,9161,15,-0.699462890625,-0.01422119140625,0.68328857421875
1759912727918,1008211178,9161,16,-0.6943359375,-0.00665283203125,0.67767333984375
1759912727918,1008211178,9161,17,-0.711181640625,-0.01470947265625,0.68865966796875
1759912727918,1008211178,9161,18,-0.684814453125,-0.00982666015625,0.68475341796875
1759912727918,1008211178,9161,19,-0.692138671875,-0.02056884765625,0.68792724609375
1759912727918,1008211178,9161,20,-0.686767578125,-0.02496337890625,0.67279052734375
1759912727918,1008211178,9161,21,-0.701904296875,-0.02716064453125,0.67572021484375
1759912727918,1008211178,9161,22,-0.70849609375,-0.03204345703125,0.67889404296875
1759912727918,1008211178,9161,23,-0.702880859375,-0.04205322265625,0.67303466796875
1759912727918,1008211178,9161,24,-0.69970703125,-0.04840087890625,0.66204833984375
1759912727918,1008211178,9161,25,-0.717529296875,-0.06085205078125,0.64495849609375
1759912727918,1008211178,9161,26,-0.7099609375,-0.07135009765625,0.65570068359375
1759912727918,1008211178,9161,27,-0.7158203125,-0.05792236328125,0.65374755859375
1759912727918,1008211178,9161,28,-0.723388671875,-0.03912353515625,0.67718505859375
1759912727918,1008211178,9161,29,-0.686279296875,-0.07745361328125,0.67718505859375
1759912727918,1008211178,9161,30,-0.720947265625,-0.03057861328125,0.64666748046875
1759912727918,1008211178,9161,31,-0.740966796875,-0.04498291015625,0.66986083984375
1759912730322,1008213769,9162,0,-0.700439453125,-0.02252197265625,0.65692138671875
1759912730322,1008213769,9162,1,-0.74609375,-0.09991455078125,0.70477294921875
1759912730322,1008213769,9162,2,-0.713623046875,-0.06915283203125,0.69769287109375
1759912730322,1008213769,9162,3,-0.732666015625,-0.05474853515625,0.65716552734375
1759912730322,1008213769,9162,4,-0.6875,-0.02813720703125,0.63739013671875
1759912730322,1008213769,9162,5,-0.72216796875,-0.05987548828125,0.64910888671875
1759912730322,1008213769,9162,6,-0.7275390625,-0.05792236328125,0.64447021484375
1759912730322,1008213769,9162,7,-0.728759765625,-0.04669189453125,0.65399169921875
1759912730322,1008213769,9162,8,-0.71484375,-0.04229736328125,0.65325927734375
1759912730322,1008213769,9162,9,-0.716552734375,-0.08184814453125,0.63861083984375
1759912730322,1008213769,9162,10,-0.71630859375,-0.07379150390625,0.65740966796875
1759912730322,1008213769,9162,11,-0.70947265625,-0.07647705078125,0.66766357421875
1759912730322,1008213769,9162,12,-0.71484375,-0.08721923828125,0.66595458984375
1759912730322,1008213769,9162,13,-0.703125,-0.09503173828125,0.67596435546875
1759912730322,1008213769,9162,14,-0.701416015625,-0.09259033203125,0.68206787109375
1759912730322,1008213769,9162,15,-0.694091796875,-0.09771728515625,0.67987060546875
1759912730322,1008213769,9162,16,-0.692626953125,-0.09771728515625,0.69525146484375
1759912730322,1008213769,9162,17,-0.70166015625,-0.10040283203125,0.70404052734375
1759912730322,1008213769,9162,18,-0.699951171875,-0.10845947265625,0.69207763671875
1759912730322,1008213769,9162,19,-0.700439453125,-0.11114501953125,0.66912841796875
1759912730322,1008213769,9162,20,-0.69970703125,-0.09869384765625,0.67376708984375
1759912730322,1008213769,9162,21,-0.701904296875,-0.10211181640625,0.66741943359375
1759912730322,1008213769,9162,22,-0.7060546875,-0.08135986328125,0.65887451171875
1759912730322,1008213769,9162,23,-0.705078125,-0.07769775390625,0.65936279296875
1759912730322,1008213769,9162,24,-0.701416015625,-0.07989501953125,0.64447021484375
1759912730322,1008213769,9162,25,-0.691162109375,-0.08673095703125,0.64837646484375
1759912730322,1008213769,9162,26,-0.73095703125,-0.09698486328125,0.65692138671875
1759912730322,1008213769,9162,27,-0.700927734375,-0.10308837890625,0.67596435546875
1759912730322,1008213769,9162,28,-0.70556640625,-0.11090087890625,0.68597412109375
1759912730322,1008213769,9162,29,-0.69580078125,-0.11700439453125,0.68475341796875
1759912730322,1008213769,9162,30,-0.695556640625,-0.11260986328125,0.68035888671875
1759912730322,1008213769,9162,31,-0.69384765625,-0.10723876953125,0.68157958984375
1759912732868,1008216361,9163,0,-0.6923828125,-0.10797119140625,0.68157958984375
1759912732868,1008216361,9163,1,-0.68701171875,-0.11334228515625,0.69622802734375
1759912732868,1008216361,9163,2,-0.698486328125,-0.11822509765625,0.71771240234375
1759912732868,1008216361,9163,3,-0.709716796875,-0.12652587890625,0.68133544921875
1759912732868,1008216361,9163,4,-0.687255859375,-0.11163330078125,0.67132568359375
1759912732868,1008216361,9163,5,-0.698974609375,-0.10601806640625,0.65960693359375
1759912732868,1008216361,9163,6,-0.704345703125,-0.08746337890625,0.65325927734375
1759912732868,1008216361,9163,7,-0.712158203125,-0.08428955078125,0.67230224609375
1759912732868,1008216361,9163,8,-0.699951171875,-0.09649658203125,0.66058349609375
1759912732868,1008216361,9163,9,-0.690673828125,-0.08184814453125,0.64813232421875
1759912732868,1008216361,9163,10,-0.696044921875,-0.10504150390625,0.65179443359375
1759912732868,1008216361,9163,11,-0.728515625,-0.11358642578125,0.67620849609375
1759912732868,1008216361,9163,12,-0.697509765625,-0.11309814453125,0.68231201171875
1759912732868,1008216361,9163,13,-0.697509765625,-0.12847900390625,0.67083740234375
1759912732868,1008216361,9163,14,-0.688720703125,-0.12823486328125,0.68402099609375
1759912732868,1008216361,9163,15,-0.696533203125,-0.12164306640625,0.68377685546875
1759912732868,1008216361,9163,16,-0.6865234375,-0.11065673828125,0.68670654296875
1759912732868,1008216361,9163,17,-0.6904296875,-0.12725830078125,0.69720458984375
1759912732868,1008216361,9163,18,-0.692138671875,-0.13262939453125,0.70867919921875
1759912732868,1008216361,9163,19,-0.69775390625,-0.13189697265625,0.68548583984375
1759912732868,1008216361,9163,20,-0.69775390625,-0.13800048828125,0.68157958984375
1759912732868,1008216361,9163,21,-0.692626953125,-0.10845947265625,0.66082763671875
1759912732868,1008216361,9163,22,-0.699951171875,-0.09576416015625,0.66131591796875
1759912732868,1008216361,9163,23,-0.704833984375,-0.09234619140625,0.66326904296875
1759912732868,1008216361,9163,24,-0.706787109375,-0.08526611328125,0.65057373046875
1759912732868,1008216361,9163,25,-0.7001953125,-0.08892822265625,0.65692138671875
1759912732868,1008216361,9163,26,-0.6904296875,-0.09014892578125,0.63592529296875
1759912732868,1008216361,9163,27,-0.7265625,-0.13287353515625,0.67987060546875
1759912732868,1008216361,9163,28,-0.699951171875,-0.11041259765625,0.66058349609375
1759912732868,1008216361,9163,29,-0.693359375,-0.13238525390625,0.69403076171875
1759912732868,1008216361,9163,30,-0.69775390625,-0.13848876953125,0.67181396484375
1759912732868,1008216361,9163,31,-0.694091796875,-0.12774658203125,0.68475341796875
1759912735573,1008218952,9164,0,-0.68994140625,-0.12115478515625,0.67987060546875
1759912735573,1008218952,9164,1,-0.68701171875,-0.13409423828125,0.68255615234375
1759912735573,1008218952,9164,2,-0.6845703125,-0.13580322265625,0.71356201171875
1759912735573,1008218952,9164,3,-0.69921875,-0.14019775390625,0.70526123046875
1759912735573,1008218952,9164,4,-0.720458984375,-0.13580322265625,0.68231201171875
1759912735573,1008218952,9164,5,-0.677734375,-0.09967041015625,0.65960693359375
1759912735573,1008218952,9164,6,-0.708984375,-0.09283447265625,0.63836669921875
1759912735573,1008218952,9164,7,-0.716552734375,-0.08380126953125,0.65618896484375
1759912735573,1008218952,9164,8,-0.71533203125,-0.06231689453125,0.64837646484375
1759912735573,1008218952,9164,9,-0.70947265625,-0.07305908203125,0.65179443359375
1759912735573,1008218952,9164,10,-0.678955078125,-0.09722900390625,0.64886474609375
1759912735573,1008218952,9164,11,-0.733642578125,-0.10211181640625,0.66033935546875
1759912735573,1008218952,9164,12,-0.70263671875,-0.11480712890625,0.68548583984375
1759912735573,1008218952,9164,13,-0.6923828125,-0.12872314453125,0.68817138671875
1759912735573,1008218952,9164,14,-0.691162109375,-0.13946533203125,0.68524169921875
1759912735573,1008218952,9164,15,-0.690673828125,-0.13385009765625,0.68450927734375
1759912735573,1008218952,9164,16,-0.6806640625,-0.12066650390625,0.67718505859375
1759912735573,1008218952,9164,17,-0.69384765625,-0.13970947265625,0.69573974609375
1759912735573,1008218952,9164,18,-0.685546875,-0.13922119140625,0.70916748046875
1759912735573,1008218952,9164,19,-0.69580078125,-0.13848876953125,0.70941162109375
1759912735573,1008218952,9164,20,-0.677490234375,-0.16387939453125,0.67205810546875
1759912735573,1008218952,9164,21,-0.68994140625,-0.15777587890625,0.66912841796875
1759912735573,1008218952,9164,22,-0.6943359375,-0.13604736328125,0.68353271484375
1759912735573,1008218952,9164,23,-0.6875,-0.11651611328125,0.66668701171875
1759912735573,1008218952,9164,24,-0.6962890625,-0.11676025390625,0.66595458984375
1759912735573,1008218952,9164,25,-0.684326171875,-0.10675048828125,0.66619873046875
1759912735573,1008218952,9164,26,-0.693359375,-0.11358642578125,0.65765380859375
1759912735573,1008218952,9164,27,-0.69873046875,-0.14703369140625,0.67767333984375
1759912735573,1008218952,9164,28,-0.703857421875,-0.13214111328125,0.67230224609375
1759912735573,1008218952,9164,29,-0.698486328125,-0.14459228515625,0.68084716796875
1759912735573,1008218952,9164,30,-0.68505859375,-0.14508056640625,0.67205810546875
1759912735573,1008218952,9164,31,-0.691162109375,-0.13873291015625,0.68621826171875
1759912738271,1008221543,9165,0,-0.692626953125,-0.12750244140625,0.68231201171875
1759912738271,1008221543,9165,1,-0.684326171875,-0.13702392578125,0.69354248046875
1759912738271,1008221543,9165,2,-0.693115234375,-0.14312744140625,0.71429443359375
1759912738271,1008221543,9165,3,-0.7041015625,-0.15313720703125,0.70037841796875
1759912738271,1008221543,9165,4,-0.69970703125,-0.12554931640625,0.66326904296875
1759912738271,1008221543,9165,5,-0.691162109375,-0.12579345703125,0.65667724609375
1759912738271,1008221543,9165,6,-0.71044921875,-0.09796142578125,0.64617919921875
1759912738271,1008221543,9165,7,-0.715087890625,-0.08331298828125,0.65765380859375
1759912738271,1008221543,9165,8,-0.70556640625,-0.08941650390625,0.64764404296875
1759912738271,1008221543,9165,9,-0.700927734375,-0.09698486328125,0.65618896484375
1759912738271,1008221543,9165,10,-0.705078125,-0.09893798828125,0.64691162109375
1759912738271,1008221543,9165,11,-0.710693359375,-0.10260009765625,0.65863037109375
1759912738271,1008221543,9165,12,-0.710205078125,-0.11968994140625,0.67620849609375
1759912738271,1008221543,9165,13,-0.695556640625,-0.12457275390625,0.68206787109375
1759912738271,1008221543,9165,14,-0.69677734375,-0.13482666015625,0.68011474609375
1759912738271,1008221543,9165,15,-0.693603515625,-0.12725830078125,0.67572021484375
1759912738271,1008221543,9165,16,-0.695068359375,-0.12335205078125,0.68035888671875
1759912738271,1008221543,9165,17,-0.69580078125,-0.12994384765625,0.70086669921875
1759912738271,1008221543,9165,18,-0.705322265625,-0.12994384765625,0.70623779296875
1759912738271,1008221543,9165,19,-0.6943359375,-0.11798095703125,0.67352294921875
1759912738271,1008221543,9165,20,-0.6982421875,-0.10968017578125,0.67669677734375
1759912738271,1008221543,9165,21,-0.698486328125,-0.08868408203125,0.65277099609375
1759912738271,1008221543,9165,22,-0.703369140625,-0.08966064453125,0.66864013671875
1759912738271,1008221543,9165,23,-0.7001953125,-0.07476806640625,0.66571044921875
1759912738271,1008221543,9165,24,-0.695068359375,-0.06866455078125,0.65130615234375
1759912738271,1008221543,9165,25,-0.7021484375,-0.10357666015625,0.66937255859375
1759912738271,1008221543,9165,26,-0.70361328125,-0.11334228515625,0.66033935546875
1759912738271,1008221543,9165,27,-0.732666015625,-0.12628173828125,0.66302490234375
1759912738271,1008221543,9165,28,-0.72412109375,-0.11309814453125,0.65985107421875
1759912738271,1008221543,9165,29,-0.704345703125,-0.08453369140625,0.66058349609375
1759912738271,1008221543,9165,30,-0.707275390625,-0.10455322265625,0.67474365234375
1759912738271,1008221543,9165,31,-0.7109375,-0.10333251953125,0.66204833984375
1759912740672,1008224134,9166,0,-0.708251953125,-0.10528564453125,0.67938232421875
1759912740672,1008224134,9166,1,-0.707763671875,-0.10455322265625,0.69891357421875
1759912740672,1008224134,9166,2,-0.704833984375,-0.10235595703125,0.68377685546875
1759912740672,1008224134,9166,3,-0.71533203125,-0.10162353515625,0.64154052734375
1759912740672,1008224134,9166,4,-0.699462890625,-0.13433837890625,0.66571044921875
1759912740672,1008224134,9166,5,-0.710693359375,-0.09942626953125,0.65716552734375
1759912740672,1008224134,9166,6,-0.701171875,-0.10211181640625,0.66619873046875
1759912740672,1008224134,9166,7,-0.705810546875,-0.11505126953125,0.65545654296875
1759912740672,1008224134,9166,8,-0.71337890625,-0.10333251953125,0.66229248046875
1759912740672,1008224134,9166,9,-0.682861328125,-0.07769775390625,0.66595458984375
1759912740672,1008224134,9166,10,-0.711181640625,-0.11114501953125,0.67572021484375
1759912740672,1008224134,9166,11,-0.7109375,-0.13824462890625,0.68402099609375
1759912740672,1008224134,9166,12,-0.70458984375,-0.09820556640625,0.65081787109375
1759912740672,1008224134,9166,13,-0.68896484375,-0.08624267578125,0.67572021484375
1759912740672,1008224134,9166,14,-0.69580078125,-0.06036376953125,0.68280029296875
1759912740672,1008224134,9166,15,-0.72998046875,-0.10943603515625,0.68548583984375
1759912740672,1008224134,9166,16,-0.67529296875,-0.07427978515625,0.67205810546875
1759912740672,1008224134,9166,17,-0.709228515625,-0.10211181640625,0.68084716796875
1759912740672,1008224134,9166,18,-0.69677734375,-0.07623291015625,0.67108154296875
1759912740672,1008224134,9166,19,-0.6806640625,-0.07940673828125,0.68304443359375
1759912740672,1008224134,9166,20,-0.69775390625,-0.09503173828125,0.68109130859375
1759912740672,1008224134,9166,21,-0.7021484375,-0.10772705078125,0.66400146484375
1759912740672,1008224134,9166,22,-0.7314453125,-0.11212158203125,0.65423583984375
1759912740672,1008224134,9166,23,-0.71826171875,-0.09356689453125,0.66302490234375
1759912740672,1008224134,9166,24,-0.72412109375,-0.08917236328125,0.68743896484375
1759912740672,1008224134,9166,25,-0.720947265625,-0.06719970703125,0.66619873046875
1759912740672,1008224134,9166,26,-0.701904296875,-0.09210205078125,0.64764404296875
1759912740672,1008224134,9166,27,-0.726806640625,-0.08917236328125,0.64202880859375
1759912740672,1008224134,9166,28,-0.715576171875,-0.07623291015625,0.66107177734375
1759912740672,1008224134,9166,29,-0.705322265625,-0.07183837890625,0.65277099609375
1759912740672,1008224134,9166,30,-0.69970703125,-0.08184814453125,0.65057373046875
1759912740672,1008224134,9166,31,-0.715087890625,-0.09478759765625,0.65179443359375
1759912743222,1008226725,9167,0,-0.7060546875,-0.10089111328125,0.66229248046875
1759912743222,1008226725,9167,1,-0.717529296875,-0.10943603515625,0.69061279296875
1759912743222,1008226725,9167,2,-0.672119140625,-0.09844970703125,0.69696044921875
1759912743222,1008226725,9167,3,-0.683837890625,-0.12164306640625,0.68914794921875
1759912743222,1008226725,9167,4,-0.688232421875,-0.12066650390625,0.67694091796875
1759912743222,1008226725,9167,5,-0.703369140625,-0.12335205078125,0.68304443359375
1759912743222,1008226725,9167,6,-0.7119140625,-0.15411376953125,0.71331787109375
1759912743222,1008226725,9167,7,-0.666015625,-0.05523681640625,0.67913818359375
1759912743222,1008226725,9167,8,-0.684814453125,-0.09356689453125,0.67889404296875
1759912743222,1008226725,9167,9,-0.6826171875,-0.11822509765625,0.67938232421875
1759912743222,1008226725,9167,10,-0.706298828125,-0.12921142578125,0.66864013671875
1759912743222,1008226725,9167,11,-0.710205078125,-0.08868408203125,0.65789794921875
1759912743222,1008226725,9167,12,-0.69873046875,-0.08551025390625,0.65960693359375
1759912743222,1008226725,9167,13,-0.704345703125,-0.09869384765625,0.65960693359375
1759912743222,1008226725,9167,14,-0.70166015625,-0.10601806640625,0.66937255859375
1759912743222,1008226725,9167,15,-0.712646484375,-0.09747314453125,0.65838623046875
1759912743222,1008226725,9167,16,-0.714111328125,-0.09991455078125,0.66888427734375
1759912743222,1008226725,9167,17,-0.7080078125,-0.12310791015625,0.66790771484375
1759912743222,1008226725,9167,18,-0.72021484375,-0.11993408203125,0.67816162109375
1759912743222,1008226725,9167,19,-0.696044921875,-0.06451416015625,0.67449951171875
1759912743222,1008226725,9167,20,-0.6923828125,-0.06695556640625,0.69256591796875
1759912743222,1008226725,9167,21,-0.6865234375,-0.08795166015625,0.68963623046875
1759912743222,1008226725,9167,22,-0.73779296875,-0.09674072265625,0.66693115234375
1759912743222,1008226725,9167,23,-0.71240234375,-0.12164306640625,0.66326904296875
1759912743222,1008226725,9167,24,-0.70654296875,-0.08990478515625,0.65789794921875
1759912743222,1008226725,9167,25,-0.714111328125,-0.09063720703125,0.65667724609375
1759912743222,1008226725,9167,26,-0.69287109375,-0.08380126953125,0.65570068359375
1759912743222,1008226725,9167,27,-0.717041015625,-0.08477783203125,0.64739990234375
1759912743222,1008226725,9167,28,-0.69384765625,-0.09600830078125,0.65106201171875
1759912743222,1008226725,9167,29,-0.719482421875,-0.11456298828125,0.67083740234375
1759912743222,1008226725,9167,30,-0.6904296875,-0.11627197265625,0.69158935546875
1759912743222,1008226725,9167,31,-0.694580078125,-0.11187744140625,0.68060302734375
1759912745921,1008229316,9168,0,-0.68994140625,-0.12261962890625,0.68841552734375
1759912745921,1008229316,9168,1,-0.685791015625,-0.12261962890625,0.68841552734375
1759912745921,1008229316,9168,2,-0.6884765625,-0.12921142578125,0.70428466796875
1759912745921,1008229316,9168,3,-0.701171875,-0.14141845703125,0.71405029296875
1759912745921,1008229316,9168,4,-0.710205078125,-0.13629150390625,0.67401123046875
1759912745921,1008229316,9168,5,-0.681884765625,-0.08917236328125,0.65765380859375
1759912745921,1008229316,9168,6,-0.70751953125,-0.09527587890625,0.64691162109375
1759912745921,1008229316,9168,7,-0.710693359375,-0.09869384765625,0.65521240234375
1759912745921,1008229316,9168,8,-0.70654296875,-0.06842041015625,0.64520263671875
1759912745921,1008229316,9168,9,-0.701171875,-0.08355712890625,0.63568115234375
1759912745921,1008229316,9168,10,-0.70361328125,-0.11578369140625,0.66693115234375
1759912745921,1008229316,9168,11,-0.71923828125,-0.11529541015625,0.68109130859375
1759912745921,1008229316,9168,12,-0.688720703125,-0.11968994140625,0.69378662109375
1759912745921,1008229316,9168,13,-0.685791015625,-0.13140869140625,0.68817138671875
1759912745921,1008229316,9168,14,-0.68505859375,-0.12896728515625,0.68328857421875
1759912745921,1008229316,9168,15,-0.683837890625,-0.12115478515625,0.69110107421875
1759912745921,1008229316,9168,16,-0.696044921875,-0.13238525390625,0.70941162109375
1759912745921,1008229316,9168,17,-0.693359375,-0.13140869140625,0.69793701171875
1759912745921,1008229316,9168,18,-0.699462890625,-0.13702392578125,0.69427490234375
1759912745921,1008229316,9168,19,-0.693603515625,-0.11163330078125,0.64300537109375
1759912745921,1008229316,9168,20,-0.680908203125,-0.09527587890625,0.65692138671875
1759912745921,1008229316,9168,21,-0.712158203125,-0.10382080078125,0.66741943359375
1759912745921,1008229316,9168,22,-0.69921875,-0.09527587890625,0.66082763671875
1759912745921,1008229316,9168,23,-0.6962890625,-0.08428955078125,0.65960693359375
1759912745921,1008229316,9168,24,-0.68994140625,-0.10601806640625,0.65716552734375
1759912745921,1008229316,9168,25,-0.728271484375,-0.11456298828125,0.68109130859375
1759912745921,1008229316,9168,26,-0.686279296875,-0.10260009765625,0.68109130859375
1759912745921,1008229316,9168,27,-0.684814453125,-0.12554931640625,0.68890380859375
1759912745921,1008229316,9168,28,-0.682373046875,-0.12774658203125,0.69476318359375
1759912745921,1008229316,9168,29,-0.6875,-0.11749267578125,0.69696044921875
1759912745921,1008229316,9168,30,-0.703125,-0.12286376953125,0.70111083984375
1759912745921,1008229316,9168,31,-0.6953125,-0.12823486328125,0.69232177734375
1759912748473,1008231907,9169,0,-0.69677734375,-0.13897705078125,0.68328857421875
1759912748473,1008231907,9169,1,-0.671875,-0.08502197265625,0.63568115234375
1759912748473,1008231907,9169,2,-0.717041015625,-0.09893798828125,0.65887451171875
1759912748473,1008231907,9169,3,-0.703125,-0.10137939453125,0.66888427734375
1759912748473,1008231907,9169,4,-0.693603515625,-0.09259033203125,0.66644287109375
1759912748473,1008231907,9169,5,-0.70263671875,-0.08404541015625,0.66668701171875
1759912748473,1008231907,9169,6,-0.70166015625,-0.09674072265625,0.65667724609375
1759912748473,1008231907,9169,7,-0.710693359375,-0.10772705078125,0.67034912109375
1759912748473,1008231907,9169,8,-0.6953125,-0.10699462890625,0.68548583984375
1759912748473,1008231907,9169,9,-0.6875,-0.11749267578125,0.68353271484375
1759912748473,1008231907,9169,10,-0.6904296875,-0.12994384765625,0.68695068359375
1759912748473,1008231907,9169,11,-0.688232421875,-0.12457275390625,0.67742919921875
1759912748473,1008231907,9169,12,-0.691162109375,-0.12896728515625,0.69866943359375
1759912748473,1008231907,9169,13,-0.697021484375,-0.13360595703125,0.70330810546875
1759912748473,1008231907,9169,14,-0.689453125,-0.13385009765625,0.69183349609375
1759912748473,1008231907,9169,15,-0.681396484375,-0.12774658203125,0.68133544921875
1759912748473,1008231907,9169,16,-0.68603515625,-0.13043212890625,0.67327880859375
1759912748473,1008231907,9169,17,-0.682373046875,-0.11431884765625,0.67816162109375
1759912748473,1008231907,9169,18,-0.699462890625,-0.09991455078125,0.66815185546875
1759912748473,1008231907,9169,19,-0.69189453125,-0.11334228515625,0.66986083984375
1759912748473,1008231907,9169,20,-0.6826171875,-0.11065673828125,0.66033935546875
1759912748473,1008231907,9169,21,-0.696533203125,-0.12432861328125,0.67742919921875
1759912748473,1008231907,9169,22,-0.69482421875,-0.12823486328125,0.68548583984375
1759912748473,1008231907,9169,23,-0.6875,-0.13726806640625,0.67840576171875
1759912748473,1008231907,9169,24,-0.696044921875,-0.14215087890625,0.68084716796875
1759912748473,1008231907,9169,25,-0.69140625,-0.13702392578125,0.68011474609375
1759912748473,1008231907,9169,26,-0.685791015625,-0.13165283203125,0.69525146484375
1759912748473,1008231907,9169,27,-0.68310546875,-0.14312744140625,0.71307373046875
1759912748473,1008231907,9169,28,-0.689453125,-0.15191650390625,0.70257568359375
1759912748473,1008231907,9169,29,-0.684814453125,-0.14654541015625,0.66741943359375
1759912748473,1008231907,9169,30,-0.674072265625,-0.12408447265625,0.67913818359375
1759912748473,1008231907,9169,31,-0.701416015625,-0.12432861328125,0.65985107421875
1759912751023,1008234493,9170,0,-0.68408203125,-0.11505126953125,0.66522216796875
1759912751023,1008234493,9170,1,-0.70166015625,-0.11627197265625,0.66717529296875
1759912751023,1008234493,9170,2,-0.69384765625,-0.11383056640625,0.66180419921875
1759912751023,1008234493,9170,3,-0.70166015625,-0.11773681640625,0.66888427734375
1759912751023,1008234493,9170,4,-0.690673828125,-0.12457275390625,0.66424560546875
1759912751023,1008234493,9170,5,-0.700927734375,-0.13775634765625,0.68084716796875
1759912751023,1008234493,9170,6,-0.693359375,-0.13336181640625,0.67718505859375
1759912751023,1008234493,9170,7,-0.688720703125,-0.13555908203125,0.68231201171875
1759912751023,1008234493,9170,8,-0.681396484375,-0.13531494140625,0.68792724609375
1759912751023,1008234493,9170,9,-0.686279296875,-0.14337158203125,0.70330810546875
1759912751023,1008234493,9170,10,-0.691162109375,-0.14923095703125,0.70867919921875
1759912751023,1008234493,9170,11,-0.705078125,-0.14068603515625,0.69476318359375
1759912751023,1008234493,9170,12,-0.681640625,-0.11138916015625,0.66497802734375
1759912751023,1008234493,9170,13,-0.687744140625,-0.12164306640625,0.65008544921875
1759912751023,1008234493,9170,14,-0.703125,-0.11871337890625,0.66571044921875
1759912751023,1008234493,9170,15,-0.69677734375,-0.09674072265625,0.67108154296875
1759912751023,1008234493,9170,16,-0.692626953125,-0.11090087890625,0.68035888671875
1759912751023,1008234493,9170,17,-0.6826171875,-0.11309814453125,0.65570068359375
1759912751023,1008234493,9170,18,-0.704833984375,-0.11724853515625,0.67449951171875
1759912751023,1008234493,9170,19,-0.687255859375,-0.12091064453125,0.67889404296875
1759912751023,1008234493,9170,20,-0.69970703125,-0.13800048828125,0.67156982421875
1759912751023,1008234493,9170,21,-0.69287109375,-0.14239501953125,0.68353271484375
1759912751023,1008234493,9170,22,-0.695068359375,-0.12994384765625,0.67864990234375
1759912751023,1008234493,9170,23,-0.684326171875,-0.12481689453125,0.69329833984375
1759912751023,1008234493,9170,24,-0.681396484375,-0.14068603515625,0.71380615234375
1759912751023,1008234493,9170,25,-0.694580078125,-0.13629150390625,0.69012451171875
1759912751023,1008234493,9170,26,-0.680908203125,-0.13726806640625,0.67767333984375
1759912751023,1008234493,9170,27,-0.69482421875,-0.13604736328125,0.67572021484375
1759912751023,1008234493,9170,28,-0.676513671875,-0.11358642578125,0.68060302734375
1759912751023,1008234493,9170,29,-0.689453125,-0.09747314453125,0.68475341796875
1759912751023,1008234493,9170,30,-0.690185546875,-0.10821533203125,0.67938232421875
1759912751023,1008234493,9170,31,-0.69091796875,-0.09869384765625,0.65350341796875
1759912753723,1008237084,9171,0,-0.693115234375,-0.10406494140625,0.67132568359375
1759912753723,1008237084,9171,1,-0.696533203125,-0.11309814453125,0.67889404296875
1759912753723,1008237084,9171,2,-0.699462890625,-0.12188720703125,0.67205810546875
1759912753723,1008237084,9171,3,-0.712646484375,-0.12677001953125,0.66937255859375
1759912753723,1008237084,9171,4,-0.712890625,-0.11993408203125,0.66839599609375
1759912753723,1008237084,9171,5,-0.703125,-0.10260009765625,0.67523193359375
1759912753723,1008237084,9171,6,-0.696044921875,-0.09893798828125,0.68084716796875
1759912753723,1008237084,9171,7,-0.6884765625,-0.10504150390625,0.68133544921875
1759912753723,1008237084,9171,8,-0.693603515625,-0.10772705078125,0.67742919921875
1759912753723,1008237084,9171,9,-0.69482421875,-0.10821533203125,0.67791748046875
1759912753723,1008237084,9171,10,-0.688720703125,-0.11700439453125,0.68524169921875
1759912753723,1008237084,9171,11,-0.68798828125,-0.10723876953125,0.68231201171875
1759912753723,1008237084,9171,12,-0.688232421875,-0.11505126953125,0.68328857421875
1759912753723,1008237084,9171,13,-0.683837890625,-0.11065673828125,0.70330810546875
1759912753723,1008237084,9171,14,-0.699462890625,-0.12603759765625,0.68280029296875
1759912753723,1008237084,9171,15,-0.703125,-0.13946533203125,0.67401123046875
1759912753723,1008237084,9171,16,-0.688232421875,-0.10748291015625,0.66595458984375
1759912753723,1008237084,9171,17,-0.685791015625,-0.10406494140625,0.67498779296875
1759912753723,1008237084,9171,18,-0.675048828125,-0.11163330078125,0.65960693359375
1759912753723,1008237084,9171,19,-0.693603515625,-0.11846923828125,0.68768310546875
1759912753723,1008237084,9171,20,-0.68994140625,-0.11602783203125,0.68597412109375
1759912753723,1008237084,9171,21,-0.691650390625,-0.11920166015625,0.68328857421875
1759912753723,1008237084,9171,22,-0.682861328125,-0.12335205078125,0.68792724609375
1759912753723,1008237084,9171,23,-0.68212890625,-0.11383056640625,0.69012451171875
1759912753723,1008237084,9171,24,-0.689453125,-0.12310791015625,0.68231201171875
1759912753723,1008237084,9171,25,-0.676513671875,-0.12384033203125,0.69769287109375
1759912753723,1008237084,9171,26,-0.674560546875,-0.12896728515625,0.70404052734375
1759912753723,1008237084,9171,27,-0.670166015625,-0.14019775390625,0.71942138671875
1759912753723,1008237084,9171,28,-0.68310546875,-0.15972900390625,0.68548583984375
1759912753723,1008237084,9171,29,-0.667724609375,-0.16217041015625,0.68768310546875
1759912753723,1008237084,9171,30,-0.67626953125,-0.14288330078125,0.68988037109375
1759912753723,1008237084,9171,31,-0.665771484375,-0.12774658203125,0.69183349609375
1759912756273,1008239675,9172,0,-0.661376953125,-0.12847900390625,0.68011474609375
1759912756273,1008239675,9172,1,-0.68115234375,-0.13653564453125,0.68255615234375
1759912756273,1008239675,9172,2,-0.680419921875,-0.13116455078125,0.68524169921875
1759912756273,1008239675,9172,3,-0.683349609375,-0.12969970703125,0.69158935546875
1759912756273,1008239675,9172,4,-0.673583984375,-0.13653564453125,0.68792724609375
1759912756273,1008239675,9172,5,-0.688232421875,-0.13775634765625,0.68792724609375
1759912756273,1008239675,9172,6,-0.685791015625,-0.12896728515625,0.68450927734375
1759912756273,1008239675,9172,7,-0.674560546875,-0.13458251953125,0.69744873046875
1759912756273,1008239675,9172,8,-0.669921875,-0.14581298828125,0.73211669921875
1759912756273,1008239675,9172,9,-0.691162109375,-0.13262939453125,0.68914794921875
1759912756273,1008239675,9172,10,-0.68310546875,-0.13385009765625,0.67108154296875
1759912756273,1008239675,9172,11,-0.679443359375,-0.12139892578125,0.67938232421875
1759912756273,1008239675,9172,12,-0.69091796875,-0.11285400390625,0.68695068359375
1759912756273,1008239675,9172,13,-0.67626953125,-0.10455322265625,0.67156982421875
1759912756273,1008239675,9172,14,-0.68701171875,-0.11480712890625,0.67205810546875
1759912756273,1008239675,9172,15,-0.704833984375,-0.10943603515625,0.67449951171875
1759912756273,1008239675,9172,16,-0.691162109375,-0.11212158203125,0.66790771484375
1759912756273,1008239675,9172,17,-0.700927734375,-0.12628173828125,0.67059326171875
