receivedPhoneTimestamp,respeckTimestamp,packetSeqNum,sampleSeqNum,accelX,accelY,accelZ
1759855505314,1058324093,12613,12,-0.0537109375,0.10589599609375,-1.01446533203125
1759855505314,1058324093,12613,13,-0.056884765625,0.11029052734375,-1.01812744140625
1759855505314,1058324093,12613,14,-0.049072265625,0.10760498046875,-1.01348876953125
1759855505314,1058324093,12613,15,-0.0537109375,0.10296630859375,-1.01666259765625
1759855505314,1058324093,12613,16,-0.050048828125,0.09930419921875,-1.01617431640625
1759855505314,1058324093,12613,17,-0.048828125,0.10223388671875,-1.01812744140625
1759855505314,1058324093,12613,18,-0.0517578125,0.09588623046875,-1.02105712890625
1759855505314,1058324093,12613,19,-0.0458984375,0.09246826171875,-1.02056884765625
1759855505314,1058324093,12613,20,-0.05419921875,0.09393310546875,-1.02227783203125
1759855505314,1058324093,12613,21,-0.0419921875,0.09393310546875,-1.01763916015625
1759855505314,1058324093,12613,22,-0.03857421875,0.08514404296875,-1.01666259765625
1759855505314,1058324093,12613,23,-0.06298828125,0.09442138671875,-1.02252197265625
1759855505314,1058324093,12613,24,-0.042236328125,0.10565185546875,-1.01470947265625
1759855505314,1058324093,12613,25,-0.051025390625,0.10833740234375,-1.01837158203125
1759855505314,1058324093,12613,26,-0.0595703125,0.10540771484375,-1.01739501953125
1759855505314,1058324093,12613,27,-0.056640625,0.10491943359375,-1.01910400390625
1759855505314,1058324093,12613,28,-0.056884765625,0.11517333984375,-1.01129150390625
1759855505314,1058324093,12613,29,-0.060302734375,0.11102294921875,-1.01715087890625
1759855505314,1058324093,12613,30,-0.0654296875,0.10809326171875,-1.01861572265625
1759855505314,1058324093,12613,31,-0.057861328125,0.11175537109375,-1.01470947265625
1759855508014,1058326666,12614,0,-0.05322265625,0.10638427734375,-1.01593017578125
1759855508014,1058326666,12614,1,-0.058349609375,0.10467529296875,-1.01763916015625
1759855508014,1058326666,12614,2,-0.047119140625,0.10369873046875,-1.01837158203125
1759855508014,1058326666,12614,3,-0.05908203125,0.10247802734375,-1.01568603515625
1759855508014,1058326666,12614,4,-0.057373046875,0.09564208984375,-1.02130126953125
1759855508014,1058326666,12614,5,-0.040771484375,0.08660888671875,-1.01934814453125
1759855508014,1058326666,12614,6,-0.043701171875,0.08831787109375,-1.02520751953125
1759855508014,1058326666,12614,7,-0.040771484375,0.08563232421875,-1.01739501953125
1759855508014,1058326666,12614,8,-0.057861328125,0.09124755859375,-1.02618408203125
1759855508014,1058326666,12614,9,-0.046875,0.09881591796875,-1.01617431640625
1759855508014,1058326666,12614,10,-0.048095703125,0.10296630859375,-1.01470947265625
1759855508014,1058326666,12614,11,-0.064697265625,0.10565185546875,-1.02032470703125
1759855508014,1058326666,12614,12,-0.046142578125,0.10418701171875,-1.01861572265625
1759855508014,1058326666,12614,13,-0.0625,0.10150146484375,-1.01593017578125
1759855508014,1058326666,12614,14,-0.060302734375,0.10687255859375,-1.01422119140625
1759855508014,1058326666,12614,15,-0.055908203125,0.10784912109375,-1.01739501953125
1759855508014,1058326666,12614,16,-0.058837890625,0.11126708984375,-1.01739501953125
1759855508014,1058326666,12614,17,-0.05224609375,0.10272216796875,-1.01763916015625
1759855508014,1058326666,12614,18,-0.058349609375,0.10174560546875,-1.02032470703125
1759855508014,1058326666,12614,19,-0.052001953125,0.10076904296875,-1.01812744140625
1759855508014,1058326666,12614,20,-0.046875,0.09881591796875,-1.01690673828125
1759855508014,1058326666,12614,21,-0.04833984375,0.09368896484375,-1.02203369140625
1759855508014,1058326666,12614,22,-0.048828125,0.09173583984375,-1.02130126953125
1759855508014,1058326666,12614,23,-0.046875,0.09295654296875,-1.02154541015625
1759855508014,1058326666,12614,24,-0.05224609375,0.08978271484375,-1.02276611328125
1759855508014,1058326666,12614,25,-0.044677734375,0.09735107421875,-1.01910400390625
1759855508014,1058326666,12614,26,-0.0498046875,0.09808349609375,-1.01715087890625
1759855508014,1058326666,12614,27,-0.053466796875,0.10443115234375,-1.01885986328125
1759855508014,1058326666,12614,28,-0.05322265625,0.10369873046875,-1.01715087890625
1759855508014,1058326666,12614,29,-0.060546875,0.10540771484375,-1.01837158203125
1759855508014,1058326666,12614,30,-0.060791015625,0.10931396484375,-1.01715087890625
1759855508014,1058326666,12614,31,-0.055419921875,0.10784912109375,-1.02056884765625
1759855510535,1058329240,12615,0,-0.05810546875,0.11053466796875,-1.01715087890625
1759855510535,1058329240,12615,1,-0.056884765625,0.11029052734375,-1.00909423828125
1759855510535,1058329240,12615,2,-0.0576171875,0.10784912109375,-1.01837158203125
1759855510535,1058329240,12615,3,-0.058837890625,0.10223388671875,-1.01788330078125
1759855510535,1058329240,12615,4,-0.04541015625,0.09075927734375,-1.01837158203125
1759855510535,1058329240,12615,5,-0.058837890625,0.08831787109375,-1.02032470703125
1759855510535,1058329240,12615,6,-0.0478515625,0.08978271484375,-1.01885986328125
1759855510535,1058329240,12615,7,-0.037109375,0.08905029296875,-1.02105712890625
1759855510535,1058329240,12615,8,-0.05322265625,0.08465576171875,-1.01959228515625
1759855510535,1058329240,12615,9,-0.05078125,0.08416748046875,-1.02667236328125
1759855510535,1058329240,12615,10,-0.035400390625,0.08807373046875,-1.01568603515625
1759855510535,1058329240,12615,11,-0.04541015625,0.08978271484375,-1.02276611328125
1759855510535,1058329240,12615,12,-0.041748046875,0.08880615234375,-1.01983642578125
1759855510535,1058329240,12615,13,-0.03564453125,0.08197021484375,-1.02227783203125
1759855510535,1058329240,12615,14,-0.05908203125,0.08660888671875,-1.02423095703125
1759855510535,1058329240,12615,15,-0.040771484375,0.08953857421875,-1.01690673828125
1759855510535,1058329240,12615,16,-0.054931640625,0.10076904296875,-1.01910400390625
1759855510535,1058329240,12615,17,-0.049072265625,0.09881591796875,-1.01544189453125
1759855510535,1058329240,12615,18,-0.05078125,0.10150146484375,-1.01812744140625
1759855510535,1058329240,12615,19,-0.06640625,0.10052490234375,-1.01959228515625
1759855510535,1058329240,12615,20,-0.043701171875,0.10345458984375,-1.01934814453125
1759855510535,1058329240,12615,21,-0.060302734375,0.10809326171875,-1.01788330078125
1759855510535,1058329240,12615,22,-0.05322265625,0.09393310546875,-1.02105712890625
1759855510535,1058329240,12615,23,-0.0478515625,0.08758544921875,-1.01983642578125
1759855510535,1058329240,12615,24,-0.0478515625,0.09490966796875,-1.01885986328125
1759855510535,1058329240,12615,25,-0.048095703125,0.09051513671875,-1.01470947265625
1759855510535,1058329240,12615,26,-0.037353515625,0.09100341796875,-1.02545166015625
1759855510535,1058329240,12615,27,-0.03857421875,0.08221435546875,-1.01568603515625
1759855510535,1058329240,12615,28,-0.04638671875,0.08074951171875,-1.02398681640625
1759855510535,1058329240,12615,29,-0.0546875,0.09246826171875,-1.01837158203125
1759855510535,1058329240,12615,30,-0.029296875,0.10076904296875,-1.01202392578125
1759855510535,1058329240,12615,31,-0.068603515625,0.09320068359375,-1.02667236328125
1759855513055,1058331813,12616,0,-0.022216796875,0.08367919921875,-1.01495361328125
1759855513055,1058331813,12616,1,-0.044677734375,0.07366943359375,-1.02886962890625
1759855513055,1058331813,12616,2,-0.04638671875,0.07586669921875,-1.02325439453125
1759855513055,1058331813,12616,3,-0.034912109375,0.08001708984375,-1.01788330078125
1759855513055,1058331813,12616,4,-0.05078125,0.09710693359375,-1.02398681640625
1759855513055,1058331813,12616,5,-0.035888671875,0.10516357421875,-1.01422119140625
1759855513055,1058331813,12616,6,-0.044189453125,0.09979248046875,-1.01763916015625
1759855513055,1058331813,12616,7,-0.054931640625,0.09222412109375,-1.01861572265625
1759855513055,1058331813,12616,8,-0.0478515625,0.09783935546875,-1.01495361328125
1759855513055,1058331813,12616,9,-0.04931640625,0.10711669921875,-1.01885986328125
1759855513055,1058331813,12616,10,-0.046142578125,0.10174560546875,-1.01593017578125
1759855513055,1058331813,12616,11,-0.047119140625,0.08587646484375,-1.03057861328125
1759855513055,1058331813,12616,12,-0.03466796875,0.09027099609375,-1.01153564453125
1759855513055,1058331813,12616,13,-0.052001953125,0.08685302734375,-1.02520751953125
1759855513055,1058331813,12616,14,-0.03076171875,0.08441162109375,-1.02154541015625
1759855513055,1058331813,12616,15,-0.03466796875,0.08807373046875,-1.02374267578125
1759855513055,1058331813,12616,16,-0.044189453125,0.07904052734375,-1.01983642578125
1759855513055,1058331813,12616,17,-0.0439453125,0.08782958984375,-1.02423095703125
1759855513055,1058331813,12616,18,-0.039794921875,0.09710693359375,-1.01568603515625
1759855513055,1058331813,12616,19,-0.0458984375,0.09539794921875,-1.02301025390625
1759855513055,1058331813,12616,20,-0.046875,0.08685302734375,-1.01861572265625
1759855513055,1058331813,12616,21,-0.0498046875,0.09271240234375,-1.02056884765625
1759855513055,1058331813,12616,22,-0.04736328125,0.09368896484375,-1.02105712890625
1759855513055,1058331813,12616,23,-0.037841796875,0.08782958984375,-1.01593017578125
1759855513055,1058331813,12616,24,-0.0458984375,0.08734130859375,-1.01885986328125
1759855513055,1058331813,12616,25,-0.041748046875,0.08221435546875,-1.02032470703125
1759855513055,1058331813,12616,26,-0.034423828125,0.08465576171875,-1.02618408203125
1759855513055,1058331813,12616,27,-0.03955078125,0.08050537109375,-1.02423095703125
1759855513055,1058331813,12616,28,-0.03857421875,0.08148193359375,-1.01959228515625
1759855513055,1058331813,12616,29,-0.037841796875,0.07073974609375,-1.02276611328125
1759855513055,1058331813,12616,30,-0.04052734375,0.08489990234375,-1.02203369140625
1759855513055,1058331813,12616,31,-0.037841796875,0.09271240234375,-1.01959228515625
1759855515754,1058334386,12617,0,-0.040771484375,0.09149169921875,-1.02032470703125
1759855515754,1058334386,12617,1,-0.04736328125,0.09149169921875,-1.01861572265625
1759855515754,1058334386,12617,2,-0.04443359375,0.08636474609375,-1.01959228515625
1759855515754,1058334386,12617,3,-0.04638671875,0.08880615234375,-1.02325439453125
1759855515754,1058334386,12617,4,-0.049072265625,0.09246826171875,-1.01861572265625
1759855515754,1058334386,12617,5,-0.04541015625,0.09637451171875,-1.01666259765625
1759855515754,1058334386,12617,6,-0.044189453125,0.09173583984375,-1.02032470703125
1759855515754,1058334386,12617,7,-0.0478515625,0.08734130859375,-1.01422119140625
1759855515754,1058334386,12617,8,-0.046875,0.08978271484375,-1.02032470703125
1759855515754,1058334386,12617,9,-0.041015625,0.09051513671875,-1.01983642578125
1759855515754,1058334386,12617,10,-0.041015625,0.08319091796875,-1.02325439453125
1759855515754,1058334386,12617,11,-0.044677734375,0.08074951171875,-1.02130126953125
1759855515754,1058334386,12617,12,-0.040771484375,0.08319091796875,-1.02252197265625
1759855515754,1058334386,12617,13,-0.035888671875,0.08685302734375,-1.02252197265625
1759855515754,1058334386,12617,14,-0.03466796875,0.08343505859375,-1.02301025390625
1759855515754,1058334386,12617,15,-0.033447265625,0.08074951171875,-1.02349853515625
1759855515754,1058334386,12617,16,-0.037109375,0.07806396484375,-1.02252197265625
1759855515754,1058334386,12617,17,-0.0361328125,0.08026123046875,-1.02252197265625
1759855515754,1058334386,12617,18,-0.03271484375,0.08294677734375,-1.01739501953125
1759855515754,1058334386,12617,19,-0.035888671875,0.08148193359375,-1.02325439453125
1759855515754,1058334386,12617,20,-0.0478515625,0.08636474609375,-1.01715087890625
1759855515754,1058334386,12617,21,-0.039306640625,0.09075927734375,-1.01861572265625
1759855515754,1058334386,12617,22,-0.045166015625,0.09173583984375,-1.01885986328125
1759855515754,1058334386,12617,23,-0.049072265625,0.09613037109375,-1.02032470703125
1759855515754,1058334386,12617,24,-0.04833984375,0.09637451171875,-1.01910400390625
1759855515754,1058334386,12617,25,-0.051513671875,0.10101318359375,-1.02130126953125
1759855515754,1058334386,12617,26,-0.051513671875,0.09808349609375,-1.02276611328125
1759855515754,1058334386,12617,27,-0.055419921875,0.10394287109375,-1.01885986328125
1759855515754,1058334386,12617,28,-0.050048828125,0.09881591796875,-1.02032470703125
1759855515754,1058334386,12617,29,-0.0478515625,0.09368896484375,-1.01715087890625
1759855515754,1058334386,12617,30,-0.042724609375,0.08343505859375,-1.01983642578125
1759855515754,1058334386,12617,31,-0.04541015625,0.08441162109375,-1.02178955078125
1759855518268,1058336959,12618,0,-0.0380859375,0.08758544921875,-1.01739501953125
1759855518268,1058336959,12618,1,-0.040283203125,0.08514404296875,-1.02301025390625
1759855518268,1058336959,12618,2,-0.042724609375,0.07293701171875,-1.02423095703125
1759855518268,1058336959,12618,3,-0.031005859375,0.08074951171875,-1.02008056640625
1759855518268,1058336959,12618,4,-0.033203125,0.08416748046875,-1.02203369140625
1759855518268,1058336959,12618,5,-0.044677734375,0.07952880859375,-1.02203369140625
1759855518268,1058336959,12618,6,-0.042724609375,0.08465576171875,-1.02325439453125
1759855518268,1058336959,12618,7,-0.036865234375,0.08929443359375,-1.01934814453125
1759855518268,1058336959,12618,8,-0.04248046875,0.09173583984375,-1.01739501953125
1759855518268,1058336959,12618,9,-0.0458984375,0.09149169921875,-1.01983642578125
1759855518268,1058336959,12618,10,-0.04931640625,0.09564208984375,-1.01739501953125
1759855518268,1058336959,12618,11,-0.0478515625,0.09539794921875,-1.01934814453125
1759855518268,1058336959,12618,12,-0.048095703125,0.09588623046875,-1.01788330078125
1759855518268,1058336959,12618,13,-0.052001953125,0.09832763671875,-1.02056884765625
1759855518268,1058336959,12618,14,-0.046875,0.09759521484375,-1.01373291015625
1759855518268,1058336959,12618,15,-0.046875,0.09442138671875,-1.02105712890625
1759855518268,1058336959,12618,16,-0.04833984375,0.08953857421875,-1.01763916015625
1759855518268,1058336959,12618,17,-0.0400390625,0.08978271484375,-1.02130126953125
1759855518268,1058336959,12618,18,-0.03564453125,0.08978271484375,-1.01812744140625
1759855518268,1058336959,12618,19,-0.040283203125,0.08197021484375,-1.02471923828125
1759855518268,1058336959,12618,20,-0.0478515625,0.08319091796875,-1.01959228515625
1759855518268,1058336959,12618,21,-0.04052734375,0.07904052734375,-1.02374267578125
1759855518268,1058336959,12618,22,-0.037353515625,0.08489990234375,-1.02276611328125
1759855518268,1058336959,12618,23,-0.03466796875,0.08123779296875,-1.01763916015625
1759855518268,1058336959,12618,24,-0.046875,0.08465576171875,-1.02398681640625
1759855518268,1058336959,12618,25,-0.04541015625,0.09075927734375,-1.01934814453125
1759855518268,1058336959,12618,26,-0.042724609375,0.09222412109375,-1.01885986328125
1759855518268,1058336959,12618,27,-0.043701171875,0.08636474609375,-1.02032470703125
1759855518268,1058336959,12618,28,-0.043212890625,0.08709716796875,-1.02081298828125
1759855518268,1058336959,12618,29,-0.0439453125,0.09417724609375,-1.02081298828125
1759855518268,1058336959,12618,30,-0.049560546875,0.09490966796875,-1.01593017578125
1759855518268,1058336959,12618,31,-0.049072265625,0.09320068359375,-1.01959228515625
1759855520790,1058339532,12619,0,-0.0478515625,0.09490966796875,-1.02008056640625
1759855520790,1058339532,12619,1,-0.0478515625,0.09295654296875,-1.01788330078125
1759855520790,1058339532,12619,2,-0.0390625,0.09564208984375,-1.02008056640625
1759855520790,1058339532,12619,3,-0.0439453125,0.08953857421875,-1.02276611328125
1759855520790,1058339532,12619,4,-0.050537109375,0.09173583984375,-1.02154541015625
1759855520790,1058339532,12619,5,-0.04638671875,0.08953857421875,-1.02227783203125
1759855520790,1058339532,12619,6,-0.045654296875,0.08929443359375,-1.01812744140625
1759855520790,1058339532,12619,7,-0.032470703125,0.08807373046875,-1.02252197265625
1759855520790,1058339532,12619,8,-0.0419921875,0.08734130859375,-1.02032470703125
1759855520790,1058339532,12619,9,-0.04296875,0.08294677734375,-1.01983642578125
1759855520790,1058339532,12619,10,-0.036376953125,0.08587646484375,-1.01934814453125
1759855520790,1058339532,12619,11,-0.0458984375,0.08197021484375,-1.02691650390625
1759855520790,1058339532,12619,12,-0.0390625,0.08929443359375,-1.02032470703125
1759855520790,1058339532,12619,13,-0.04296875,0.09149169921875,-1.02032470703125
1759855520790,1058339532,12619,14,-0.0419921875,0.09442138671875,-1.01763916015625
1759855520790,1058339532,12619,15,-0.047607421875,0.09051513671875,-1.01934814453125
1759855520790,1058339532,12619,16,-0.047607421875,0.09637451171875,-1.02227783203125
1759855520790,1058339532,12619,17,-0.046630859375,0.10174560546875,-1.01910400390625
1759855520790,1058339532,12619,18,-0.047119140625,0.09881591796875,-1.01959228515625
1759855520790,1058339532,12619,19,-0.049072265625,0.09320068359375,-1.02105712890625
1759855520790,1058339532,12619,20,-0.049072265625,0.10345458984375,-1.01837158203125
1759855520790,1058339532,12619,21,-0.049560546875,0.09735107421875,-1.02081298828125
1759855520790,1058339532,12619,22,-0.04345703125,0.09393310546875,-1.01934814453125
1759855520790,1058339532,12619,23,-0.045654296875,0.08758544921875,-1.02447509765625
1759855520790,1058339532,12619,24,-0.03515625,0.08953857421875,-1.01885986328125
1759855520790,1058339532,12619,25,-0.03759765625,0.08319091796875,-1.02227783203125
1759855520790,1058339532,12619,26,-0.04638671875,0.08294677734375,-1.02252197265625
1759855520790,1058339532,12619,27,-0.035888671875,0.08465576171875,-1.02154541015625
1759855520790,1058339532,12619,28,-0.037841796875,0.08245849609375,-1.02105712890625
1759855520790,1058339532,12619,29,-0.035400390625,0.08587646484375,-1.02032470703125
1759855520790,1058339532,12619,30,-0.028076171875,0.07659912109375,-1.02301025390625
1759855520790,1058339532,12619,31,-0.044189453125,0.07757568359375,-1.02032470703125
1759855524032,1058342105,12620,0,-0.038330078125,0.09051513671875,-1.01934814453125
1759855524032,1058342105,12620,1,-0.034423828125,0.09710693359375,-1.01617431640625
1759855524032,1058342105,12620,2,-0.052490234375,0.09002685546875,-1.01934814453125
1759855524032,1058342105,12620,3,-0.04736328125,0.09295654296875,-1.01739501953125
1759855524032,1058342105,12620,4,-0.04296875,0.09539794921875,-1.01837158203125
1759855524032,1058342105,12620,5,-0.046142578125,0.09686279296875,-1.02008056640625
1759855524032,1058342105,12620,6,-0.043212890625,0.09783935546875,-1.02178955078125
1759855524032,1058342105,12620,7,-0.049560546875,0.09295654296875,-1.01983642578125
1759855524032,1058342105,12620,8,-0.051025390625,0.09857177734375,-1.01861572265625
1759855524032,1058342105,12620,9,-0.04248046875,0.09466552734375,-1.01959228515625
1759855524032,1058342105,12620,10,-0.048095703125,0.09149169921875,-1.01739501953125
1759855524032,1058342105,12620,11,-0.044921875,0.09100341796875,-1.02105712890625
1759855524032,1058342105,12620,12,-0.045654296875,0.09173583984375,-1.02032470703125
1759855524032,1058342105,12620,13,-0.040283203125,0.08807373046875,-1.02154541015625
1759855524032,1058342105,12620,14,-0.036865234375,0.08416748046875,-1.02423095703125
1759855524032,1058342105,12620,15,-0.03955078125,0.08685302734375,-1.02056884765625
1759855524032,1058342105,12620,16,-0.044189453125,0.08856201171875,-1.01885986328125
1759855524032,1058342105,12620,17,-0.033935546875,0.08465576171875,-1.02105712890625
1759855524032,1058342105,12620,18,-0.04638671875,0.08856201171875,-1.02130126953125
1759855524032,1058342105,12620,19,-0.034912109375,0.09246826171875,-1.01739501953125
1759855524032,1058342105,12620,20,-0.047119140625,0.09588623046875,-1.01763916015625
1759855524032,1058342105,12620,21,-0.04638671875,0.08978271484375,-1.02008056640625
1759855524032,1058342105,12620,22,-0.042236328125,0.09368896484375,-1.01763916015625
1759855524032,1058342105,12620,23,-0.047607421875,0.09637451171875,-1.02032470703125
1759855524032,1058342105,12620,24,-0.046142578125,0.09442138671875,-1.01934814453125
1759855524032,1058342105,12620,25,-0.04638671875,0.09320068359375,-1.01812744140625
1759855524032,1058342105,12620,26,-0.04736328125,0.10052490234375,-1.01666259765625
1759855524032,1058342105,12620,27,-0.047119140625,0.09637451171875,-1.01519775390625
1759855524032,1058342105,12620,28,-0.04638671875,0.08758544921875,-1.02178955078125
1759855524032,1058342105,12620,29,-0.04833984375,0.08563232421875,-1.02520751953125
1759855524032,1058342105,12620,30,-0.038330078125,0.08197021484375,-1.02178955078125
1759855524032,1058342105,12620,31,-0.044189453125,0.08221435546875,-1.02081298828125
1759855526012,1058344678,12621,0,-0.039794921875,0.08148193359375,-1.02276611328125
1759855526012,1058344678,12621,1,-0.033447265625,0.08685302734375,-1.02105712890625
1759855526012,1058344678,12621,2,-0.036376953125,0.08245849609375,-1.02154541015625
1759855526012,1058344678,12621,3,-0.04931640625,0.07904052734375,-1.02227783203125
1759855526012,1058344678,12621,4,-0.040283203125,0.08587646484375,-1.02032470703125
1759855526012,1058344678,12621,5,-0.041015625,0.09051513671875,-1.01763916015625
1759855526012,1058344678,12621,6,-0.046142578125,0.09564208984375,-1.02056884765625
1759855526012,1058344678,12621,7,-0.046142578125,0.09417724609375,-1.01861572265625
1759855526012,1058344678,12621,8,-0.05224609375,0.09588623046875,-1.02081298828125
1759855526012,1058344678,12621,9,-0.04638671875,0.09954833984375,-1.01812744140625
1759855526012,1058344678,12621,10,-0.05224609375,0.09954833984375,-1.01593017578125
1759855526012,1058344678,12621,11,-0.048828125,0.09661865234375,-1.01959228515625
1759855526012,1058344678,12621,12,-0.049072265625,0.10052490234375,-1.01690673828125
1759855526012,1058344678,12621,13,-0.046142578125,0.09197998046875,-1.02130126953125
1759855526012,1058344678,12621,14,-0.050537109375,0.09368896484375,-1.02032470703125
1759855526012,1058344678,12621,15,-0.044189453125,0.08831787109375,-1.01934814453125
1759855526012,1058344678,12621,16,-0.038818359375,0.08245849609375,-1.02252197265625
1759855526012,1058344678,12621,17,-0.047119140625,0.08514404296875,-1.02276611328125
1759855526012,1058344678,12621,18,-0.04638671875,0.07952880859375,-1.02642822265625
1759855526012,1058344678,12621,19,-0.03759765625,0.07904052734375,-1.02520751953125
1759855526012,1058344678,12621,20,-0.0380859375,0.08245849609375,-1.02081298828125
1759855526012,1058344678,12621,21,-0.041259765625,0.08123779296875,-1.02398681640625
1759855526012,1058344678,12621,22,-0.048095703125,0.08563232421875,-1.02349853515625
1759855526012,1058344678,12621,23,-0.042236328125,0.09368896484375,-1.01812744140625
1759855526012,1058344678,12621,24,-0.04296875,0.09320068359375,-1.01641845703125
1759855526012,1058344678,12621,25,-0.045654296875,0.09002685546875,-1.02398681640625
1759855526012,1058344678,12621,26,-0.0419921875,0.08660888671875,-1.01934814453125
1759855526012,1058344678,12621,27,-0.040771484375,0.09124755859375,-1.01861572265625
1759855526012,1058344678,12621,28,-0.039794921875,0.09051513671875,-1.02032470703125
1759855526012,1058344678,12621,29,-0.04150390625,0.09295654296875,-1.02008056640625
1759855526012,1058344678,12621,30,-0.0390625,0.09173583984375,-1.01861572265625
1759855526012,1058344678,12621,31,-0.04638671875,0.08734130859375,-1.02105712890625
1759855528713,1058347251,12622,0,-0.05029296875,0.09124755859375,-1.02545166015625
1759855528713,1058347251,12622,1,-0.033203125,0.08587646484375,-1.02032470703125
1759855528713,1058347251,12622,2,-0.042236328125,0.07928466796875,-1.02227783203125
1759855528713,1058347251,12622,3,-0.037109375,0.08538818359375,-1.02227783203125
1759855528713,1058347251,12622,4,-0.033203125,0.08734130859375,-1.02545166015625
1759855528713,1058347251,12622,5,-0.047119140625,0.08465576171875,-1.02105712890625
1759855528713,1058347251,12622,6,-0.0478515625,0.07928466796875,-1.02008056640625
1759855528713,1058347251,12622,7,-0.03955078125,0.08709716796875,-1.02056884765625
1759855528713,1058347251,12622,8,-0.03955078125,0.09051513671875,-1.01812744140625
1759855528713,1058347251,12622,9,-0.04541015625,0.09442138671875,-1.02032470703125
1759855528713,1058347251,12622,10,-0.04541015625,0.09368896484375,-1.01983642578125
1759855528713,1058347251,12622,11,-0.0537109375,0.09149169921875,-1.01885986328125
1759855528713,1058347251,12622,12,-0.04638671875,0.09222412109375,-1.01739501953125
1759855528713,1058347251,12622,13,-0.0439453125,0.09930419921875,-1.02227783203125
1759855528713,1058347251,12622,14,-0.047119140625,0.09613037109375,-1.01861572265625
1759855528713,1058347251,12622,15,-0.0517578125,0.10076904296875,-1.01739501953125
1759855528713,1058347251,12622,16,-0.0498046875,0.09490966796875,-1.02227783203125
1759855528713,1058347251,12622,17,-0.044677734375,0.09002685546875,-1.01837158203125
1759855528713,1058347251,12622,18,-0.04443359375,0.09002685546875,-1.02008056640625
1759855528713,1058347251,12622,19,-0.047119140625,0.08660888671875,-1.02056884765625
1759855528713,1058347251,12622,20,-0.039794921875,0.08880615234375,-1.02056884765625
1759855528713,1058347251,12622,21,-0.041748046875,0.08074951171875,-1.02227783203125
1759855528713,1058347251,12622,22,-0.052001953125,0.07269287109375,-1.02740478515625
1759855528713,1058347251,12622,23,-0.023681640625,0.08392333984375,-1.02203369140625
1759855528713,1058347251,12622,24,-0.0302734375,0.07611083984375,-1.02374267578125
1759855528713,1058347251,12622,25,-0.057373046875,0.07318115234375,-1.02349853515625
1759855528713,1058347251,12622,26,-0.030029296875,0.08612060546875,-1.02203369140625
1759855528713,1058347251,12622,27,-0.046875,0.08905029296875,-1.01959228515625
1759855528713,1058347251,12622,28,-0.04541015625,0.08953857421875,-1.02008056640625
1759855528713,1058347251,12622,29,-0.04443359375,0.08978271484375,-1.02056884765625
1759855528713,1058347251,12622,30,-0.05029296875,0.09344482421875,-1.02008056640625
1759855528713,1058347251,12622,31,-0.04345703125,0.09466552734375,-1.02008056640625
1759855531234,1058349824,12623,0,-0.046630859375,0.09197998046875,-1.02081298828125
1759855531234,1058349824,12623,1,-0.049560546875,0.09344482421875,-1.02276611328125
1759855531234,1058349824,12623,2,-0.04296875,0.09222412109375,-1.01788330078125
1759855531234,1058349824,12623,3,-0.047119140625,0.08831787109375,-1.01837158203125
1759855531234,1058349824,12623,4,-0.044189453125,0.08685302734375,-1.01983642578125
1759855531234,1058349824,12623,5,-0.03662109375,0.08489990234375,-1.02325439453125
1759855531234,1058349824,12623,6,-0.036376953125,0.08172607421875,-1.02154541015625
1759855531234,1058349824,12623,7,-0.048828125,0.07293701171875,-1.02203369140625
1759855531234,1058349824,12623,8,-0.036376953125,0.07220458984375,-1.02423095703125
1759855531234,1058349824,12623,9,-0.021728515625,0.07366943359375,-1.02349853515625
1759855531234,1058349824,12623,10,-0.0380859375,0.07244873046875,-1.02349853515625
1759855531234,1058349824,12623,11,-0.032470703125,0.08074951171875,-1.02105712890625
1759855531234,1058349824,12623,12,-0.0361328125,0.08685302734375,-1.02081298828125
1759855531234,1058349824,12623,13,-0.05322265625,0.09197998046875,-1.01715087890625
1759855531234,1058349824,12623,14,-0.037353515625,0.08563232421875,-1.02374267578125
1759855531234,1058349824,12623,15,-0.0478515625,0.08880615234375,-1.02105712890625
1759855531234,1058349824,12623,16,-0.0400390625,0.09344482421875,-1.01788330078125
1759855531234,1058349824,12623,17,-0.04248046875,0.09075927734375,-1.02178955078125
1759855531234,1058349824,12623,18,-0.04541015625,0.09368896484375,-1.02301025390625
1759855531234,1058349824,12623,19,-0.043701171875,0.09246826171875,-1.02154541015625
1759855531234,1058349824,12623,20,-0.0458984375,0.09271240234375,-1.02056884765625
1759855531234,1058349824,12623,21,-0.03857421875,0.08563232421875,-1.02227783203125
1759855531234,1058349824,12623,22,-0.034423828125,0.08660888671875,-1.01885986328125
1759855531234,1058349824,12623,23,-0.041015625,0.07366943359375,-1.02203369140625
1759855531234,1058349824,12623,24,-0.040283203125,0.07293701171875,-1.02813720703125
1759855531234,1058349824,12623,25,-0.02001953125,0.07806396484375,-1.01934814453125
1759855531234,1058349824,12623,26,-0.031982421875,0.06829833984375,-1.02447509765625
1759855531234,1058349824,12623,27,-0.02587890625,0.06243896484375,-1.02105712890625
1759855531234,1058349824,12623,28,-0.02490234375,0.06488037109375,-1.02301025390625
1759855531234,1058349824,12623,29,-0.0234375,0.07244873046875,-1.02203369140625
1759855531234,1058349824,12623,30,-0.028076171875,0.07562255859375,-1.02447509765625
1759855531234,1058349824,12623,31,-0.04052734375,0.08026123046875,-1.01763916015625
1759855533756,1058352398,12624,0,-0.033203125,0.08441162109375,-1.02008056640625
1759855533756,1058352398,12624,1,-0.03759765625,0.08245849609375,-1.01934814453125
1759855533756,1058352398,12624,2,-0.043701171875,0.08612060546875,-1.02227783203125
1759855533756,1058352398,12624,3,-0.0361328125,0.08831787109375,-1.01910400390625
1759855533756,1058352398,12624,4,-0.044677734375,0.09149169921875,-1.01934814453125
1759855533756,1058352398,12624,5,-0.048828125,0.09100341796875,-1.02276611328125
1759855533756,1058352398,12624,6,-0.031005859375,0.09173583984375,-1.01959228515625
1759855533756,1058352398,12624,7,-0.040771484375,0.08197021484375,-1.02520751953125
1759855533756,1058352398,12624,8,-0.045166015625,0.07366943359375,-1.02276611328125
1759855533756,1058352398,12624,9,-0.03515625,0.08099365234375,-1.01983642578125
1759855533756,1058352398,12624,10,-0.0205078125,0.07879638671875,-1.02496337890625
1759855533756,1058352398,12624,11,-0.0322265625,0.07806396484375,-1.02081298828125
1759855533756,1058352398,12624,12,-0.042724609375,0.07073974609375,-1.02789306640625
1759855533756,1058352398,12624,13,-0.025146484375,0.07708740234375,-1.02008056640625
1759855533756,1058352398,12624,14,-0.03466796875,0.07049560546875,-1.02691650390625
1759855533756,1058352398,12624,15,-0.028076171875,0.07952880859375,-1.02154541015625
1759855533756,1058352398,12624,16,-0.029052734375,0.09051513671875,-1.01983642578125
1759855533756,1058352398,12624,17,-0.037841796875,0.09124755859375,-1.02130126953125
1759855533756,1058352398,12624,18,-0.041259765625,0.08734130859375,-1.01861572265625
1759855533756,1058352398,12624,19,-0.03955078125,0.08319091796875,-1.02252197265625
1759855533756,1058352398,12624,20,-0.037841796875,0.08905029296875,-1.01983642578125
1759855533756,1058352398,12624,21,-0.037841796875,0.09027099609375,-1.02203369140625
1759855533756,1058352398,12624,22,-0.03857421875,0.08807373046875,-1.02154541015625
1759855533756,1058352398,12624,23,-0.040283203125,0.08172607421875,-1.02325439453125
1759855533756,1058352398,12624,24,-0.037109375,0.08367919921875,-1.02081298828125
1759855533756,1058352398,12624,25,-0.03369140625,0.08392333984375,-1.01983642578125
1759855533756,1058352398,12624,26,-0.029541015625,0.07440185546875,-1.02618408203125
1759855533756,1058352398,12624,27,-0.026123046875,0.07415771484375,-1.01763916015625
1759855533756,1058352398,12624,28,-0.02001953125,0.07586669921875,-1.02178955078125
1759855533756,1058352398,12624,29,-0.020263671875,0.07220458984375,-1.02325439453125
1759855533756,1058352398,12624,30,-0.029052734375,0.07537841796875,-1.01934814453125
1759855533756,1058352398,12624,31,-0.031005859375,0.06829833984375,-1.02423095703125
1759855536277,1058354971,12625,0,-0.016357421875,0.08001708984375,-1.01959228515625
1759855536277,1058354971,12625,1,-0.024169921875,0.08441162109375,-1.01885986328125
1759855536277,1058354971,12625,2,-0.04052734375,0.08392333984375,-1.02154541015625
