receivedPhoneTimestamp,respeckTimestamp,packetSeqNum,sampleSeqNum,accelX,accelY,accelZ
1759845983929,1033774610,31373,16,0.024169921875,-1.02056884765625,-0.12384033203125
1759845983929,1033774610,31373,17,0.01806640625,-1.02691650390625,-0.12750244140625
1759845983929,1033774610,31373,18,0.016357421875,-1.02203369140625,-0.13922119140625
1759845983929,1033774610,31373,19,0.024658203125,-1.02056884765625,-0.11895751953125
1759845983929,1033774610,31373,20,0.019287109375,-1.03424072265625,-0.11309814453125
1759845983929,1033774610,31373,21,0.024658203125,-1.02349853515625,-0.11871337890625
1759845983929,1033774610,31373,22,0.023193359375,-1.01861572265625,-0.12969970703125
1759845983929,1033774610,31373,23,0.01611328125,-1.02178955078125,-0.15582275390625
1759845983929,1033774610,31373,24,0.021728515625,-1.00860595703125,-0.15020751953125
1759845983929,1033774610,31373,25,0.023193359375,-1.01519775390625,-0.17852783203125
1759845983929,1033774610,31373,26,0.01953125,-1.02130126953125,-0.12994384765625
1759845983929,1033774610,31373,27,0.005615234375,-1.01910400390625,-0.16680908203125
1759845983929,1033774610,31373,28,0.005615234375,-1.01983642578125,-0.15972900390625
1759845983929,1033774610,31373,29,0.013671875,-1.01641845703125,-0.15948486328125
1759845983929,1033774610,31373,30,-0.002197265625,-1.02618408203125,-0.17071533203125
1759845983929,1033774610,31373,31,0.006591796875,-1.01641845703125,-0.17340087890625
1759845986481,1033777189,31374,0,-0.00390625,-1.02569580078125,-0.12921142578125
1759845986481,1033777189,31374,1,0.004638671875,-1.01837158203125,-0.16973876953125
1759845986481,1033777189,31374,2,0.002197265625,-1.02008056640625,-0.16119384765625
1759845986481,1033777189,31374,3,0.002197265625,-1.01666259765625,-0.18414306640625
1759845986481,1033777189,31374,4,-0.007568359375,-1.02301025390625,-0.17608642578125
1759845986481,1033777189,31374,5,-0.001220703125,-1.02056884765625,-0.18927001953125
1759845986481,1033777189,31374,6,-0.0048828125,-1.01104736328125,-0.19488525390625
1759845986481,1033777189,31374,7,-0.010986328125,-1.01763916015625,-0.18145751953125
1759845986481,1033777189,31374,8,-0.005126953125,-1.01324462890625,-0.20343017578125
1759845986481,1033777189,31374,9,-0.00390625,-1.01275634765625,-0.21441650390625
1759845986481,1033777189,31374,10,0.004150390625,-0.98834228515625,-0.22149658203125
1759845986481,1033777189,31374,11,-0.001220703125,-1.01080322265625,-0.22930908203125
1759845986481,1033777189,31374,12,-0.004150390625,-1.00128173828125,-0.19464111328125
1759845986481,1033777189,31374,13,-0.001220703125,-1.02276611328125,-0.22955322265625
1759845986481,1033777189,31374,14,-0.001220703125,-1.01300048828125,-0.22784423828125
1759845986481,1033777189,31374,15,-0.00634765625,-1.01226806640625,-0.22467041015625
1759845986481,1033777189,31374,16,-0.0078125,-1.01861572265625,-0.21270751953125
1759845986481,1033777189,31374,17,-0.01123046875,-1.01422119140625,-0.20538330078125
1759845986481,1033777189,31374,18,-0.012451171875,-1.02618408203125,-0.20513916015625
1759845986481,1033777189,31374,19,-0.00537109375,-0.99932861328125,-0.23468017578125
1759845986481,1033777189,31374,20,-0.00830078125,-1.00543212890625,-0.23150634765625
1759845986481,1033777189,31374,21,-0.007080078125,-1.01177978515625,-0.22882080078125
1759845986481,1033777189,31374,22,-0.00830078125,-1.00982666015625,-0.23565673828125
1759845986481,1033777189,31374,23,-0.0048828125,-1.00836181640625,-0.23956298828125
1759845986481,1033777189,31374,24,-0.008544921875,-0.99932861328125,-0.24591064453125
1759845986481,1033777189,31374,25,-0.010498046875,-0.98931884765625,-0.25030517578125
1759845986481,1033777189,31374,26,-0.008056640625,-1.00518798828125,-0.24761962890625
1759845986481,1033777189,31374,27,-0.01220703125,-1.00640869140625,-0.24298095703125
1759845986481,1033777189,31374,28,-0.011962890625,-1.01177978515625,-0.23834228515625
1759845986481,1033777189,31374,29,-0.00830078125,-1.00958251953125,-0.23931884765625
1759845986481,1033777189,31374,30,-0.0068359375,-1.00982666015625,-0.23516845703125
1759845986481,1033777189,31374,31,-0.013916015625,-1.01104736328125,-0.22344970703125
1759845989181,1033779768,31375,0,-0.010986328125,-1.00787353515625,-0.24713134765625
1759845989181,1033779768,31375,1,-0.014404296875,-1.01324462890625,-0.22076416015625
1759845989181,1033779768,31375,2,-0.012451171875,-1.00860595703125,-0.23370361328125
1759845989181,1033779768,31375,3,-0.00634765625,-1.01080322265625,-0.21392822265625
1759845989181,1033779768,31375,4,-0.004638671875,-1.00958251953125,-0.22564697265625
1759845989181,1033779768,31375,5,-0.0126953125,-1.01300048828125,-0.21881103515625
1759845989181,1033779768,31375,6,-0.0107421875,-1.00933837890625,-0.21441650390625
1759845989181,1033779768,31375,7,-0.0087890625,-1.01983642578125,-0.20684814453125
1759845989181,1033779768,31375,8,-0.00927734375,-1.01153564453125,-0.21026611328125
1759845989181,1033779768,31375,9,-0.01416015625,-1.01422119140625,-0.19659423828125
1759845989181,1033779768,31375,10,-0.015869140625,-1.01690673828125,-0.20391845703125
1759845989181,1033779768,31375,11,-0.014404296875,-1.00933837890625,-0.22711181640625
1759845989181,1033779768,31375,12,-0.009521484375,-1.01763916015625,-0.20123291015625
1759845989181,1033779768,31375,13,-0.011962890625,-1.00787353515625,-0.22686767578125
1759845989181,1033779768,31375,14,-0.012451171875,-1.01275634765625,-0.22540283203125
1759845989181,1033779768,31375,15,-0.01123046875,-0.99713134765625,-0.23541259765625
1759845989181,1033779768,31375,16,-0.00732421875,-1.01495361328125,-0.22711181640625
1759845989181,1033779768,31375,17,-0.01025390625,-1.01373291015625,-0.20050048828125
1759845989181,1033779768,31375,18,-0.01318359375,-1.00885009765625,-0.22662353515625
1759845989181,1033779768,31375,19,-0.010009765625,-1.01641845703125,-0.22979736328125
1759845989181,1033779768,31375,20,-0.0078125,-1.01031494140625,-0.21539306640625
1759845989181,1033779768,31375,21,-0.00732421875,-1.01422119140625,-0.22247314453125
1759845989181,1033779768,31375,22,-0.0068359375,-1.01641845703125,-0.20709228515625
1759845989181,1033779768,31375,23,-0.010986328125,-1.01519775390625,-0.21246337890625
1759845989181,1033779768,31375,24,-0.00634765625,-1.01031494140625,-0.22613525390625
1759845989181,1033779768,31375,25,-0.015625,-1.01251220703125,-0.22637939453125
1759845989181,1033779768,31375,26,-0.018798828125,-1.01617431640625,-0.23223876953125
1759845989181,1033779768,31375,27,-0.0107421875,-1.01055908203125,-0.21270751953125
1759845989181,1033779768,31375,28,-0.017578125,-1.00738525390625,-0.22955322265625
1759845989181,1033779768,31375,29,-0.01513671875,-1.01324462890625,-0.23590087890625
1759845989181,1033779768,31375,30,-0.014892578125,-1.00592041015625,-0.22808837890625
1759845989181,1033779768,31375,31,-0.0146484375,-1.01202392578125,-0.21905517578125
1759845991728,1033782347,31376,0,-0.009033203125,-1.00787353515625,-0.24078369140625
1759845991728,1033782347,31376,1,-0.01318359375,-1.00738525390625,-0.22979736328125
1759845991728,1033782347,31376,2,-0.010498046875,-0.99542236328125,-0.24639892578125
1759845991728,1033782347,31376,3,-0.005615234375,-0.99688720703125,-0.25738525390625
1759845991728,1033782347,31376,4,-0.00244140625,-1.00494384765625,-0.23785400390625
1759845991728,1033782347,31376,5,-0.009033203125,-1.00006103515625,-0.25030517578125
1759845991728,1033782347,31376,6,-0.012451171875,-1.01275634765625,-0.25006103515625
1759845991728,1033782347,31376,7,-0.015625,-0.99957275390625,-0.24249267578125
1759845991728,1033782347,31376,8,-0.010986328125,-1.01226806640625,-0.25689697265625
1759845991728,1033782347,31376,9,-0.010986328125,-1.00640869140625,-0.24224853515625
1759845991728,1033782347,31376,10,-0.01416015625,-1.00885009765625,-0.24566650390625
1759845991728,1033782347,31376,11,-0.017578125,-1.00299072265625,-0.24468994140625
1759845991728,1033782347,31376,12,-0.014404296875,-1.00982666015625,-0.24493408203125
1759845991728,1033782347,31376,13,-0.010986328125,-1.00762939453125,-0.25494384765625
1759845991728,1033782347,31376,14,-0.0107421875,-1.01715087890625,-0.21734619140625
1759845991728,1033782347,31376,15,-0.0185546875,-1.00103759765625,-0.25347900390625
1759845991728,1033782347,31376,16,-0.005126953125,-1.00933837890625,-0.24957275390625
1759845991728,1033782347,31376,17,-0.006103515625,-1.00250244140625,-0.24127197265625
1759845991728,1033782347,31376,18,-0.010009765625,-1.00787353515625,-0.25103759765625
1759845991728,1033782347,31376,19,-0.000732421875,-0.99517822265625,-0.26617431640625
1759845991728,1033782347,31376,20,-0.003662109375,-0.99615478515625,-0.26861572265625
1759845991728,1033782347,31376,21,-0.00830078125,-0.99615478515625,-0.24884033203125
1759845991728,1033782347,31376,22,-0.01025390625,-1.01129150390625,-0.26177978515625
1759845991728,1033782347,31376,23,-0.01171875,-1.00616455078125,-0.25469970703125
1759845991728,1033782347,31376,24,-0.013427734375,-1.01055908203125,-0.24810791015625
1759845991728,1033782347,31376,25,-0.015625,-1.00958251953125,-0.25592041015625
1759845991728,1033782347,31376,26,-0.010986328125,-1.01739501953125,-0.21954345703125
1759845991728,1033782347,31376,27,-0.015625,-1.00494384765625,-0.24908447265625
1759845991728,1033782347,31376,28,-0.007568359375,-1.00640869140625,-0.25714111328125
1759845991728,1033782347,31376,29,-0.0146484375,-1.00469970703125,-0.24737548828125
1759845991728,1033782347,31376,30,-0.009521484375,-1.00225830078125,-0.24932861328125
1759845991728,1033782347,31376,31,-0.006103515625,-0.99664306640625,-0.24932861328125
1759845994280,1033784926,31377,0,-0.01171875,-1.00103759765625,-0.26861572265625
1759845994280,1033784926,31377,1,-0.005126953125,-1.00250244140625,-0.26153564453125
1759845994280,1033784926,31377,2,-0.009521484375,-0.99908447265625,-0.26226806640625
1759845994280,1033784926,31377,3,-0.01611328125,-1.00152587890625,-0.25250244140625
1759845994280,1033784926,31377,4,-0.006591796875,-1.00640869140625,-0.25836181640625
1759845994280,1033784926,31377,5,-0.009033203125,-1.00689697265625,-0.23980712890625
1759845994280,1033784926,31377,6,-0.0029296875,-1.01055908203125,-0.22247314453125
1759845994280,1033784926,31377,7,0.011474609375,-1.01251220703125,-0.24176025390625
1759845994280,1033784926,31377,8,0.001708984375,-1.01177978515625,-0.22467041015625
1759845994280,1033784926,31377,9,0.0107421875,-1.01568603515625,-0.21246337890625
1759845994280,1033784926,31377,10,0.02734375,-1.00714111328125,-0.20074462890625
1759845994280,1033784926,31377,11,0.01806640625,-1.01641845703125,-0.21929931640625
1759845994280,1033784926,31377,12,0.004638671875,-1.00006103515625,-0.23907470703125
1759845994280,1033784926,31377,13,0.01416015625,-1.00811767578125,-0.26373291015625
1759845994280,1033784926,31377,14,0.011474609375,-1.00372314453125,-0.25543212890625
1759845994280,1033784926,31377,15,0.003173828125,-1.00665283203125,-0.24493408203125
1759845994280,1033784926,31377,16,0.004638671875,-1.00762939453125,-0.25885009765625
1759845994280,1033784926,31377,17,0.007568359375,-0.99664306640625,-0.26300048828125
1759845994280,1033784926,31377,18,0.01123046875,-1.00689697265625,-0.26177978515625
1759845994280,1033784926,31377,19,0.011962890625,-0.99688720703125,-0.26300048828125
1759845994280,1033784926,31377,20,0.00927734375,-0.99664306640625,-0.27374267578125
1759845994280,1033784926,31377,21,0.01025390625,-0.99517822265625,-0.30157470703125
1759845994280,1033784926,31377,22,0.011962890625,-0.97784423828125,-0.30523681640625
1759845994280,1033784926,31377,23,0.009521484375,-0.98980712890625,-0.31793212890625
1759845994280,1033784926,31377,24,0.019287109375,-0.97198486328125,-0.32891845703125
1759845994280,1033784926,31377,25,0.00537109375,-0.98028564453125,-0.33770751953125
1759845994280,1033784926,31377,26,0.0146484375,-0.98760986328125,-0.33233642578125
1759845994280,1033784926,31377,27,0.004638671875,-0.97808837890625,-0.32989501953125
1759845994280,1033784926,31377,28,0.008056640625,-0.98883056640625,-0.33355712890625
1759845994280,1033784926,31377,29,0.005859375,-0.98468017578125,-0.32891845703125
1759845994280,1033784926,31377,30,0.008056640625,-0.98468017578125,-0.32476806640625
1759845994280,1033784926,31377,31,0.012939453125,-0.98175048828125,-0.33135986328125
1759845996827,1033787505,31378,0,0.008056640625,-0.98175048828125,-0.33843994140625
1759845996827,1033787505,31378,1,0.0068359375,-0.98663330078125,-0.33697509765625
1759845996827,1033787505,31378,2,0.000244140625,-0.97760009765625,-0.34454345703125
1759845996827,1033787505,31378,3,0.014404296875,-0.97930908203125,-0.34283447265625
1759845996827,1033787505,31378,4,0.0068359375,-0.97149658203125,-0.35089111328125
1759845996827,1033787505,31378,5,0.008056640625,-0.97418212890625,-0.35137939453125
1759845996827,1033787505,31378,6,0.011474609375,-0.97003173828125,-0.34356689453125
1759845996827,1033787505,31378,7,0.019775390625,-0.97320556640625,-0.35235595703125
1759845996827,1033787505,31378,8,0.021728515625,-0.97027587890625,-0.34967041015625
1759845996827,1033787505,31378,9,0.008056640625,-0.97369384765625,-0.34698486328125
1759845996827,1033787505,31378,10,0.018798828125,-0.98297119140625,-0.34307861328125
1759845996827,1033787505,31378,11,0.013916015625,-0.97760009765625,-0.33917236328125
1759845996827,1033787505,31378,12,0.013427734375,-0.98419189453125,-0.34307861328125
1759845996827,1033787505,31378,13,0.009521484375,-0.97784423828125,-0.33795166015625
1759845996827,1033787505,31378,14,0.017333984375,-0.98126220703125,-0.33795166015625
1759845996827,1033787505,31378,15,0.016845703125,-0.97637939453125,-0.34527587890625
1759845996827,1033787505,31378,16,0.015380859375,-0.98663330078125,-0.33770751953125
1759845996827,1033787505,31378,17,-0.00048828125,-0.97979736328125,-0.33502197265625
1759845996827,1033787505,31378,18,0.021240234375,-0.98370361328125,-0.33673095703125
1759845996827,1033787505,31378,19,0.01318359375,-0.97735595703125,-0.33917236328125
1759845996827,1033787505,31378,20,0.0166015625,-0.98492431640625,-0.33697509765625
1759845996827,1033787505,31378,21,0.00830078125,-0.98565673828125,-0.33648681640625
1759845996827,1033787505,31378,22,0.011474609375,-0.97003173828125,-0.33648681640625
1759845996827,1033787505,31378,23,0.01318359375,-0.97149658203125,-0.34722900390625
1759845996827,1033787505,31378,24,0.01416015625,-0.97760009765625,-0.36407470703125
1759845996827,1033787505,31378,25,0.014892578125,-0.97344970703125,-0.36871337890625
1759845996827,1033787505,31378,26,0.0205078125,-0.96514892578125,-0.37530517578125
1759845996827,1033787505,31378,27,0.01953125,-0.96026611328125,-0.37213134765625
1759845996827,1033787505,31378,28,0.017822265625,-0.96661376953125,-0.38214111328125
1759845996827,1033787505,31378,29,0.024169921875,-0.95855712890625,-0.37994384765625
1759845996827,1033787505,31378,30,0.03173828125,-0.95635986328125,-0.37750244140625
1759845996827,1033787505,31378,31,0.030029296875,-0.96612548828125,-0.37115478515625
1759845999531,1033790084,31379,0,0.038330078125,-0.96759033203125,-0.37115478515625
1759845999531,1033790084,31379,1,0.036865234375,-0.96807861328125,-0.35748291015625
1759845999531,1033790084,31379,2,0.0419921875,-0.96075439453125,-0.34478759765625
1759845999531,1033790084,31379,3,0.038330078125,-0.97027587890625,-0.35479736328125
1759845999531,1033790084,31379,4,0.046875,-0.98931884765625,-0.35284423828125
1759845999531,1033790084,31379,5,0.032958984375,-0.96441650390625,-0.33160400390625
1759845999531,1033790084,31379,6,0.0361328125,-0.99200439453125,-0.33917236328125
1759845999531,1033790084,31379,7,0.03173828125,-0.97882080078125,-0.33331298828125
1759845999531,1033790084,31379,8,0.0302734375,-0.97955322265625,-0.33648681640625
1759845999531,1033790084,31379,9,0.035888671875,-0.97686767578125,-0.33721923828125
1759845999531,1033790084,31379,10,0.040283203125,-0.97882080078125,-0.33819580078125
1759845999531,1033790084,31379,11,0.0322265625,-0.98028564453125,-0.33380126953125
1759845999531,1033790084,31379,12,0.04150390625,-0.98736572265625,-0.32965087890625
1759845999531,1033790084,31379,13,0.032958984375,-0.97564697265625,-0.32623291015625
1759845999531,1033790084,31379,14,0.0458984375,-0.98541259765625,-0.33404541015625
1759845999531,1033790084,31379,15,0.04248046875,-0.97393798828125,-0.32696533203125
1759845999531,1033790084,31379,16,0.0439453125,-0.98272705078125,-0.32525634765625
1759845999531,1033790084,31379,17,0.0517578125,-0.97808837890625,-0.32989501953125
1759845999531,1033790084,31379,18,0.05126953125,-0.97686767578125,-0.32818603515625
1759845999531,1033790084,31379,19,0.046630859375,-0.97613525390625,-0.33258056640625
1759845999531,1033790084,31379,20,0.041748046875,-0.97882080078125,-0.33258056640625
1759845999531,1033790084,31379,21,0.0439453125,-0.98492431640625,-0.33184814453125
1759845999531,1033790084,31379,22,0.04345703125,-0.97686767578125,-0.32672119140625
1759845999531,1033790084,31379,23,0.0458984375,-0.98321533203125,-0.33013916015625
1759845999531,1033790084,31379,24,0.04296875,-0.98175048828125,-0.32330322265625
1759845999531,1033790084,31379,25,0.04248046875,-0.98394775390625,-0.32550048828125
1759845999531,1033790084,31379,26,0.047607421875,-0.97711181640625,-0.32208251953125
1759845999531,1033790084,31379,27,0.04736328125,-0.98223876953125,-0.32452392578125
1759845999531,1033790084,31379,28,0.046875,-0.97833251953125,-0.33380126953125
1759845999531,1033790084,31379,29,0.04638671875,-0.98028564453125,-0.32965087890625
1759845999531,1033790084,31379,30,0.046142578125,-0.97955322265625,-0.33282470703125
1759845999531,1033790084,31379,31,0.048828125,-0.97979736328125,-0.32354736328125
1759846002079,1033792663,31380,0,0.050048828125,-0.97955322265625,-0.32916259765625
1759846002079,1033792663,31380,1,0.0517578125,-0.98004150390625,-0.32794189453125
1759846002079,1033792663,31380,2,0.052001953125,-0.97467041015625,-0.32989501953125
1759846002079,1033792663,31380,3,0.056640625,-0.97906494140625,-0.32598876953125
1759846002079,1033792663,31380,4,0.04638671875,-0.98150634765625,-0.31695556640625
1759846002079,1033792663,31380,5,0.057373046875,-0.98394775390625,-0.32159423828125
1759846002079,1033792663,31380,6,0.046142578125,-0.98565673828125,-0.30841064453125
1759846002079,1033792663,31380,7,0.0546875,-0.98858642578125,-0.30499267578125
1759846002079,1033792663,31380,8,0.0517578125,-0.98492431640625,-0.30108642578125
1759846002079,1033792663,31380,9,0.050537109375,-0.98590087890625,-0.30377197265625
1759846002079,1033792663,31380,10,0.0546875,-0.98760986328125,-0.30230712890625
1759846002079,1033792663,31380,11,0.055908203125,-0.98565673828125,-0.30206298828125
1759846002079,1033792663,31380,12,0.0517578125,-0.98760986328125,-0.29620361328125
1759846002079,1033792663,31380,13,0.05810546875,-0.98590087890625,-0.29840087890625
1759846002079,1033792663,31380,14,0.05224609375,-0.98760986328125,-0.30230712890625
1759846002079,1033792663,31380,15,0.05615234375,-0.98443603515625,-0.30401611328125
1759846002079,1033792663,31380,16,0.054931640625,-0.98199462890625,-0.31866455078125
1759846002079,1033792663,31380,17,0.05029296875,-0.97735595703125,-0.32110595703125
1759846002079,1033792663,31380,18,0.051513671875,-0.97979736328125,-0.33233642578125
1759846002079,1033792663,31380,19,0.0478515625,-0.97857666015625,-0.33380126953125
1759846002079,1033792663,31380,20,0.052734375,-0.97833251953125,-0.33477783203125
1759846002079,1033792663,31380,21,0.0537109375,-0.98077392578125,-0.33624267578125
1759846002079,1033792663,31380,22,0.052490234375,-0.97686767578125,-0.34307861328125
1759846002079,1033792663,31380,23,0.056396484375,-0.97393798828125,-0.35162353515625
1759846002079,1033792663,31380,24,0.06396484375,-0.96978759765625,-0.36383056640625
1759846002079,1033792663,31380,25,0.06396484375,-0.96661376953125,-0.36505126953125
1759846002079,1033792663,31380,26,0.059814453125,-0.95269775390625,-0.36480712890625
1759846002079,1033792663,31380,27,0.06201171875,-0.97833251953125,-0.36676025390625
1759846002079,1033792663,31380,28,0.0732421875,-0.94537353515625,-0.37823486328125
1759846002079,1033792663,31380,29,0.06982421875,-0.95928955078125,-0.37847900390625
1759846002079,1033792663,31380,30,0.066650390625,-0.95880126953125,-0.38067626953125
1759846002079,1033792663,31380,31,0.0791015625,-0.95025634765625,-0.38385009765625
1759846004630,1033795243,31381,0,0.078857421875,-0.95660400390625,-0.38116455078125
1759846004630,1033795243,31381,1,0.064208984375,-0.95513916015625,-0.37774658203125
1759846004630,1033795243,31381,2,0.069091796875,-0.95684814453125,-0.38922119140625
1759846004630,1033795243,31381,3,0.0703125,-0.94879150390625,-0.39288330078125
1759846004630,1033795243,31381,4,0.0634765625,-0.96197509765625,-0.38848876953125
1759846004630,1033795243,31381,5,0.067626953125,-0.95147705078125,-0.39776611328125
1759846004630,1033795243,31381,6,0.05810546875,-0.97491455078125,-0.38531494140625
1759846004630,1033795243,31381,7,0.0537109375,-0.95709228515625,-0.37994384765625
1759846004630,1033795243,31381,8,0.084228515625,-0.94903564453125,-0.39605712890625
1759846004630,1033795243,31381,9,0.07861328125,-0.94390869140625,-0.40753173828125
1759846004630,1033795243,31381,10,0.06787109375,-0.94781494140625,-0.38922119140625
1759846004630,1033795243,31381,11,0.052001953125,-0.96221923828125,-0.39459228515625
1759846004630,1033795243,31381,12,0.08056640625,-0.94317626953125,-0.41436767578125
1759846004630,1033795243,31381,13,0.0751953125,-0.94708251953125,-0.41827392578125
1759846004630,1033795243,31381,14,0.069580078125,-0.95782470703125,-0.39825439453125
1759846004630,1033795243,31381,15,0.072509765625,-0.94586181640625,-0.38800048828125
1759846004630,1033795243,31381,16,0.075927734375,-0.96099853515625,-0.38995361328125
1759846004630,1033795243,31381,17,0.082275390625,-0.94512939453125,-0.38458251953125
1759846004630,1033795243,31381,18,0.082275390625,-0.95391845703125,-0.38677978515625
1759846004630,1033795243,31381,19,0.064208984375,-0.95758056640625,-0.36993408203125
1759846004630,1033795243,31381,20,0.07470703125,-0.95416259765625,-0.38970947265625
1759846004630,1033795243,31381,21,0.0791015625,-0.96173095703125,-0.39630126953125
1759846004630,1033795243,31381,22,0.060546875,-0.97100830078125,-0.36480712890625
1759846004630,1033795243,31381,23,0.076904296875,-0.93975830078125,-0.37896728515625
1759846004630,1033795243,31381,24,0.08349609375,-0.97125244140625,-0.38922119140625
1759846004630,1033795243,31381,25,0.074951171875,-0.94757080078125,-0.36163330078125
1759846004630,1033795243,31381,26,0.090576171875,-0.96392822265625,-0.38336181640625
1759846004630,1033795243,31381,27,0.06884765625,-0.95758056640625,-0.36602783203125
1759846004630,1033795243,31381,28,0.0751953125,-0.96490478515625,-0.36895751953125
1759846004630,1033795243,31381,29,0.079833984375,-0.96417236328125,-0.37701416015625
1759846004630,1033795243,31381,30,0.07568359375,-0.95977783203125,-0.36651611328125
1759846004630,1033795243,31381,31,0.08154296875,-0.96588134765625,-0.37335205078125
1759846007178,1033797816,31382,0,0.06884765625,-0.97930908203125,-0.35308837890625
1759846007178,1033797816,31382,1,0.076416015625,-0.94976806640625,-0.36871337890625
1759846007178,1033797816,31382,2,0.076416015625,-0.97515869140625,-0.36553955078125
1759846007178,1033797816,31382,3,0.0791015625,-0.95806884765625,-0.35357666015625
1759846007178,1033797816,31382,4,0.08642578125,-0.96905517578125,-0.37139892578125
1759846007178,1033797816,31382,5,0.077392578125,-0.96246337890625,-0.35162353515625
1759846007178,1033797816,31382,6,0.077880859375,-0.96441650390625,-0.35968017578125
1759846007178,1033797816,31382,7,0.08203125,-0.97100830078125,-0.35894775390625
1759846007178,1033797816,31382,8,0.077392578125,-0.96343994140625,-0.35186767578125
1759846007178,1033797816,31382,9,0.07666015625,-0.97662353515625,-0.34991455078125
1759846007178,1033797816,31382,10,0.0859375,-0.97222900390625,-0.34332275390625
1759846007178,1033797816,31382,11,0.078857421875,-0.98028564453125,-0.33331298828125
1759846007178,1033797816,31382,12,0.078125,-0.96734619140625,-0.32281494140625
1759846007178,1033797816,31382,13,0.091552734375,-0.97174072265625,-0.36187744140625
1759846007178,1033797816,31382,14,0.07861328125,-0.97393798828125,-0.34552001953125
1759846007178,1033797816,31382,15,0.074951171875,-0.96783447265625,-0.35308837890625
1759846007178,1033797816,31382,16,0.087158203125,-0.96661376953125,-0.35992431640625
1759846007178,1033797816,31382,17,0.089599609375,-0.96343994140625,-0.36773681640625
1759846007178,1033797816,31382,18,0.085693359375,-0.95440673828125,-0.37091064453125
1759846007178,1033797816,31382,19,0.09130859375,-0.95635986328125,-0.37823486328125
1759846007178,1033797816,31382,20,0.09423828125,-0.95440673828125,-0.38360595703125
1759846007178,1033797816,31382,21,0.101806640625,-0.94171142578125,-0.39410400390625
1759846007178,1033797816,31382,22,0.110595703125,-0.93975830078125,-0.39434814453125
1759846007178,1033797816,31382,23,0.1103515625,-0.93756103515625,-0.40191650390625
1759846007178,1033797816,31382,24,0.092041015625,-0.94830322265625,-0.39654541015625
1759846007178,1033797816,31382,25,0.09228515625,-0.95489501953125,-0.37335205078125
1759846007178,1033797816,31382,26,0.093017578125,-0.95928955078125,-0.39239501953125
1759846007178,1033797816,31382,27,0.10595703125,-0.96197509765625,-0.38018798828125
1759846007178,1033797816,31382,28,0.078369140625,-0.96856689453125,-0.34625244140625
1759846007178,1033797816,31382,29,0.09033203125,-0.97540283203125,-0.35260009765625
1759846007178,1033797816,31382,30,0.083251953125,-0.96343994140625,-0.34967041015625
1759846007178,1033797816,31382,31,0.07763671875,-0.97222900390625,-0.34918212890625
1759846009727,1033800395,31383,0,0.082275390625,-0.98004150390625,-0.34356689453125
1759846009727,1033800395,31383,1,0.064453125,-0.96783447265625,-0.32598876953125
1759846009727,1033800395,31383,2,0.09033203125,-0.97637939453125,-0.33941650390625
1759846009727,1033800395,31383,3,0.08984375,-0.97076416015625,-0.33331298828125
1759846009727,1033800395,31383,4,0.086181640625,-0.95806884765625,-0.34063720703125
1759846009727,1033800395,31383,5,0.09521484375,-0.96661376953125,-0.34942626953125
1759846009727,1033800395,31383,6,0.0810546875,-0.97540283203125,-0.33941650390625
1759846009727,1033800395,31383,7,0.078125,-0.97491455078125,-0.34136962890625
1759846009727,1033800395,31383,8,0.08984375,-0.97515869140625,-0.34429931640625
1759846009727,1033800395,31383,9,0.075439453125,-0.97564697265625,-0.33380126953125
1759846009727,1033800395,31383,10,0.08740234375,-0.97833251953125,-0.33599853515625
1759846009727,1033800395,31383,11,0.083740234375,-0.97003173828125,-0.33868408203125
1759846009727,1033800395,31383,12,0.087646484375,-0.97857666015625,-0.32940673828125
1759846009727,1033800395,31383,13,0.08984375,-0.97467041015625,-0.33258056640625
1759846009727,1033800395,31383,14,0.0859375,-0.97760009765625,-0.31231689453125
1759846009727,1033800395,31383,15,0.070068359375,-0.96978759765625,-0.34283447265625
1759846009727,1033800395,31383,16,0.091064453125,-0.98199462890625,-0.31256103515625
1759846009727,1033800395,31383,17,0.080810546875,-0.96270751953125,-0.33624267578125
1759846009727,1033800395,31383,18,0.08642578125,-0.97320556640625,-0.33917236328125
1759846009727,1033800395,31383,19,0.087890625,-0.97467041015625,-0.32257080078125
1759846009727,1033800395,31383,20,0.080322265625,-0.97515869140625,-0.32965087890625
1759846009727,1033800395,31383,21,0.08984375,-0.97906494140625,-0.32550048828125
1759846009727,1033800395,31383,22,0.085693359375,-0.98052978515625,-0.31524658203125
1759846009727,1033800395,31383,23,0.09130859375,-0.99273681640625,-0.30303955078125
1759846009727,1033800395,31383,24,0.06591796875,-0.95367431640625,-0.33795166015625
1759846009727,1033800395,31383,25,0.095458984375,-0.99053955078125,-0.33282470703125
1759846009727,1033800395,31383,26,0.079345703125,-0.97442626953125,-0.33795166015625
1759846009727,1033800395,31383,27,0.0849609375,-0.97320556640625,-0.34210205078125
1759846009727,1033800395,31383,28,0.08837890625,-0.96905517578125,-0.35528564453125
1759846009727,1033800395,31383,29,0.086669921875,-0.96881103515625,-0.34454345703125
1759846009727,1033800395,31383,30,0.09130859375,-0.95953369140625,-0.36187744140625
1759846009727,1033800395,31383,31,0.102783203125,-0.95294189453125,-0.36993408203125
1759846012429,1033802974,31384,0,0.09765625,-0.94683837890625,-0.36627197265625
1759846012429,1033802974,31384,1,0.10107421875,-0.95635986328125,-0.37384033203125
1759846012429,1033802974,31384,2,0.0888671875,-0.95880126953125,-0.36944580078125
1759846012429,1033802974,31384,3,0.094482421875,-0.95855712890625,-0.36676025390625
1759846012429,1033802974,31384,4,0.093017578125,-0.96783447265625,-0.37261962890625
1759846012429,1033802974,31384,5,0.086669921875,-0.95684814453125,-0.36431884765625
1759846012429,1033802974,31384,6,0.072509765625,-0.96539306640625,-0.36260986328125
1759846012429,1033802974,31384,7,0.083740234375,-0.96099853515625,-0.36676025390625
1759846012429,1033802974,31384,8,0.09130859375,-0.95904541015625,-0.37164306640625
1759846012429,1033802974,31384,9,0.08740234375,-0.96368408203125,-0.37237548828125
1759846012429,1033802974,31384,10,0.082763671875,-0.95635986328125,-0.37286376953125
1759846012429,1033802974,31384,11,0.0869140625,-0.95513916015625,-0.37725830078125
1759846012429,1033802974,31384,12,0.088623046875,-0.95928955078125,-0.36846923828125
1759846012429,1033802974,31384,13,0.10009765625,-0.95172119140625,-0.36676025390625
1759846012429,1033802974,31384,14,0.10498046875,-0.95343017578125,-0.36163330078125
1759846012429,1033802974,31384,15,0.10400390625,-0.95611572265625,-0.37139892578125
1759846012429,1033802974,31384,16,0.092041015625,-0.95635986328125,-0.35968017578125
1759846012429,1033802974,31384,17,0.088134765625,-0.96051025390625,-0.36090087890625
1759846012429,1033802974,31384,18,0.100830078125,-0.96588134765625,-0.36285400390625
1759846012429,1033802974,31384,19,0.09130859375,-0.96710205078125,-0.35675048828125
1759846012429,1033802974,31384,20,0.09619140625,-0.97467041015625,-0.32745361328125
1759846012429,1033802974,31384,21,0.094482421875,-0.97711181640625,-0.33038330078125
1759846012429,1033802974,31384,22,0.087158203125,-0.97613525390625,-0.32623291015625
1759846012429,1033802974,31384,23,0.102294921875,-0.97686767578125,-0.32379150390625
1759846012429,1033802974,31384,24,0.092041015625,-0.98150634765625,-0.31915283203125
1759846012429,1033802974,31384,25,0.0888671875,-0.97393798828125,-0.32525634765625
1759846012429,1033802974,31384,26,0.0986328125,-0.97320556640625,-0.33648681640625
1759846012429,1033802974,31384,27,0.100341796875,-0.95880126953125,-0.33843994140625
