receivedPhoneTimestamp,respeckTimestamp,packetSeqNum,sampleSeqNum,accelX,accelY,accelZ
1759871449963,966920722,6389,0,-0.227294921875,-1.09283447265625,-0.03985595703125
1759871449963,966920722,6389,1,-0.19091796875,-1.08258056640625,-0.03253173828125
1759871449963,966920722,6389,2,-0.154052734375,-1.01275634765625,-0.03106689453125
1759871449963,966920722,6389,3,-0.129150390625,-1.03912353515625,-0.05377197265625
1759871449963,966920722,6389,4,-0.19091796875,-1.02301025390625,-0.03228759765625
1759871449963,966920722,6389,5,-0.17626953125,-1.01519775390625,-0.01055908203125
1759871449963,966920722,6389,6,-0.169189453125,-1.03375244140625,-0.00054931640625
1759871449963,966920722,6389,7,-0.208740234375,-1.02008056640625,-0.00885009765625
1759871449963,966920722,6389,8,-0.16357421875,-1.03228759765625,-0.02032470703125
1759871449963,966920722,6389,9,-0.17529296875,-1.02716064453125,0.00067138671875
1759871449963,966920722,6389,10,-0.18603515625,-1.02764892578125,-0.00323486328125
1759871449963,966920722,6389,11,-0.19677734375,-1.02960205078125,-0.01910400390625
1759871449963,966920722,6389,12,-0.186279296875,-1.02081298828125,-0.02301025390625
1759871449963,966920722,6389,13,-0.183837890625,-1.02130126953125,-0.01959228515625
1759871449963,966920722,6389,14,-0.1962890625,-1.02520751953125,-0.02203369140625
1759871449963,966920722,6389,15,-0.191650390625,-1.02569580078125,-0.02716064453125
1759871449963,966920722,6389,16,-0.18408203125,-1.03082275390625,-0.02984619140625
1759871449963,966920722,6389,17,-0.184326171875,-1.03570556640625,-0.04425048828125
1759871449963,966920722,6389,18,-0.17724609375,-1.03326416015625,-0.04302978515625
1759871449963,966920722,6389,19,-0.152099609375,-1.03057861328125,-0.05572509765625
1759871449963,966920722,6389,20,-0.16259765625,-1.01861572265625,-0.05987548828125
1759871449963,966920722,6389,21,-0.146728515625,-1.00909423828125,-0.05279541015625
1759871449963,966920722,6389,22,-0.16796875,-1.00958251953125,-0.04644775390625
1759871449963,966920722,6389,23,-0.17041015625,-0.99151611328125,-0.03326416015625
1759871449963,966920722,6389,24,-0.17138671875,-1.01739501953125,-0.07183837890625
1759871449963,966920722,6389,25,-0.15673828125,-1.06622314453125,-0.06671142578125
1759871449963,966920722,6389,26,-0.17919921875,-1.04913330078125,-0.03497314453125
1759871449963,966920722,6389,27,-0.199951171875,-1.02471923828125,-0.02105712890625
1759871449963,966920722,6389,28,-0.1982421875,-1.03253173828125,-0.00836181640625
1759871449963,966920722,6389,29,-0.193603515625,-1.02081298828125,-0.00323486328125
1759871449963,966920722,6389,30,-0.1962890625,-1.02618408203125,0.00189208984375
1759871449963,966920722,6389,31,-0.178955078125,-1.01690673828125,0.00555419921875
1759871452483,966923260,6390,0,-0.18505859375,-1.03472900390625,0.00775146484375
1759871452483,966923260,6390,1,-0.246826171875,-1.03546142578125,0.05096435546875
1759871452483,966923260,6390,2,-0.2177734375,-1.02178955078125,0.01580810546875
1759871452483,966923260,6390,3,-0.1728515625,-1.02862548828125,-0.00274658203125
1759871452483,966923260,6390,4,-0.171875,-1.03497314453125,-0.01177978515625
1759871452483,966923260,6390,5,-0.1884765625,-1.03887939453125,0.00701904296875
1759871452483,966923260,6390,6,-0.17529296875,-1.02276611328125,-0.02154541015625
1759871452483,966923260,6390,7,-0.181884765625,-1.01715087890625,-0.02618408203125
1759871452483,966923260,6390,8,-0.167236328125,-1.02716064453125,-0.03350830078125
1759871452483,966923260,6390,9,-0.151611328125,-1.00469970703125,-0.04083251953125
1759871452483,966923260,6390,10,-0.166748046875,-1.01812744140625,-0.03057861328125
1759871452483,966923260,6390,11,-0.166015625,-1.01373291015625,-0.05084228515625
1759871452483,966923260,6390,12,-0.159912109375,-1.01031494140625,-0.06768798828125
1759871452483,966923260,6390,13,-0.172607421875,-1.01348876953125,-0.02081298828125
1759871452483,966923260,6390,14,-0.123046875,-1.05328369140625,-0.08721923828125
1759871452483,966923260,6390,15,-0.161865234375,-1.06353759765625,-0.04254150390625
1759871452483,966923260,6390,16,-0.179931640625,-1.02618408203125,-0.02325439453125
1759871452483,966923260,6390,17,-0.186279296875,-1.03692626953125,-0.01910400390625
1759871452483,966923260,6390,18,-0.150146484375,-1.03277587890625,-0.01177978515625
1759871452483,966923260,6390,19,-0.195556640625,-1.02008056640625,0.01239013671875
1759871452483,966923260,6390,20,-0.201904296875,-1.02081298828125,0.02410888671875
1759871452483,966923260,6390,21,-0.16845703125,-1.03863525390625,0.00115966796875
1759871452483,966923260,6390,22,-0.176513671875,-1.01666259765625,0.00994873046875
1759871452483,966923260,6390,23,-0.1689453125,-1.02569580078125,0.01263427734375
1759871452483,966923260,6390,24,-0.166259765625,-1.05450439453125,-0.00421142578125
1759871452483,966923260,6390,25,-0.183837890625,-1.02789306640625,0.00555419921875
1759871452483,966923260,6390,26,-0.178955078125,-1.02105712890625,0.00946044921875
1759871452483,966923260,6390,27,-0.15380859375,-1.02398681640625,-0.00762939453125
1759871452483,966923260,6390,28,-0.141845703125,-1.01666259765625,-0.02496337890625
1759871452483,966923260,6390,29,-0.173095703125,-1.01959228515625,-0.00958251953125
1759871452483,966923260,6390,30,-0.154052734375,-1.03521728515625,-0.02056884765625
1759871452483,966923260,6390,31,-0.1416015625,-1.02886962890625,-0.04571533203125
1759871454998,966925797,6391,0,-0.13818359375,-1.00543212890625,-0.03448486328125
1759871454998,966925797,6391,1,-0.142578125,-0.96710205078125,-0.02276611328125
1759871454998,966925797,6391,2,-0.17041015625,-1.06475830078125,-0.05914306640625
1759871454998,966925797,6391,3,-0.179443359375,-1.06695556640625,-0.04376220703125
1759871454998,966925797,6391,4,-0.197265625,-1.02789306640625,-0.02667236328125
1759871454998,966925797,6391,5,-0.20361328125,-1.02178955078125,0.00848388671875
1759871454998,966925797,6391,6,-0.19091796875,-1.02716064453125,0.00262451171875
1759871454998,966925797,6391,7,-0.212158203125,-1.02105712890625,0.02069091796875
1759871454998,966925797,6391,8,-0.204833984375,-1.02154541015625,0.01776123046875
1759871454998,966925797,6391,9,-0.182373046875,-1.03912353515625,0.00262451171875
1759871454998,966925797,6391,10,-0.2041015625,-1.03179931640625,0.01849365234375
1759871454998,966925797,6391,11,-0.209228515625,-1.02789306640625,0.01849365234375
1759871454998,966925797,6391,12,-0.2138671875,-1.02569580078125,0.02044677734375
1759871454998,966925797,6391,13,-0.18505859375,-1.01763916015625,0.00750732421875
1759871454998,966925797,6391,14,-0.1640625,-1.03009033203125,-0.00714111328125
1759871454998,966925797,6391,15,-0.188720703125,-1.03082275390625,-0.00030517578125
1759871454998,966925797,6391,16,-0.18505859375,-1.01617431640625,-0.01617431640625
1759871454998,966925797,6391,17,-0.17578125,-1.01104736328125,-0.01544189453125
1759871454998,966925797,6391,18,-0.18701171875,-1.03302001953125,-0.02154541015625
1759871454998,966925797,6391,19,-0.1689453125,-1.01739501953125,-0.05865478515625
1759871454998,966925797,6391,20,-0.17431640625,-0.96392822265625,-0.02716064453125
1759871454998,966925797,6391,21,-0.1708984375,-1.03741455078125,-0.05450439453125
1759871454998,966925797,6391,22,-0.17333984375,-1.05181884765625,-0.05596923828125
1759871454998,966925797,6391,23,-0.184814453125,-1.03668212890625,-0.03521728515625
1759871454998,966925797,6391,24,-0.198486328125,-1.02398681640625,-0.01690673828125
1759871454998,966925797,6391,25,-0.188720703125,-1.04669189453125,-0.03814697265625
1759871454998,966925797,6391,26,-0.21923828125,-1.00030517578125,0.03753662109375
1759871454998,966925797,6391,27,-0.196533203125,-1.02716064453125,0.02337646484375
1759871454998,966925797,6391,28,-0.216796875,-1.02984619140625,0.01678466796875
1759871454998,966925797,6391,29,-0.1904296875,-1.03619384765625,-0.00225830078125
1759871454998,966925797,6391,30,-0.202392578125,-1.01544189453125,0.02532958984375
1759871454998,966925797,6391,31,-0.201171875,-1.02935791015625,-0.01568603515625
1759871457521,966928334,6392,0,-0.205078125,-1.02813720703125,0.00872802734375
1759871457521,966928334,6392,1,-0.204833984375,-1.01837158203125,0.00750732421875
1759871457521,966928334,6392,2,-0.19677734375,-1.02423095703125,-0.01031494140625
1759871457521,966928334,6392,3,-0.17041015625,-1.01861572265625,-0.03985595703125
1759871457521,966928334,6392,4,-0.175537109375,-1.03765869140625,-0.03204345703125
1759871457521,966928334,6392,5,-0.17138671875,-1.02252197265625,-0.02838134765625
1759871457521,966928334,6392,6,-0.18017578125,-1.02593994140625,-0.04669189453125
1759871457521,966928334,6392,7,-0.167724609375,-1.02642822265625,-0.04864501953125
1759871457521,966928334,6392,8,-0.166748046875,-1.00738525390625,-0.04522705078125
1759871457521,966928334,6392,9,-0.164794921875,-0.97296142578125,-0.05426025390625
1759871457521,966928334,6392,10,-0.1533203125,-1.04595947265625,-0.03350830078125
1759871457521,966928334,6392,11,-0.176025390625,-1.04473876953125,-0.06011962890625
1759871457521,966928334,6392,12,-0.17919921875,-1.04034423828125,-0.02618408203125
1759871457521,966928334,6392,13,-0.17138671875,-1.02398681640625,-0.01300048828125
1759871457521,966928334,6392,14,-0.1796875,-1.02886962890625,-0.01153564453125
1759871457521,966928334,6392,15,-0.204833984375,-1.03302001953125,-0.00079345703125
1759871457521,966928334,6392,16,-0.187744140625,-1.03277587890625,0.00628662109375
1759871457521,966928334,6392,17,-0.181884765625,-1.02935791015625,-0.00103759765625
1759871457521,966928334,6392,18,-0.183837890625,-1.02886962890625,-0.00567626953125
1759871457521,966928334,6392,19,-0.189453125,-1.05181884765625,-0.01055908203125
1759871457521,966928334,6392,20,-0.201171875,-1.02911376953125,-0.00445556640625
1759871457521,966928334,6392,21,-0.192626953125,-1.00982666015625,0.00311279296875
1759871457521,966928334,6392,22,-0.162353515625,-1.01080322265625,-0.02862548828125
1759871457521,966928334,6392,23,-0.204833984375,-1.02447509765625,0.00311279296875
1759871457521,966928334,6392,24,-0.189208984375,-1.02862548828125,-0.00860595703125
1759871457521,966928334,6392,25,-0.198486328125,-1.01837158203125,-0.02130126953125
1759871457521,966928334,6392,26,-0.2001953125,-1.00689697265625,-0.03399658203125
1759871457521,966928334,6392,27,-0.202880859375,-1.01715087890625,-0.02642822265625
1759871457521,966928334,6392,28,-0.215087890625,-1.00640869140625,-0.02984619140625
1759871457521,966928334,6392,29,-0.218505859375,-1.00640869140625,0.00042724609375
1759871457521,966928334,6392,30,-0.2021484375,-1.02349853515625,-0.03472900390625
1759871457521,966928334,6392,31,-0.183837890625,-1.05499267578125,-0.03619384765625
1759871460029,966930871,6393,0,-0.2109375,-1.03277587890625,-0.02642822265625
1759871460029,966930871,6393,1,-0.204345703125,-1.01544189453125,0.00018310546875
1759871460029,966930871,6393,2,-0.19140625,-1.02203369140625,-0.00469970703125
1759871460029,966930871,6393,3,-0.19287109375,-1.03057861328125,-0.00518798828125
1759871460029,966930871,6393,4,-0.203857421875,-1.03131103515625,-0.00347900390625
1759871460029,966930871,6393,5,-0.20458984375,-1.02667236328125,-0.00689697265625
1759871460029,966930871,6393,6,-0.18896484375,-1.02520751953125,-0.01641845703125
1759871460029,966930871,6393,7,-0.19873046875,-1.02423095703125,-0.00836181640625
1759871460029,966930871,6393,8,-0.188720703125,-1.03594970703125,-0.01519775390625
1759871460029,966930871,6393,9,-0.1474609375,-1.03009033203125,-0.04571533203125
1759871460029,966930871,6393,10,-0.158447265625,-1.04254150390625,-0.05181884765625
1759871460029,966930871,6393,11,-0.16015625,-1.08184814453125,-0.08233642578125
1759871460029,966930871,6393,12,-0.16064453125,-1.01568603515625,-0.07183837890625
1759871460029,966930871,6393,13,-0.11962890625,-0.99493408203125,-0.06915283203125
1759871460029,966930871,6393,14,-0.140869140625,-1.01861572265625,-0.08258056640625
1759871460029,966930871,6393,15,-0.145751953125,-1.01837158203125,-0.08770751953125
1759871460029,966930871,6393,16,-0.15380859375,-1.00250244140625,-0.09991455078125
1759871460029,966930871,6393,17,-0.124755859375,-1.03717041015625,-0.09649658203125
1759871460029,966930871,6393,18,-0.255859375,-0.99981689453125,-0.04547119140625
1759871460029,966930871,6393,19,-0.181396484375,-1.04107666015625,-0.05865478515625
1759871460029,966930871,6393,20,-0.224609375,-1.03424072265625,-0.06793212890625
1759871460029,966930871,6393,21,-0.201904296875,-1.02813720703125,-0.06207275390625
1759871460029,966930871,6393,22,-0.20751953125,-1.01446533203125,-0.02130126953125
1759871460029,966930871,6393,23,-0.218994140625,-1.03009033203125,-0.01983642578125
1759871460029,966930871,6393,24,-0.21484375,-1.01324462890625,0.00384521484375
1759871460029,966930871,6393,25,-0.211181640625,-1.03326416015625,0.00604248046875
1759871460029,966930871,6393,26,-0.202392578125,-1.02545166015625,-0.01226806640625
1759871460029,966930871,6393,27,-0.204345703125,-1.02423095703125,0.00311279296875
1759871460029,966930871,6393,28,-0.18896484375,-1.02423095703125,-0.01007080078125
1759871460029,966930871,6393,29,-0.195068359375,-1.02716064453125,-0.02252197265625
1759871460029,966930871,6393,30,-0.19287109375,-1.02569580078125,-0.01373291015625
1759871460029,966930871,6393,31,-0.193359375,-1.02349853515625,-0.02105712890625
1759871462549,966933408,6394,0,-0.225341796875,-1.02496337890625,-0.02325439453125
1759871462549,966933408,6394,1,-0.197998046875,-1.03106689453125,-0.02276611328125
1759871462549,966933408,6394,2,-0.204345703125,-1.01959228515625,-0.02716064453125
1759871462549,966933408,6394,3,-0.214599609375,-1.03424072265625,-0.02838134765625
1759871462549,966933408,6394,4,-0.234375,-1.00323486328125,-0.02691650390625
1759871462549,966933408,6394,5,-0.205810546875,-1.01202392578125,-0.03839111328125
1759871462549,966933408,6394,6,-0.18994140625,-1.01055908203125,-0.04010009765625
1759871462549,966933408,6394,7,-0.17529296875,-1.01007080078125,-0.04010009765625
1759871462549,966933408,6394,8,-0.183349609375,-1.02325439453125,-0.03179931640625
1759871462549,966933408,6394,9,-0.18359375,-1.04522705078125,-0.04058837890625
1759871462549,966933408,6394,10,-0.17724609375,-1.02008056640625,-0.04156494140625
1759871462549,966933408,6394,11,-0.191162109375,-1.03253173828125,-0.03375244140625
1759871462549,966933408,6394,12,-0.210205078125,-1.02349853515625,-0.00762939453125
1759871462549,966933408,6394,13,-0.20947265625,-1.02252197265625,0.00091552734375
1759871462549,966933408,6394,14,-0.22802734375,-1.02203369140625,0.01190185546875
1759871462549,966933408,6394,15,-0.209716796875,-1.01690673828125,-0.01446533203125
1759871462549,966933408,6394,16,-0.193115234375,-1.02862548828125,-0.01568603515625
1759871462549,966933408,6394,17,-0.210205078125,-1.02032470703125,-0.01788330078125
1759871462549,966933408,6394,18,-0.21826171875,-1.02374267578125,-0.01519775390625
1759871462549,966933408,6394,19,-0.21142578125,-1.03985595703125,-0.02618408203125
1759871462549,966933408,6394,20,-0.2236328125,-1.01397705078125,-0.00714111328125
1759871462549,966933408,6394,21,-0.208984375,-1.00933837890625,-0.02178955078125
1759871462549,966933408,6394,22,-0.19921875,-1.03594970703125,-0.02154541015625
1759871462549,966933408,6394,23,-0.20068359375,-1.01031494140625,-0.02960205078125
1759871462549,966933408,6394,24,-0.20556640625,-1.03228759765625,-0.03887939453125
1759871462549,966933408,6394,25,-0.191162109375,-1.00982666015625,-0.05059814453125
1759871462549,966933408,6394,26,-0.21337890625,-1.01934814453125,-0.04962158203125
1759871462549,966933408,6394,27,-0.190673828125,-1.02716064453125,-0.03546142578125
1759871462549,966933408,6394,28,-0.202392578125,-1.00225830078125,-0.03643798828125
1759871462549,966933408,6394,29,-0.20654296875,-1.02838134765625,-0.05450439453125
1759871462549,966933408,6394,30,-0.207763671875,-1.02545166015625,-0.04986572265625
1759871462549,966933408,6394,31,-0.2265625,-1.01153564453125,-0.01837158203125
1759871465080,966935945,6395,0,-0.22265625,-1.01470947265625,-0.03277587890625
1759871465080,966935945,6395,1,-0.217041015625,-1.02716064453125,-0.03570556640625
1759871465080,966935945,6395,2,-0.2333984375,-1.02496337890625,-0.03057861328125
1759871465080,966935945,6395,3,-0.23193359375,-1.02447509765625,-0.04180908203125
1759871465080,966935945,6395,4,-0.24462890625,-1.02252197265625,-0.00567626953125
1759871465080,966935945,6395,5,-0.22900390625,-1.01959228515625,-0.01544189453125
1759871465080,966935945,6395,6,-0.229736328125,-1.01226806640625,-0.02667236328125
1759871465080,966935945,6395,7,-0.222900390625,-1.02178955078125,-0.02716064453125
1759871465080,966935945,6395,8,-0.225830078125,-1.02276611328125,-0.02105712890625
1759871465080,966935945,6395,9,-0.234130859375,-1.02716064453125,-0.03033447265625
1759871465080,966935945,6395,10,-0.265869140625,-1.00836181640625,0.00018310546875
1759871465080,966935945,6395,11,-0.2333984375,-1.00299072265625,-0.01495361328125
1759871465080,966935945,6395,12,-0.2412109375,-1.02008056640625,-0.02008056640625
1759871465080,966935945,6395,13,-0.24169921875,-1.01519775390625,-0.02154541015625
1759871465080,966935945,6395,14,-0.236328125,-1.01080322265625,-0.02886962890625
1759871465080,966935945,6395,15,-0.23583984375,-1.01324462890625,-0.03179931640625
1759871465080,966935945,6395,16,-0.2333984375,-1.00543212890625,-0.02789306640625
1759871465080,966935945,6395,17,-0.259521484375,-1.02520751953125,-0.00933837890625
1759871465080,966935945,6395,18,-0.23291015625,-1.00152587890625,-0.00885009765625
1759871465080,966935945,6395,19,-0.229248046875,-1.00543212890625,-0.00885009765625
1759871465080,966935945,6395,20,-0.221923828125,-1.02642822265625,-0.01666259765625
1759871465080,966935945,6395,21,-0.23046875,-1.03302001953125,-0.01861572265625
1759871465080,966935945,6395,22,-0.239501953125,-1.01251220703125,0.00311279296875
1759871465080,966935945,6395,23,-0.231201171875,-1.01788330078125,0.01336669921875
1759871465080,966935945,6395,24,-0.216796875,-1.02130126953125,0.00457763671875
1759871465080,966935945,6395,25,-0.20947265625,-1.01495361328125,0.00360107421875
1759871465080,966935945,6395,26,-0.211181640625,-1.02154541015625,-0.00128173828125
1759871465080,966935945,6395,27,-0.21044921875,-1.02178955078125,0.00677490234375
1759871465080,966935945,6395,28,-0.208984375,-1.02252197265625,0.00726318359375
1759871465080,966935945,6395,29,-0.20556640625,-1.02056884765625,0.01116943359375
1759871465080,966935945,6395,30,-0.20458984375,-1.03692626953125,-0.00177001953125
1759871465080,966935945,6395,31,-0.1943359375,-1.02667236328125,-0.00225830078125
1759871467604,966938482,6396,0,-0.198486328125,-1.02301025390625,-0.00469970703125
1759871467604,966938482,6396,1,-0.21142578125,-1.02056884765625,-0.00079345703125
1759871467604,966938482,6396,2,-0.199951171875,-1.02862548828125,-0.02178955078125
1759871467604,966938482,6396,3,-0.2275390625,-1.01739501953125,-0.02008056640625
1759871467604,966938482,6396,4,-0.205078125,-1.02423095703125,-0.00909423828125
1759871467604,966938482,6396,5,-0.20068359375,-1.02203369140625,-0.03253173828125
1759871467604,966938482,6396,6,-0.21240234375,-1.02105712890625,-0.03619384765625
1759871467604,966938482,6396,7,-0.2099609375,-1.01959228515625,-0.03765869140625
1759871467604,966938482,6396,8,-0.218017578125,-1.01129150390625,-0.03131103515625
1759871467604,966938482,6396,9,-0.205810546875,-1.01544189453125,-0.03717041015625
1759871467604,966938482,6396,10,-0.203125,-1.00933837890625,-0.03350830078125
1759871467604,966938482,6396,11,-0.20361328125,-1.00372314453125,-0.02667236328125
1759871467604,966938482,6396,12,-0.19580078125,-1.02081298828125,-0.03521728515625
1759871467604,966938482,6396,13,-0.181884765625,-1.05889892578125,-0.04010009765625
1759871467604,966938482,6396,14,-0.183837890625,-1.03033447265625,-0.02227783203125
1759871467604,966938482,6396,15,-0.206787109375,-1.01983642578125,-0.00323486328125
1759871467604,966938482,6396,16,-0.219482421875,-1.02447509765625,-6.103515625e-05
1759871467604,966938482,6396,17,-0.205810546875,-1.02032470703125,0.01678466796875
1759871467604,966938482,6396,18,-0.21337890625,-1.02349853515625,0.00970458984375
1759871467604,966938482,6396,19,-0.209716796875,-1.01959228515625,0.00921630859375
1759871467604,966938482,6396,20,-0.21630859375,-1.01910400390625,0.01214599609375
1759871467604,966938482,6396,21,-0.22314453125,-1.02252197265625,0.00872802734375
1759871467604,966938482,6396,22,-0.204345703125,-1.01934814453125,0.01019287109375
1759871467604,966938482,6396,23,-0.2099609375,-1.02252197265625,0.00628662109375
1759871467604,966938482,6396,24,-0.202880859375,-1.02593994140625,0.00091552734375
1759871467604,966938482,6396,25,-0.211669921875,-1.01910400390625,0.00238037109375
1759871467604,966938482,6396,26,-0.20654296875,-1.03253173828125,-0.00250244140625
1759871467604,966938482,6396,27,-0.216796875,-1.02130126953125,0.00213623046875
1759871467604,966938482,6396,28,-0.2197265625,-1.01812744140625,0.00311279296875
1759871467604,966938482,6396,29,-0.218505859375,-1.02374267578125,0.00408935546875
1759871467604,966938482,6396,30,-0.2138671875,-1.01959228515625,-0.00885009765625
1759871467604,966938482,6396,31,-0.193603515625,-1.02252197265625,-0.01031494140625
1759871470307,966941019,6397,0,-0.1953125,-1.01470947265625,-0.01568603515625
1759871470307,966941019,6397,1,-0.1923828125,-1.01666259765625,-0.01324462890625
1759871470307,966941019,6397,2,-0.193359375,-1.01959228515625,-0.02398681640625
1759871470307,966941019,6397,3,-0.197998046875,-1.01495361328125,-0.02130126953125
1759871470307,966941019,6397,4,-0.203369140625,-1.01324462890625,-0.00738525390625
1759871470307,966941019,6397,5,-0.190673828125,-1.03350830078125,-0.03082275390625
1759871470307,966941019,6397,6,-0.179443359375,-1.04840087890625,-0.01129150390625
1759871470307,966941019,6397,7,-0.192626953125,-1.01593017578125,-0.00909423828125
1759871470307,966941019,6397,8,-0.2216796875,-1.02056884765625,0.00946044921875
1759871470307,966941019,6397,9,-0.219482421875,-1.02471923828125,0.02777099609375
1759871470307,966941019,6397,10,-0.21240234375,-1.01861572265625,0.02239990234375
1759871470307,966941019,6397,11,-0.21728515625,-1.01422119140625,0.02410888671875
1759871470307,966941019,6397,12,-0.220703125,-1.02593994140625,0.02069091796875
1759871470307,966941019,6397,13,-0.22119140625,-1.01519775390625,0.03070068359375
1759871470307,966941019,6397,14,-0.224609375,-1.02008056640625,0.02899169921875
1759871470307,966941019,6397,15,-0.220458984375,-1.01812744140625,0.02630615234375
1759871470307,966941019,6397,16,-0.221923828125,-1.01470947265625,0.02337646484375
1759871470307,966941019,6397,17,-0.21826171875,-1.01885986328125,0.02093505859375
1759871470307,966941019,6397,18,-0.216064453125,-1.02447509765625,0.01824951171875
1759871470307,966941019,6397,19,-0.21337890625,-1.02154541015625,0.02239990234375
1759871470307,966941019,6397,20,-0.222412109375,-1.01983642578125,0.01116943359375
1759871470307,966941019,6397,21,-0.226318359375,-1.01910400390625,0.01531982421875
1759871470307,966941019,6397,22,-0.239990234375,-1.02276611328125,0.02117919921875
1759871470307,966941019,6397,23,-0.23193359375,-1.00738525390625,0.01434326171875
1759871470307,966941019,6397,24,-0.23046875,-1.01397705078125,0.00238037109375
1759871470307,966941019,6397,25,-0.233154296875,-1.02471923828125,0.00750732421875
1759871470307,966941019,6397,26,-0.224609375,-1.02105712890625,0.00970458984375
1759871470307,966941019,6397,27,-0.2314453125,-1.01763916015625,0.00506591796875
1759871470307,966941019,6397,28,-0.22265625,-1.01568603515625,-0.01080322265625
1759871470307,966941019,6397,29,-0.234130859375,-1.02154541015625,-0.01885986328125
1759871470307,966941019,6397,30,-0.227294921875,-1.02374267578125,-0.01861572265625
1759871470307,966941019,6397,31,-0.235595703125,-1.01910400390625,-0.02227783203125
1759871472829,966943556,6398,0,-0.228515625,-1.01715087890625,-0.02667236328125
1759871472829,966943556,6398,1,-0.235107421875,-1.01593017578125,-0.02569580078125
1759871472829,966943556,6398,2,-0.239013671875,-1.00372314453125,-0.02325439453125
1759871472829,966943556,6398,3,-0.229736328125,-1.01422119140625,-0.03497314453125
1759871472829,966943556,6398,4,-0.2294921875,-1.00836181640625,-0.02423095703125
1759871472829,966943556,6398,5,-0.2421875,-1.00689697265625,-0.03424072265625
1759871472829,966943556,6398,6,-0.240234375,-1.00201416015625,-0.02520751953125
1759871472829,966943556,6398,7,-0.243896484375,-1.04205322265625,-0.02691650390625
1759871472829,966943556,6398,8,-0.181640625,-1.02301025390625,-0.03106689453125
1759871472829,966943556,6398,9,-0.22802734375,-1.00616455078125,-0.04034423828125
1759871472829,966943556,6398,10,-0.191650390625,-1.02423095703125,-0.01055908203125
1759871472829,966943556,6398,11,-0.215087890625,-1.03228759765625,0.00042724609375
1759871475345,966946093,6399,1,-0.12451171875,-1.05670166015625,-0.04669189453125
1759871475345,966946093,6399,2,-0.134033203125,-1.01812744140625,-0.04742431640625
1759871475345,966946093,6399,3,-0.169677734375,-1.01617431640625,-0.08062744140625
1759871475345,966946093,6399,4,-0.2109375,-1.02838134765625,-0.08355712890625
1759871475345,966946093,6399,5,-0.20166015625,-1.04034423828125,-0.03692626953125
1759871475345,966946093,6399,6,-0.15869140625,-1.02740478515625,-0.05523681640625
1759871475345,966946093,6399,7,-0.205078125,-1.04913330078125,-0.03790283203125
1759871475345,966946093,6399,8,-0.21875,-1.00372314453125,-0.03887939453125
1759871475345,966946093,6399,9,-0.196044921875,-1.01641845703125,-0.04473876953125
1759871475345,966946093,6399,10,-0.208984375,-1.02325439453125,-0.04473876953125
1759871475345,966946093,6399,11,-0.219482421875,-1.02081298828125,-0.05352783203125
1759871475345,966946093,6399,12,-0.19482421875,-1.03521728515625,-0.06329345703125
1759871475345,966946093,6399,13,-0.212890625,-1.01544189453125,-0.05474853515625
1759871475345,966946093,6399,14,-0.186279296875,-1.02569580078125,-0.03887939453125
1759871475345,966946093,6399,15,-0.183837890625,-1.02813720703125,-0.06451416015625
1759871475345,966946093,6399,16,-0.205078125,-1.01397705078125,-0.06085205078125
1759871475345,966946093,6399,17,-0.20849609375,-1.02081298828125,-0.06939697265625
1759871475345,966946093,6399,18,-0.190185546875,-1.01983642578125,-0.07037353515625
1759871475345,966946093,6399,19,-0.190185546875,-1.01641845703125,-0.06695556640625
1759871475345,966946093,6399,20,-0.19677734375,-1.01470947265625,-0.05987548828125
1759871475345,966946093,6399,21,-0.197265625,-1.02301025390625,-0.05548095703125
1759871475345,966946093,6399,22,-0.189697265625,-1.04156494140625,-0.05303955078125
1759871475345,966946093,6399,23,-0.20556640625,-1.01129150390625,-0.03985595703125
1759871475345,966946093,6399,24,-0.231689453125,-1.01959228515625,-0.03033447265625
1759871475345,966946093,6399,25,-0.2255859375,-1.02471923828125,-0.02252197265625
1759871475345,966946093,6399,26,-0.22021484375,-1.02886962890625,-0.01202392578125
1759871475345,966946093,6399,27,-0.20654296875,-1.01397705078125,-0.00933837890625
1759871475345,966946093,6399,28,-0.21630859375,-1.02105712890625,-0.01251220703125
1759871475345,966946093,6399,29,-0.227783203125,-1.02374267578125,0.00408935546875
1759871475345,966946093,6399,30,-0.209716796875,-1.02764892578125,-0.00787353515625
1759871475345,966946093,6399,31,-0.20703125,-1.02081298828125,-0.00860595703125
1759871477859,966948630,6400,0,-0.212646484375,-1.01788330078125,-0.01153564453125
1759871477859,966948630,6400,1,-0.212158203125,-1.02276611328125,-0.01739501953125
1759871477859,966948630,6400,2,-0.223388671875,-1.02764892578125,-0.01812744140625
1759871477859,966948630,6400,3,-0.212646484375,-1.01983642578125,-0.02667236328125
1759871477859,966948630,6400,4,-0.22216796875,-1.02032470703125,-0.02423095703125
1759871477859,966948630,6400,5,-0.21826171875,-1.01788330078125,-0.03277587890625
1759871477859,966948630,6400,6,-0.22119140625,-1.01861572265625,-0.03131103515625
1759871477859,966948630,6400,7,-0.21484375,-1.01177978515625,-0.03643798828125
1759871477859,966948630,6400,8,-0.213623046875,-1.01422119140625,-0.03619384765625
1759871477859,966948630,6400,9,-0.2255859375,-1.01202392578125,-0.03277587890625
1759871477859,966948630,6400,10,-0.22607421875,-1.00640869140625,-0.03424072265625
1759871477859,966948630,6400,11,-0.224609375,-1.02716064453125,-0.02569580078125
1759871477859,966948630,6400,12,-0.2060546875,-1.04034423828125,-0.02642822265625
1759871477859,966948630,6400,13,-0.217529296875,-1.01763916015625,-0.01397705078125
1759871477859,966948630,6400,14,-0.2236328125,-1.01837158203125,-0.00738525390625
1759871477859,966948630,6400,15,-0.220947265625,-1.01861572265625,0.00506591796875
1759871477859,966948630,6400,16,-0.21484375,-1.01470947265625,0.00457763671875
1759871477859,966948630,6400,17,-0.216552734375,-1.02618408203125,0.01556396484375
1759871477859,966948630,6400,18,-0.218017578125,-1.01910400390625,0.01116943359375
1759871477859,966948630,6400,19,-0.227783203125,-1.01739501953125,0.01531982421875
1759871477859,966948630,6400,20,-0.220458984375,-1.02032470703125,0.01727294921875
1759871477859,966948630,6400,21,-0.218994140625,-1.02130126953125,0.01116943359375
1759871477859,966948630,6400,22,-0.226318359375,-1.01495361328125,0.00408935546875
1759871477859,966948630,6400,23,-0.221923828125,-1.02276611328125,0.00018310546875
1759871477859,966948630,6400,24,-0.217041015625,-1.03057861328125,0.00408935546875
1759871477859,966948630,6400,25,-0.2294921875,-1.01690673828125,-0.00689697265625
1759871477859,966948630,6400,26,-0.230712890625,-1.01202392578125,-0.00152587890625
1759871477859,966948630,6400,27,-0.224365234375,-1.02764892578125,-0.00909423828125
1759871477859,966948630,6400,28,-0.223876953125,-1.02056884765625,-0.01544189453125
1759871477859,966948630,6400,29,-0.22021484375,-1.00933837890625,-0.01983642578125
1759871477859,966948630,6400,30,-0.23583984375,-1.01080322265625,-0.02252197265625
1759871477859,966948630,6400,31,-0.21826171875,-1.01934814453125,-0.02716064453125
1759871480385,966951167,6401,0,-0.211181640625,-1.01788330078125,-0.03961181640625
1759871480385,966951167,6401,1,-0.220703125,-1.00909423828125,-0.03399658203125
1759871480385,966951167,6401,2,-0.212890625,-1.01226806640625,-0.02935791015625
1759871480385,966951167,6401,3,-0.2080078125,-1.03082275390625,-0.04229736328125
1759871480385,966951167,6401,4,-0.205078125,-1.03936767578125,-0.03765869140625
1759871480385,966951167,6401,5,-0.208740234375,-1.02203369140625,-0.02471923828125
1759871480385,966951167,6401,6,-0.21484375,-1.02276611328125,-0.01007080078125
1759871480385,966951167,6401,7,-0.220703125,-1.02081298828125,-0.00396728515625
1759871480385,966951167,6401,8,-0.216796875,-1.02301025390625,0.00018310546875
1759871480385,966951167,6401,9,-0.219970703125,-1.01593017578125,0.00750732421875
1759871480385,966951167,6401,10,-0.223876953125,-1.01690673828125,0.00701904296875
1759871480385,966951167,6401,11,-0.22607421875,-1.02056884765625,0.00360107421875
1759871480385,966951167,6401,12,-0.21826171875,-1.02642822265625,0.00311279296875
1759871480385,966951167,6401,13,-0.23095703125,-1.01593017578125,0.00238037109375
1759871480385,966951167,6401,14,-0.252197265625,-1.02008056640625,0.01776123046875
1759871480385,966951167,6401,15,-0.238037109375,-1.01934814453125,-0.00347900390625
1759871480385,966951167,6401,16,-0.237548828125,-1.01470947265625,-0.00958251953125
1759871480385,966951167,6401,17,-0.244140625,-1.02325439453125,-0.00982666015625
1759871480385,966951167,6401,18,-0.21484375,-1.01324462890625,-0.01446533203125
1759871480385,966951167,6401,19,-0.22509765625,-1.01446533203125,-0.02178955078125
