receivedPhoneTimestamp,respeckTimestamp,packetSeqNum,sampleSeqNum,accelX,accelY,accelZ
1760021120789,78894201,1194,17,-0.96435546875,-0.27081298828125,0.12030029296875
1760021120789,78894201,1194,18,-0.954833984375,-0.26885986328125,0.13421630859375
1760021120789,78894201,1194,19,-0.96337890625,-0.26885986328125,0.11566162109375
1760021120789,78894201,1194,20,-0.959716796875,-0.26861572265625,0.11126708984375
1760021120789,78894201,1194,21,-0.960205078125,-0.26739501953125,0.10760498046875
1760021120789,78894201,1194,22,-0.956787109375,-0.28228759765625,0.09954833984375
1760021120789,78894201,1194,23,-0.986572265625,-0.29888916015625,0.09417724609375
1760021120789,78894201,1194,24,-0.968994140625,-0.28692626953125,0.09637451171875
1760021120789,78894201,1194,25,-0.95947265625,-0.30133056640625,0.07806396484375
1760021120789,78894201,1194,26,-0.96728515625,-0.31085205078125,0.06536865234375
1760021120789,78894201,1194,27,-0.96240234375,-0.31573486328125,0.04412841796875
1760021120789,78894201,1194,28,-0.973388671875,-0.32061767578125,0.03216552734375
1760021120789,78894201,1194,29,-0.9697265625,-0.32379150390625,0.02850341796875
1760021120789,78894201,1194,30,-0.965576171875,-0.32086181640625,0.02679443359375
1760021120789,78894201,1194,31,-0.964599609375,-0.32598876953125,0.03070068359375
1760021123327,78896774,1195,0,-0.96630859375,-0.32720947265625,0.03778076171875
1760021123327,78896774,1195,1,-0.965087890625,-0.32916259765625,0.03997802734375
1760021123327,78896774,1195,2,-0.963134765625,-0.32745361328125,0.04241943359375
1760021123327,78896774,1195,3,-0.964111328125,-0.33209228515625,0.04388427734375
1760021123327,78896774,1195,4,-0.96728515625,-0.32452392578125,0.04217529296875
1760021123327,78896774,1195,5,-0.970458984375,-0.32696533203125,0.04583740234375
1760021123327,78896774,1195,6,-0.9677734375,-0.31890869140625,0.04656982421875
1760021123327,78896774,1195,7,-0.958740234375,-0.31304931640625,0.06097412109375
1760021123327,78896774,1195,8,-0.965087890625,-0.31353759765625,0.05950927734375
1760021123327,78896774,1195,9,-0.954833984375,-0.30816650390625,0.07122802734375
1760021123327,78896774,1195,10,-0.966796875,-0.29888916015625,0.07147216796875
1760021123327,78896774,1195,11,-0.96826171875,-0.30279541015625,0.07000732421875
1760021123327,78896774,1195,12,-0.96630859375,-0.30010986328125,0.07318115234375
1760021123327,78896774,1195,13,-0.9619140625,-0.29986572265625,0.07611083984375
1760021123327,78896774,1195,14,-0.968994140625,-0.29718017578125,0.07025146484375
1760021123327,78896774,1195,15,-0.967529296875,-0.29595947265625,0.07342529296875
1760021123327,78896774,1195,16,-0.964599609375,-0.29693603515625,0.07269287109375
1760021123327,78896774,1195,17,-0.959228515625,-0.29766845703125,0.07391357421875
1760021123327,78896774,1195,18,-0.969482421875,-0.29986572265625,0.06805419921875
1760021123327,78896774,1195,19,-0.97314453125,-0.30841064453125,0.06683349609375
1760021123327,78896774,1195,20,-0.95654296875,-0.30377197265625,0.07342529296875
1760021123327,78896774,1195,21,-0.9697265625,-0.31109619140625,0.06854248046875
1760021123327,78896774,1195,22,-0.963623046875,-0.31304931640625,0.05975341796875
1760021123327,78896774,1195,23,-0.9638671875,-0.31280517578125,0.05828857421875
1760021123327,78896774,1195,24,-0.96875,-0.31988525390625,0.05487060546875
1760021123327,78896774,1195,25,-0.96533203125,-0.32208251953125,0.05072021484375
1760021123327,78896774,1195,26,-0.963134765625,-0.32086181640625,0.05242919921875
1760021123327,78896774,1195,27,-0.967529296875,-0.32427978515625,0.05096435546875
1760021123327,78896774,1195,28,-0.964599609375,-0.32110595703125,0.04998779296875
1760021123327,78896774,1195,29,-0.962158203125,-0.32452392578125,0.05316162109375
1760021123327,78896774,1195,30,-0.96533203125,-0.32281494140625,0.05047607421875
1760021123327,78896774,1195,31,-0.963134765625,-0.32452392578125,0.05413818359375
1760021125885,78899347,1196,0,-0.96484375,-0.32012939453125,0.05096435546875
1760021125885,78899347,1196,1,-0.970703125,-0.32086181640625,0.05072021484375
1760021125885,78899347,1196,2,-0.962158203125,-0.31939697265625,0.06219482421875
1760021125885,78899347,1196,3,-0.9619140625,-0.31597900390625,0.07391357421875
1760021125885,78899347,1196,4,-0.96044921875,-0.31427001953125,0.07147216796875
1760021125885,78899347,1196,5,-0.9677734375,-0.32232666015625,0.08294677734375
1760021125885,78899347,1196,6,-0.9453125,-0.31671142578125,0.11492919921875
1760021125885,78899347,1196,7,-0.950439453125,-0.31890869140625,0.14935302734375
1760021125885,78899347,1196,8,-0.932861328125,-0.30841064453125,0.15838623046875
1760021125885,78899347,1196,9,-0.9453125,-0.31500244140625,0.15325927734375
1760021125885,78899347,1196,10,-0.947509765625,-0.30792236328125,0.14300537109375
1760021125885,78899347,1196,11,-0.941650390625,-0.30328369140625,0.13592529296875
1760021125885,78899347,1196,12,-0.962158203125,-0.31036376953125,0.12982177734375
1760021125885,78899347,1196,13,-0.94873046875,-0.31671142578125,0.13812255859375
1760021125885,78899347,1196,14,-0.943603515625,-0.31719970703125,0.14739990234375
1760021125885,78899347,1196,15,-0.948974609375,-0.32525634765625,0.16864013671875
1760021125885,78899347,1196,16,-0.92724609375,-0.32647705078125,0.16473388671875
1760021125885,78899347,1196,17,-0.9365234375,-0.33770751953125,0.16473388671875
1760021125885,78899347,1196,18,-0.94091796875,-0.33233642578125,0.16546630859375
1760021125885,78899347,1196,19,-0.937255859375,-0.33306884765625,0.16864013671875
1760021125885,78899347,1196,20,-0.93798828125,-0.33233642578125,0.16546630859375
1760021125885,78899347,1196,21,-0.936767578125,-0.34259033203125,0.16815185546875
1760021125885,78899347,1196,22,-0.935791015625,-0.34210205078125,0.17523193359375
1760021125885,78899347,1196,23,-0.931640625,-0.34161376953125,0.17767333984375
1760021125885,78899347,1196,24,-0.933837890625,-0.34503173828125,0.17669677734375
1760021125885,78899347,1196,25,-0.935791015625,-0.34429931640625,0.17694091796875
1760021125885,78899347,1196,26,-0.935546875,-0.34478759765625,0.17864990234375
1760021125885,78899347,1196,27,-0.9326171875,-0.34307861328125,0.17620849609375
1760021125885,78899347,1196,28,-0.935791015625,-0.33575439453125,0.17498779296875
1760021125885,78899347,1196,29,-0.934814453125,-0.33624267578125,0.17108154296875
1760021125885,78899347,1196,30,-0.9404296875,-0.33428955078125,0.16888427734375
1760021125885,78899347,1196,31,-0.93798828125,-0.33209228515625,0.17034912109375
1760021128433,78901920,1197,0,-0.936279296875,-0.31890869140625,0.17791748046875
1760021128433,78901920,1197,1,-0.933837890625,-0.32379150390625,0.17987060546875
1760021128433,78901920,1197,2,-0.939208984375,-0.32769775390625,0.17987060546875
1760021128433,78901920,1197,3,-0.938720703125,-0.32208251953125,0.16937255859375
1760021128433,78901920,1197,4,-0.9404296875,-0.31768798828125,0.16644287109375
1760021128433,78901920,1197,5,-0.941650390625,-0.31817626953125,0.16497802734375
1760021128433,78901920,1197,6,-0.940185546875,-0.31622314453125,0.16717529296875
1760021128433,78901920,1197,7,-0.941162109375,-0.31280517578125,0.16986083984375
1760021128433,78901920,1197,8,-0.940673828125,-0.31475830078125,0.16864013671875
1760021128433,78901920,1197,9,-0.93994140625,-0.31353759765625,0.16619873046875
1760021128433,78901920,1197,10,-0.943115234375,-0.31793212890625,0.15838623046875
1760021128433,78901920,1197,11,-0.940185546875,-0.32330322265625,0.16766357421875
1760021128433,78901920,1197,12,-0.938232421875,-0.32623291015625,0.18182373046875
1760021128433,78901920,1197,13,-0.93017578125,-0.32598876953125,0.18621826171875
1760021128433,78901920,1197,14,-0.93505859375,-0.32672119140625,0.18621826171875
1760021128433,78901920,1197,15,-0.931884765625,-0.33233642578125,0.18206787109375
1760021128433,78901920,1197,16,-0.938232421875,-0.33306884765625,0.18304443359375
1760021128433,78901920,1197,17,-0.934326171875,-0.33575439453125,0.18109130859375
1760021128433,78901920,1197,18,-0.932373046875,-0.33673095703125,0.18206787109375
1760021128433,78901920,1197,19,-0.929931640625,-0.33697509765625,0.18597412109375
1760021128433,78901920,1197,20,-0.93359375,-0.33795166015625,0.18182373046875
1760021128433,78901920,1197,21,-0.93505859375,-0.34185791015625,0.18402099609375
1760021128433,78901920,1197,22,-0.931396484375,-0.33795166015625,0.18377685546875
1760021128433,78901920,1197,23,-0.93408203125,-0.34429931640625,0.18328857421875
1760021128433,78901920,1197,24,-0.934814453125,-0.34552001953125,0.18572998046875
1760021128433,78901920,1197,25,-0.931640625,-0.34063720703125,0.18182373046875
1760021128433,78901920,1197,26,-0.930419921875,-0.33819580078125,0.18109130859375
1760021128433,78901920,1197,27,-0.934814453125,-0.33770751953125,0.18133544921875
1760021128433,78901920,1197,28,-0.937255859375,-0.33477783203125,0.18206787109375
1760021128433,78901920,1197,29,-0.935546875,-0.32794189453125,0.18109130859375
1760021128433,78901920,1197,30,-0.937255859375,-0.32623291015625,0.18548583984375
1760021128433,78901920,1197,31,-0.9345703125,-0.32550048828125,0.18670654296875
1760021130978,78904493,1198,0,-0.938232421875,-0.32354736328125,0.17767333984375
1760021130978,78904493,1198,1,-0.937744140625,-0.32427978515625,0.17669677734375
1760021130978,78904493,1198,2,-0.939697265625,-0.32110595703125,0.17596435546875
1760021130978,78904493,1198,3,-0.93603515625,-0.31646728515625,0.18011474609375
1760021130978,78904493,1198,4,-0.938232421875,-0.31695556640625,0.17645263671875
1760021130978,78904493,1198,5,-0.93798828125,-0.31915283203125,0.17059326171875
1760021130978,78904493,1198,6,-0.93994140625,-0.31939697265625,0.17083740234375
1760021130978,78904493,1198,7,-0.941162109375,-0.32061767578125,0.17059326171875
1760021130978,78904493,1198,8,-0.93798828125,-0.32330322265625,0.17864990234375
1760021130978,78904493,1198,9,-0.933837890625,-0.32501220703125,0.18670654296875
1760021130978,78904493,1198,10,-0.936279296875,-0.32427978515625,0.18768310546875
1760021130978,78904493,1198,11,-0.935546875,-0.32696533203125,0.18670654296875
1760021130978,78904493,1198,12,-0.933349609375,-0.33184814453125,0.18450927734375
1760021130978,78904493,1198,13,-0.93505859375,-0.33135986328125,0.18621826171875
1760021130978,78904493,1198,14,-0.93505859375,-0.33648681640625,0.19012451171875
1760021130978,78904493,1198,15,-0.932373046875,-0.33502197265625,0.18646240234375
1760021130978,78904493,1198,16,-0.9326171875,-0.33428955078125,0.18304443359375
1760021130978,78904493,1198,17,-0.932861328125,-0.34063720703125,0.18304443359375
1760021130978,78904493,1198,18,-0.933349609375,-0.34259033203125,0.18768310546875
1760021130978,78904493,1198,19,-0.9345703125,-0.34356689453125,0.18621826171875
1760021130978,78904493,1198,20,-0.931884765625,-0.33819580078125,0.18695068359375
1760021130978,78904493,1198,21,-0.93212890625,-0.33721923828125,0.18817138671875
1760021130978,78904493,1198,22,-0.935546875,-0.33355712890625,0.18670654296875
1760021130978,78904493,1198,23,-0.935546875,-0.33038330078125,0.18255615234375
1760021130978,78904493,1198,24,-0.935546875,-0.32598876953125,0.18475341796875
1760021130978,78904493,1198,25,-0.934326171875,-0.32354736328125,0.18499755859375
1760021130978,78904493,1198,26,-0.937744140625,-0.32427978515625,0.18646240234375
1760021130978,78904493,1198,27,-0.936767578125,-0.32330322265625,0.18670654296875
1760021130978,78904493,1198,28,-0.9384765625,-0.32159423828125,0.18280029296875
1760021130978,78904493,1198,29,-0.93798828125,-0.31817626953125,0.18280029296875
1760021130978,78904493,1198,30,-0.93505859375,-0.31939697265625,0.18060302734375
1760021130978,78904493,1198,31,-0.936767578125,-0.31939697265625,0.17620849609375
1760021133691,78907067,1199,0,-0.9384765625,-0.31988525390625,0.18084716796875
1760021133691,78907067,1199,1,-0.938720703125,-0.31988525390625,0.17547607421875
1760021133691,78907067,1199,2,-0.93798828125,-0.32647705078125,0.18157958984375
1760021133691,78907067,1199,3,-0.9326171875,-0.32647705078125,0.19427490234375
1760021133691,78907067,1199,4,-0.931884765625,-0.32427978515625,0.18865966796875
1760021133691,78907067,1199,5,-0.937255859375,-0.32550048828125,0.18353271484375
1760021133691,78907067,1199,6,-0.935791015625,-0.33428955078125,0.18450927734375
1760021133691,78907067,1199,7,-0.935791015625,-0.33233642578125,0.18328857421875
1760021133691,78907067,1199,8,-0.934326171875,-0.33624267578125,0.18743896484375
1760021133691,78907067,1199,9,-0.933837890625,-0.33477783203125,0.18353271484375
1760021133691,78907067,1199,10,-0.934326171875,-0.34014892578125,0.18353271484375
1760021133691,78907067,1199,11,-0.934814453125,-0.33551025390625,0.18157958984375
1760021133691,78907067,1199,12,-0.9345703125,-0.33331298828125,0.18548583984375
1760021133691,78907067,1199,13,-0.934326171875,-0.33526611328125,0.18304443359375
1760021133691,78907067,1199,14,-0.932861328125,-0.33306884765625,0.18402099609375
1760021133691,78907067,1199,15,-0.936279296875,-0.33282470703125,0.17767333984375
1760021133691,78907067,1199,16,-0.938232421875,-0.32550048828125,0.18035888671875
1760021133691,78907067,1199,17,-0.935302734375,-0.32550048828125,0.18157958984375
1760021133691,78907067,1199,18,-0.937255859375,-0.31744384765625,0.18206787109375
1760021133691,78907067,1199,19,-0.93701171875,-0.31988525390625,0.18255615234375
1760021133691,78907067,1199,20,-0.939208984375,-0.31817626953125,0.17889404296875
1760021133691,78907067,1199,21,-0.9384765625,-0.31134033203125,0.17523193359375
1760021133691,78907067,1199,22,-0.939697265625,-0.31280517578125,0.17816162109375
1760021133691,78907067,1199,23,-0.9375,-0.31280517578125,0.17547607421875
1760021133691,78907067,1199,24,-0.939453125,-0.31671142578125,0.17645263671875
1760021133691,78907067,1199,25,-0.939208984375,-0.31475830078125,0.17230224609375
1760021133691,78907067,1199,26,-0.940673828125,-0.31524658203125,0.17742919921875
1760021133691,78907067,1199,27,-0.9365234375,-0.31671142578125,0.18328857421875
1760021133691,78907067,1199,28,-0.935791015625,-0.32037353515625,0.18328857421875
1760021133691,78907067,1199,29,-0.9384765625,-0.32208251953125,0.18304443359375
1760021133691,78907067,1199,30,-0.93505859375,-0.32550048828125,0.18328857421875
1760021133691,78907067,1199,31,-0.93505859375,-0.32843017578125,0.18255615234375
1760021136237,78909640,1200,0,-0.93603515625,-0.32574462890625,0.18182373046875
1760021136237,78909640,1200,1,-0.937255859375,-0.33013916015625,0.17889404296875
1760021136237,78909640,1200,2,-0.936279296875,-0.33233642578125,0.18157958984375
1760021136237,78909640,1200,3,-0.9345703125,-0.33551025390625,0.18182373046875
1760021136237,78909640,1200,4,-0.935546875,-0.33404541015625,0.18084716796875
1760021136237,78909640,1200,5,-0.935546875,-0.33331298828125,0.18255615234375
1760021136237,78909640,1200,6,-0.936767578125,-0.33331298828125,0.18109130859375
1760021136237,78909640,1200,7,-0.9345703125,-0.33502197265625,0.18109130859375
1760021136237,78909640,1200,8,-0.934814453125,-0.33209228515625,0.17987060546875
1760021136237,78909640,1200,9,-0.933349609375,-0.33453369140625,0.18011474609375
1760021136237,78909640,1200,10,-0.936767578125,-0.32843017578125,0.17816162109375
1760021136237,78909640,1200,11,-0.93701171875,-0.33013916015625,0.18182373046875
1760021136237,78909640,1200,12,-0.935302734375,-0.32574462890625,0.18255615234375
1760021136237,78909640,1200,13,-0.937255859375,-0.32208251953125,0.17889404296875
1760021136237,78909640,1200,14,-0.9384765625,-0.32427978515625,0.18084716796875
1760021136237,78909640,1200,15,-0.93798828125,-0.31793212890625,0.18035888671875
1760021136237,78909640,1200,16,-0.938720703125,-0.31842041015625,0.18182373046875
1760021136237,78909640,1200,17,-0.93603515625,-0.31842041015625,0.17718505859375
1760021136237,78909640,1200,18,-0.93798828125,-0.31573486328125,0.17791748046875
1760021136237,78909640,1200,19,-0.941162109375,-0.31524658203125,0.18084716796875
1760021136237,78909640,1200,20,-0.937744140625,-0.31817626953125,0.17645263671875
1760021136237,78909640,1200,21,-0.93701171875,-0.31866455078125,0.17913818359375
1760021136237,78909640,1200,22,-0.94091796875,-0.31988525390625,0.18011474609375
1760021136237,78909640,1200,23,-0.935791015625,-0.31842041015625,0.18157958984375
1760021136237,78909640,1200,24,-0.935302734375,-0.32550048828125,0.18914794921875
1760021136237,78909640,1200,25,-0.93505859375,-0.32525634765625,0.18743896484375
1760021136237,78909640,1200,26,-0.935791015625,-0.32550048828125,0.18548583984375
1760021136237,78909640,1200,27,-0.93603515625,-0.32818603515625,0.17840576171875
1760021136237,78909640,1200,28,-0.931396484375,-0.33306884765625,0.18426513671875
1760021136237,78909640,1200,29,-0.93505859375,-0.33111572265625,0.18597412109375
1760021136237,78909640,1200,30,-0.9345703125,-0.33746337890625,0.18621826171875
1760021136237,78909640,1200,31,-0.932861328125,-0.33746337890625,0.18475341796875
1760021138789,78912213,1201,0,-0.933349609375,-0.33868408203125,0.18548583984375
1760021138789,78912213,1201,1,-0.9365234375,-0.33746337890625,0.17987060546875
1760021138789,78912213,1201,2,-0.935791015625,-0.33355712890625,0.18548583984375
1760021138789,78912213,1201,3,-0.93310546875,-0.33502197265625,0.18475341796875
1760021138789,78912213,1201,4,-0.9326171875,-0.33184814453125,0.18304443359375
1760021138789,78912213,1201,5,-0.93701171875,-0.33135986328125,0.18353271484375
1760021138789,78912213,1201,6,-0.93603515625,-0.32403564453125,0.18548583984375
1760021138789,78912213,1201,7,-0.932861328125,-0.32745361328125,0.18377685546875
1760021138789,78912213,1201,8,-0.937744140625,-0.32281494140625,0.18353271484375
1760021138789,78912213,1201,9,-0.938232421875,-0.32110595703125,0.18182373046875
1760021138789,78912213,1201,10,-0.936279296875,-0.31866455078125,0.17938232421875
1760021138789,78912213,1201,11,-0.937744140625,-0.31890869140625,0.18231201171875
1760021138789,78912213,1201,12,-0.9384765625,-0.31671142578125,0.17791748046875
1760021138789,78912213,1201,13,-0.935791015625,-0.31671142578125,0.17864990234375
1760021138789,78912213,1201,14,-0.939697265625,-0.31915283203125,0.17767333984375
1760021138789,78912213,1201,15,-0.937744140625,-0.31695556640625,0.17889404296875
1760021138789,78912213,1201,16,-0.937744140625,-0.31890869140625,0.18670654296875
1760021138789,78912213,1201,17,-0.9345703125,-0.32574462890625,0.18304443359375
1760021138789,78912213,1201,18,-0.9384765625,-0.32257080078125,0.18328857421875
1760021138789,78912213,1201,19,-0.93603515625,-0.32672119140625,0.18743896484375
1760021138789,78912213,1201,20,-0.936279296875,-0.32794189453125,0.18011474609375
1760021138789,78912213,1201,21,-0.9326171875,-0.33306884765625,0.18377685546875
1760021138789,78912213,1201,22,-0.934814453125,-0.33306884765625,0.17864990234375
1760021138789,78912213,1201,23,-0.935302734375,-0.33380126953125,0.18060302734375
1760021138789,78912213,1201,24,-0.93505859375,-0.33551025390625,0.17987060546875
1760021138789,78912213,1201,25,-0.93603515625,-0.33624267578125,0.18255615234375
1760021138789,78912213,1201,26,-0.936279296875,-0.33770751953125,0.18280029296875
1760021138789,78912213,1201,27,-0.936767578125,-0.33380126953125,0.18060302734375
1760021138789,78912213,1201,28,-0.934814453125,-0.33355712890625,0.18206787109375
1760021138789,78912213,1201,29,-0.936767578125,-0.33428955078125,0.18157958984375
1760021138789,78912213,1201,30,-0.936767578125,-0.33013916015625,0.17791748046875
1760021138789,78912213,1201,31,-0.937255859375,-0.32476806640625,0.18353271484375
1760021141337,78914786,1202,0,-0.93798828125,-0.32159423828125,0.18182373046875
1760021141337,78914786,1202,1,-0.940185546875,-0.31890869140625,0.17962646484375
1760021141337,78914786,1202,2,-0.937255859375,-0.31597900390625,0.18597412109375
1760021141337,78914786,1202,3,-0.939208984375,-0.31256103515625,0.18548583984375
1760021141337,78914786,1202,4,-0.9365234375,-0.30987548828125,0.18280029296875
1760021141337,78914786,1202,5,-0.9404296875,-0.30694580078125,0.18206787109375
1760021141337,78914786,1202,6,-0.937255859375,-0.31036376953125,0.17962646484375
1760021141337,78914786,1202,7,-0.938232421875,-0.30792236328125,0.18035888671875
1760021141337,78914786,1202,8,-0.939697265625,-0.31231689453125,0.17913818359375
1760021141337,78914786,1202,9,-0.938720703125,-0.31402587890625,0.17449951171875
1760021141337,78914786,1202,10,-0.936767578125,-0.31427001953125,0.18572998046875
1760021141337,78914786,1202,11,-0.936767578125,-0.31939697265625,0.18988037109375
1760021141337,78914786,1202,12,-0.9345703125,-0.32135009765625,0.19036865234375
1760021141337,78914786,1202,13,-0.937744140625,-0.32769775390625,0.18572998046875
1760021141337,78914786,1202,14,-0.93603515625,-0.32623291015625,0.18548583984375
1760021141337,78914786,1202,15,-0.935791015625,-0.32769775390625,0.18328857421875
1760021141337,78914786,1202,16,-0.93212890625,-0.33721923828125,0.18572998046875
1760021141337,78914786,1202,17,-0.935546875,-0.33038330078125,0.18499755859375
1760021141337,78914786,1202,18,-0.9345703125,-0.33306884765625,0.18548583984375
1760021141337,78914786,1202,19,-0.93505859375,-0.33135986328125,0.18133544921875
1760021141337,78914786,1202,20,-0.93603515625,-0.33526611328125,0.18328857421875
1760021141337,78914786,1202,21,-0.937255859375,-0.33331298828125,0.18182373046875
1760021141337,78914786,1202,22,-0.934814453125,-0.32574462890625,0.18011474609375
1760021141337,78914786,1202,23,-0.93994140625,-0.32696533203125,0.17816162109375
1760021141337,78914786,1202,24,-0.937255859375,-0.32012939453125,0.18475341796875
1760021141337,78914786,1202,25,-0.935546875,-0.31890869140625,0.18060302734375
1760021141337,78914786,1202,26,-0.937744140625,-0.31768798828125,0.18328857421875
1760021141337,78914786,1202,27,-0.93701171875,-0.31573486328125,0.18060302734375
1760021141337,78914786,1202,28,-0.939208984375,-0.31573486328125,0.17840576171875
1760021141337,78914786,1202,29,-0.939453125,-0.31573486328125,0.18060302734375
1760021141337,78914786,1202,30,-0.937744140625,-0.31549072265625,0.17938232421875
1760021141337,78914786,1202,31,-0.939697265625,-0.30963134765625,0.18011474609375
1760021143886,78917359,1203,0,-0.93798828125,-0.30718994140625,0.17718505859375
1760021143886,78917359,1203,1,-0.9384765625,-0.31451416015625,0.17620849609375
1760021143886,78917359,1203,2,-0.93701171875,-0.31549072265625,0.17694091796875
1760021143886,78917359,1203,3,-0.939697265625,-0.31939697265625,0.18572998046875
1760021143886,78917359,1203,4,-0.93408203125,-0.31915283203125,0.19061279296875
1760021143886,78917359,1203,5,-0.93310546875,-0.32574462890625,0.19183349609375
1760021143886,78917359,1203,6,-0.9404296875,-0.32696533203125,0.18011474609375
1760021143886,78917359,1203,7,-0.93505859375,-0.32843017578125,0.18377685546875
1760021143886,78917359,1203,8,-0.934814453125,-0.32794189453125,0.18353271484375
1760021143886,78917359,1203,9,-0.93505859375,-0.33013916015625,0.18084716796875
1760021143886,78917359,1203,10,-0.934814453125,-0.33160400390625,0.17962646484375
1760021143886,78917359,1203,11,-0.935546875,-0.33306884765625,0.17816162109375
1760021143886,78917359,1203,12,-0.9365234375,-0.33477783203125,0.17889404296875
1760021143886,78917359,1203,13,-0.934814453125,-0.33502197265625,0.18035888671875
1760021143886,78917359,1203,14,-0.935302734375,-0.33502197265625,0.18109130859375
1760021143886,78917359,1203,15,-0.93603515625,-0.32891845703125,0.17840576171875
1760021143886,78917359,1203,16,-0.937255859375,-0.33038330078125,0.18035888671875
1760021143886,78917359,1203,17,-0.9365234375,-0.32135009765625,0.17987060546875
1760021143886,78917359,1203,18,-0.93505859375,-0.32305908203125,0.18280029296875
1760021143886,78917359,1203,19,-0.9375,-0.31866455078125,0.18011474609375
1760021143886,78917359,1203,20,-0.937744140625,-0.31671142578125,0.17962646484375
1760021143886,78917359,1203,21,-0.937744140625,-0.31744384765625,0.17938232421875
1760021143886,78917359,1203,22,-0.939208984375,-0.31744384765625,0.17962646484375
1760021143886,78917359,1203,23,-0.9384765625,-0.31597900390625,0.18133544921875
1760021143886,78917359,1203,24,-0.93896484375,-0.31500244140625,0.18084716796875
1760021143886,78917359,1203,25,-0.939697265625,-0.31304931640625,0.17938232421875
1760021143886,78917359,1203,26,-0.936279296875,-0.31646728515625,0.17547607421875
1760021143886,78917359,1203,27,-0.940185546875,-0.31622314453125,0.18133544921875
1760021143886,78917359,1203,28,-0.938720703125,-0.31964111328125,0.18621826171875
1760021143886,78917359,1203,29,-0.936767578125,-0.32330322265625,0.18768310546875
1760021143886,78917359,1203,30,-0.931884765625,-0.32794189453125,0.18939208984375
1760021143886,78917359,1203,31,-0.939208984375,-0.32647705078125,0.18377685546875
1760021146437,78919932,1204,0,-0.936279296875,-0.32550048828125,0.17889404296875
1760021146437,78919932,1204,1,-0.93798828125,-0.32989501953125,0.17938232421875
1760021146437,78919932,1204,2,-0.935302734375,-0.33038330078125,0.17987060546875
1760021146437,78919932,1204,3,-0.934326171875,-0.33502197265625,0.17816162109375
1760021146437,78919932,1204,4,-0.939697265625,-0.33502197265625,0.17694091796875
1760021146437,78919932,1204,5,-0.9345703125,-0.33233642578125,0.17840576171875
1760021146437,78919932,1204,6,-0.93505859375,-0.33209228515625,0.17816162109375
1760021146437,78919932,1204,7,-0.936767578125,-0.33282470703125,0.17718505859375
1760021146437,78919932,1204,8,-0.9365234375,-0.32745361328125,0.17547607421875
1760021146437,78919932,1204,9,-0.935302734375,-0.32647705078125,0.17572021484375
1760021146437,78919932,1204,10,-0.93896484375,-0.32232666015625,0.18206787109375
1760021146437,78919932,1204,11,-0.935791015625,-0.32403564453125,0.18548583984375
1760021146437,78919932,1204,12,-0.93701171875,-0.32135009765625,0.18060302734375
1760021146437,78919932,1204,13,-0.93798828125,-0.31744384765625,0.18109130859375
1760021146437,78919932,1204,14,-0.939697265625,-0.31695556640625,0.18231201171875
1760021146437,78919932,1204,15,-0.9365234375,-0.31695556640625,0.18353271484375
1760021146437,78919932,1204,16,-0.935302734375,-0.31646728515625,0.17376708984375
1760021146437,78919932,1204,17,-0.939697265625,-0.31915283203125,0.17840576171875
1760021146437,78919932,1204,18,-0.93896484375,-0.32281494140625,0.17889404296875
1760021146437,78919932,1204,19,-0.93603515625,-0.32159423828125,0.18743896484375
1760021146437,78919932,1204,20,-0.93701171875,-0.32110595703125,0.18035888671875
1760021146437,78919932,1204,21,-0.93701171875,-0.32501220703125,0.17962646484375
1760021146437,78919932,1204,22,-0.9365234375,-0.33013916015625,0.18426513671875
1760021146437,78919932,1204,23,-0.934326171875,-0.32891845703125,0.18035888671875
1760021146437,78919932,1204,24,-0.93603515625,-0.32940673828125,0.17718505859375
1760021146437,78919932,1204,25,-0.937744140625,-0.33331298828125,0.18084716796875
1760021146437,78919932,1204,26,-0.9384765625,-0.33428955078125,0.17742919921875
1760021146437,78919932,1204,27,-0.935791015625,-0.32891845703125,0.18109130859375
1760021146437,78919932,1204,28,-0.937255859375,-0.33111572265625,0.17669677734375
1760021146437,78919932,1204,29,-0.9384765625,-0.32989501953125,0.17449951171875
1760021146437,78919932,1204,30,-0.935302734375,-0.32623291015625,0.18084716796875
1760021146437,78919932,1204,31,-0.937255859375,-0.31842041015625,0.18060302734375
1760021149136,78922505,1205,0,-0.937255859375,-0.31890869140625,0.17938232421875
1760021149136,78922505,1205,1,-0.93896484375,-0.31744384765625,0.18524169921875
1760021149136,78922505,1205,2,-0.93798828125,-0.31695556640625,0.18231201171875
1760021149136,78922505,1205,3,-0.9375,-0.31646728515625,0.17694091796875
1760021149136,78922505,1205,4,-0.9375,-0.31793212890625,0.18060302734375
1760021149136,78922505,1205,5,-0.9375,-0.31451416015625,0.17938232421875
1760021149136,78922505,1205,6,-0.938720703125,-0.31646728515625,0.17962646484375
1760021149136,78922505,1205,7,-0.941650390625,-0.31695556640625,0.17718505859375
1760021149136,78922505,1205,8,-0.93603515625,-0.31768798828125,0.18524169921875
1760021149136,78922505,1205,9,-0.937744140625,-0.32012939453125,0.18572998046875
1760021149136,78922505,1205,10,-0.93603515625,-0.32110595703125,0.18402099609375
1760021149136,78922505,1205,11,-0.936279296875,-0.32623291015625,0.18597412109375
1760021149136,78922505,1205,12,-0.934814453125,-0.32598876953125,0.17987060546875
1760021149136,78922505,1205,13,-0.936279296875,-0.32745361328125,0.18035888671875
1760021149136,78922505,1205,14,-0.9384765625,-0.32940673828125,0.17767333984375
1760021149136,78922505,1205,15,-0.933349609375,-0.33111572265625,0.17767333984375
1760021149136,78922505,1205,16,-0.939208984375,-0.33209228515625,0.17962646484375
1760021149136,78922505,1205,17,-0.935302734375,-0.33087158203125,0.18182373046875
1760021149136,78922505,1205,18,-0.93603515625,-0.32843017578125,0.17864990234375
1760021149136,78922505,1205,19,-0.9375,-0.32867431640625,0.17987060546875
1760021149136,78922505,1205,20,-0.9375,-0.32379150390625,0.17572021484375
1760021149136,78922505,1205,21,-0.9365234375,-0.32427978515625,0.18231201171875
1760021149136,78922505,1205,22,-0.936767578125,-0.31988525390625,0.18060302734375
1760021149136,78922505,1205,23,-0.937744140625,-0.31793212890625,0.18060302734375
1760021149136,78922505,1205,24,-0.938232421875,-0.31451416015625,0.17816162109375
1760021149136,78922505,1205,25,-0.93798828125,-0.31646728515625,0.17938232421875
1760021149136,78922505,1205,26,-0.93701171875,-0.31402587890625,0.18353271484375
1760021149136,78922505,1205,27,-0.93994140625,-0.31646728515625,0.17645263671875
1760021149136,78922505,1205,28,-0.940185546875,-0.31964111328125,0.17791748046875
1760021149136,78922505,1205,29,-0.935302734375,-0.31744384765625,0.18719482421875
1760021149136,78922505,1205,30,-0.935302734375,-0.31793212890625,0.18865966796875
1760021149136,78922505,1205,31,-0.935546875,-0.32135009765625,0.18475341796875
1760021151687,78925078,1206,0,-0.93359375,-0.32354736328125,0.19110107421875
1760021151687,78925078,1206,1,-0.93701171875,-0.32574462890625,0.18353271484375
1760021151687,78925078,1206,2,-0.936279296875,-0.32598876953125,0.18255615234375
1760021151687,78925078,1206,3,-0.9365234375,-0.32843017578125,0.18231201171875
1760021151687,78925078,1206,4,-0.934814453125,-0.33380126953125,0.18280029296875
1760021151687,78925078,1206,5,-0.93603515625,-0.33013916015625,0.17938232421875
1760021151687,78925078,1206,6,-0.935302734375,-0.33087158203125,0.17694091796875
1760021151687,78925078,1206,7,-0.9365234375,-0.33258056640625,0.17938232421875
1760021151687,78925078,1206,8,-0.935302734375,-0.33233642578125,0.17742919921875
1760021151687,78925078,1206,9,-0.935791015625,-0.32965087890625,0.17547607421875
1760021151687,78925078,1206,10,-0.938232421875,-0.32696533203125,0.17938232421875
1760021151687,78925078,1206,11,-0.937744140625,-0.32354736328125,0.18280029296875
1760021151687,78925078,1206,12,-0.935546875,-0.31817626953125,0.18231201171875
1760021151687,78925078,1206,13,-0.94140625,-0.32012939453125,0.18182373046875
1760021151687,78925078,1206,14,-0.937255859375,-0.31671142578125,0.18060302734375
1760021151687,78925078,1206,15,-0.93701171875,-0.31671142578125,0.17816162109375
1760021151687,78925078,1206,16,-0.940185546875,-0.31378173828125,0.18597412109375
1760021151687,78925078,1206,17,-0.936767578125,-0.31597900390625,0.18499755859375
1760021151687,78925078,1206,18,-0.9365234375,-0.31646728515625,0.18328857421875
1760021151687,78925078,1206,19,-0.93701171875,-0.31768798828125,0.18182373046875
1760021151687,78925078,1206,20,-0.939697265625,-0.31695556640625,0.17669677734375
1760021151687,78925078,1206,21,-0.9365234375,-0.31939697265625,0.18524169921875
1760021151687,78925078,1206,22,-0.93701171875,-0.32379150390625,0.18280029296875
1760021151687,78925078,1206,23,-0.936279296875,-0.32672119140625,0.18768310546875
1760021151687,78925078,1206,24,-0.934814453125,-0.32550048828125,0.18377685546875
1760021151687,78925078,1206,25,-0.935546875,-0.32672119140625,0.18109130859375
1760021151687,78925078,1206,26,-0.935791015625,-0.33013916015625,0.17938232421875
1760021151687,78925078,1206,27,-0.93798828125,-0.33282470703125,0.17962646484375
1760021151687,78925078,1206,28,-0.936279296875,-0.33087158203125,0.18133544921875
1760021151687,78925078,1206,29,-0.93603515625,-0.33209228515625,0.17572021484375
1760021151687,78925078,1206,30,-0.93798828125,-0.33111572265625,0.17938232421875
1760021151687,78925078,1206,31,-0.937255859375,-0.32647705078125,0.17816162109375
