receivedPhoneTimestamp,respeckTimestamp,packetSeqNum,sampleSeqNum,accelX,accelY,accelZ
1759870888908,966360071,6168,30,-0.28369140625,-1.01348876953125,0.05560302734375
1759870888908,966360071,6168,31,-0.271484375,-1.01275634765625,0.06878662109375
1759870891409,966362608,6169,0,-0.290771484375,-1.01007080078125,0.08782958984375
1759870891409,966362608,6169,1,-0.2978515625,-0.98931884765625,0.12274169921875
1759870891409,966362608,6169,2,-0.294921875,-0.98663330078125,0.16278076171875
1759870891409,966362608,6169,3,-0.2958984375,-0.97833251953125,0.16082763671875
1759870891409,966362608,6169,4,-0.289306640625,-0.99200439453125,0.15960693359375
1759870891409,966362608,6169,5,-0.304931640625,-0.97540283203125,0.16326904296875
1759870891409,966362608,6169,6,-0.3193359375,-0.98736572265625,0.17376708984375
1759870891409,966362608,6169,7,-0.317138671875,-0.98223876953125,0.14300537109375
1759870891409,966362608,6169,8,-0.292236328125,-0.99176025390625,0.11614990234375
1759870891409,966362608,6169,9,-0.300048828125,-0.99591064453125,0.10833740234375
1759870891409,966362608,6169,10,-0.295654296875,-1.00299072265625,0.08270263671875
1759870891409,966362608,6169,11,-0.294921875,-0.99664306640625,0.07611083984375
1759870891409,966362608,6169,12,-0.293701171875,-1.00714111328125,0.07391357421875
1759870891409,966362608,6169,13,-0.28125,-0.99810791015625,0.05413818359375
1759870891409,966362608,6169,14,-0.2890625,-0.99737548828125,0.05047607421875
1759870891409,966362608,6169,15,-0.29638671875,-1.00372314453125,0.04461669921875
1759870891409,966362608,6169,16,-0.287109375,-0.97393798828125,0.08416748046875
1759870891409,966362608,6169,17,-0.296142578125,-1.02667236328125,0.08026123046875
1759870891409,966362608,6169,18,-0.29833984375,-0.99566650390625,0.08905029296875
1759870891409,966362608,6169,19,-0.296630859375,-1.00201416015625,0.09735107421875
1759870891409,966362608,6169,20,-0.298095703125,-0.99591064453125,0.11419677734375
1759870891409,966362608,6169,21,-0.298828125,-0.99224853515625,0.12982177734375
1759870891409,966362608,6169,22,-0.294677734375,-0.98687744140625,0.14080810546875
1759870891409,966362608,6169,23,-0.296142578125,-0.98565673828125,0.15106201171875
1759870891409,966362608,6169,24,-0.299072265625,-0.99444580078125,0.14862060546875
1759870891409,966362608,6169,25,-0.300537109375,-0.99444580078125,0.14129638671875
1759870891409,966362608,6169,26,-0.33056640625,-0.99249267578125,0.12689208984375
1759870891409,966362608,6169,27,-0.294677734375,-0.96783447265625,0.13519287109375
1759870891409,966362608,6169,28,-0.294921875,-1.02105712890625,0.06390380859375
1759870891409,966362608,6169,29,-0.30908203125,-0.97784423828125,0.08270263671875
1759870891409,966362608,6169,30,-0.30712890625,-1.00347900390625,0.05145263671875
1759870891409,966362608,6169,31,-0.30615234375,-1.00030517578125,0.05853271484375
1759870893938,966365145,6170,0,-0.30126953125,-1.00689697265625,0.02557373046875
1759870893938,966365145,6170,1,-0.305419921875,-1.00006103515625,0.05609130859375
1759870893938,966365145,6170,2,-0.294189453125,-0.99371337890625,0.04852294921875
1759870893938,966365145,6170,3,-0.293212890625,-0.99884033203125,0.04168701171875
1759870893938,966365145,6170,4,-0.297119140625,-0.98687744140625,0.05584716796875
1759870893938,966365145,6170,5,-0.306396484375,-1.01226806640625,0.07415771484375
1759870893938,966365145,6170,6,-0.3173828125,-0.98175048828125,0.08489990234375
1759870893938,966365145,6170,7,-0.294677734375,-1.02789306640625,0.06365966796875
1759870893938,966365145,6170,8,-0.3017578125,-0.99029541015625,0.10125732421875
1759870893938,966365145,6170,9,-0.303955078125,-0.99981689453125,0.10272216796875
1759870893938,966365145,6170,10,-0.30126953125,-0.99371337890625,0.12371826171875
1759870893938,966365145,6170,11,-0.298828125,-0.97442626953125,0.13983154296875
1759870893938,966365145,6170,12,-0.301025390625,-0.99420166015625,0.14471435546875
1759870893938,966365145,6170,13,-0.315185546875,-0.99566650390625,0.11151123046875
1759870893938,966365145,6170,14,-0.320068359375,-0.99005126953125,0.11639404296875
1759870893938,966365145,6170,15,-0.316650390625,-0.99273681640625,0.11248779296875
1759870893938,966365145,6170,16,-0.2900390625,-0.98760986328125,0.11248779296875
1759870893938,966365145,6170,17,-0.295166015625,-0.99859619140625,0.11175537109375
1759870893938,966365145,6170,18,-0.3017578125,-1.00567626953125,0.06317138671875
1759870893938,966365145,6170,19,-0.279296875,-0.99542236328125,0.05853271484375
1759870893938,966365145,6170,20,-0.290283203125,-1.00128173828125,0.05877685546875
1759870893938,966365145,6170,21,-0.286865234375,-1.00177001953125,0.06268310546875
1759870893938,966365145,6170,22,-0.281982421875,-0.99932861328125,0.05340576171875
1759870893938,966365145,6170,23,-0.279052734375,-1.01007080078125,0.05316162109375
1759870893938,966365145,6170,24,-0.300537109375,-0.97808837890625,0.09613037109375
1759870893938,966365145,6170,25,-0.30126953125,-1.03082275390625,0.06512451171875
1759870893938,966365145,6170,26,-0.2919921875,-0.98858642578125,0.09173583984375
1759870893938,966365145,6170,27,-0.285400390625,-1.00494384765625,0.10296630859375
1759870893938,966365145,6170,28,-0.296875,-0.98760986328125,0.11541748046875
1759870893938,966365145,6170,29,-0.298828125,-1.01324462890625,0.09735107421875
1759870893938,966365145,6170,30,-0.295166015625,-0.97613525390625,0.13299560546875
1759870893938,966365145,6170,31,-0.300048828125,-0.99932861328125,0.13250732421875
1759870896456,966367682,6171,0,-0.29931640625,-0.98638916015625,0.14056396484375
1759870896456,966367682,6171,1,-0.322265625,-0.98907470703125,0.13934326171875
1759870896456,966367682,6171,2,-0.30712890625,-0.99127197265625,0.12200927734375
1759870896456,966367682,6171,3,-0.296875,-0.98248291015625,0.12396240234375
1759870896456,966367682,6171,4,-0.2919921875,-1.00787353515625,0.10467529296875
1759870896456,966367682,6171,5,-0.303466796875,-0.99029541015625,0.09320068359375
1759870896456,966367682,6171,6,-0.309814453125,-1.00543212890625,0.08929443359375
1759870896456,966367682,6171,7,-0.302978515625,-0.97100830078125,0.07391357421875
1759870896456,966367682,6171,8,-0.306640625,-1.01568603515625,0.06365966796875
1759870896456,966367682,6171,9,-0.299560546875,-0.99591064453125,0.05072021484375
1759870896456,966367682,6171,10,-0.290771484375,-1.00347900390625,0.04168701171875
1759870896456,966367682,6171,11,-0.28564453125,-0.99542236328125,0.03485107421875
1759870896456,966367682,6171,12,-0.292236328125,-1.01397705078125,0.03314208984375
1759870896456,966367682,6171,13,-0.291015625,-0.98858642578125,0.06170654296875
1759870896456,966367682,6171,14,-0.3115234375,-0.99029541015625,0.08538818359375
1759870896456,966367682,6171,15,-0.28125,-1.03204345703125,0.05731201171875
1759870896456,966367682,6171,16,-0.290283203125,-0.99395751953125,0.08343505859375
1759870896456,966367682,6171,17,-0.30810546875,-1.00469970703125,0.10125732421875
1759870896456,966367682,6171,18,-0.301513671875,-0.98638916015625,0.10491943359375
1759870896456,966367682,6171,19,-0.299072265625,-0.99957275390625,0.12030029296875
1759870896456,966367682,6171,20,-0.3193359375,-0.97344970703125,0.14007568359375
1759870896456,966367682,6171,21,-0.3154296875,-0.98272705078125,0.15081787109375
1759870896456,966367682,6171,22,-0.3173828125,-0.99932861328125,0.14056396484375
1759870896456,966367682,6171,23,-0.310302734375,-0.97003173828125,0.14056396484375
1759870896456,966367682,6171,24,-0.322265625,-0.99786376953125,0.12127685546875
1759870896456,966367682,6171,25,-0.301513671875,-0.98907470703125,0.11199951171875
1759870896456,966367682,6171,26,-0.334716796875,-0.98272705078125,0.09881591796875
1759870896456,966367682,6171,27,-0.326416015625,-0.98419189453125,0.09783935546875
1759870896456,966367682,6171,28,-0.33740234375,-0.98272705078125,0.10467529296875
1759870896456,966367682,6171,29,-0.335693359375,-0.98419189453125,0.07025146484375
1759870896456,966367682,6171,30,-0.317138671875,-0.99298095703125,0.05828857421875
1759870896456,966367682,6171,31,-0.3056640625,-0.98834228515625,0.06146240234375
1759870898978,966370219,6172,0,-0.317138671875,-1.01202392578125,0.06707763671875
1759870898978,966370219,6172,1,-0.30029296875,-0.97100830078125,0.08294677734375
1759870898978,966370219,6172,2,-0.314208984375,-1.01031494140625,0.07049560546875
1759870898978,966370219,6172,3,-0.306884765625,-0.99884033203125,0.08587646484375
1759870898978,966370219,6172,4,-0.310791015625,-0.99957275390625,0.09783935546875
1759870898978,966370219,6172,5,-0.29345703125,-0.99346923828125,0.13348388671875
1759870898978,966370219,6172,6,-0.323486328125,-0.98712158203125,0.11395263671875
1759870898978,966370219,6172,7,-0.318115234375,-0.98760986328125,0.12542724609375
1759870898978,966370219,6172,8,-0.319091796875,-0.98687744140625,0.12493896484375
1759870898978,966370219,6172,9,-0.32080078125,-0.98565673828125,0.13177490234375
1759870898978,966370219,6172,10,-0.31787109375,-0.99322509765625,0.12396240234375
1759870898978,966370219,6172,11,-0.314208984375,-0.98809814453125,0.12420654296875
1759870898978,966370219,6172,12,-0.31494140625,-0.98858642578125,0.11395263671875
1759870898978,966370219,6172,13,-0.312744140625,-0.99322509765625,0.11004638671875
1759870898978,966370219,6172,14,-0.31591796875,-0.98736572265625,0.10736083984375
1759870898978,966370219,6172,15,-0.31591796875,-0.99176025390625,0.08856201171875
1759870898978,966370219,6172,16,-0.30712890625,-0.99249267578125,0.07904052734375
1759870898978,966370219,6172,17,-0.31884765625,-0.99517822265625,0.07366943359375
1759870898978,966370219,6172,18,-0.305419921875,-0.99517822265625,0.06781005859375
1759870898978,966370219,6172,19,-0.29541015625,-0.99273681640625,0.05438232421875
1759870898978,966370219,6172,20,-0.3046875,-1.01055908203125,0.04974365234375
1759870898978,966370219,6172,21,-0.29345703125,-0.99957275390625,0.05120849609375
1759870898978,966370219,6172,22,-0.30859375,-0.95953369140625,0.07318115234375
1759870898978,966370219,6172,23,-0.2958984375,-1.03814697265625,0.07879638671875
1759870898978,966370219,6172,24,-0.295166015625,-1.00054931640625,0.06634521484375
1759870898978,966370219,6172,25,-0.301025390625,-1.00103759765625,0.08782958984375
1759870898978,966370219,6172,26,-0.30078125,-0.99200439453125,0.09564208984375
1759870898978,966370219,6172,27,-0.30810546875,-1.00201416015625,0.11981201171875
1759870898978,966370219,6172,28,-0.30224609375,-0.98028564453125,0.12176513671875
1759870898978,966370219,6172,29,-0.309814453125,-0.99859619140625,0.12200927734375
1759870898978,966370219,6172,30,-0.30615234375,-0.99371337890625,0.12445068359375
1759870898978,966370219,6172,31,-0.3056640625,-0.99884033203125,0.10443115234375
1759870901686,966372756,6173,0,-0.30517578125,-0.98809814453125,0.10760498046875
1759870901686,966372756,6173,1,-0.298828125,-0.99468994140625,0.10150146484375
1759870901686,966372756,6173,2,-0.3037109375,-0.99664306640625,0.08831787109375
1759870901686,966372756,6173,3,-0.306640625,-1.00225830078125,0.07489013671875
1759870901686,966372756,6173,4,-0.303466796875,-0.98272705078125,0.06903076171875
1759870901686,966372756,6173,5,-0.291259765625,-1.01910400390625,0.04168701171875
1759870901686,966372756,6173,6,-0.28759765625,-0.99322509765625,0.06536865234375
1759870901686,966372756,6173,7,-0.282958984375,-1.00299072265625,0.03851318359375
1759870901686,966372756,6173,8,-0.290283203125,-1.01422119140625,0.03485107421875
1759870901686,966372756,6173,9,-0.28857421875,-0.99615478515625,0.04803466796875
1759870901686,966372756,6173,10,-0.295654296875,-0.99127197265625,0.07537841796875
1759870901686,966372756,6173,11,-0.280029296875,-1.01324462890625,0.07708740234375
1759870901686,966372756,6173,12,-0.292724609375,-1.01055908203125,0.07757568359375
1759870901686,966372756,6173,13,-0.296630859375,-0.99688720703125,0.08245849609375
1759870901686,966372756,6173,14,-0.298095703125,-0.99761962890625,0.10931396484375
1759870901686,966372756,6173,15,-0.30322265625,-0.98980712890625,0.11981201171875
1759870901686,966372756,6173,16,-0.301513671875,-0.98980712890625,0.12322998046875
1759870901686,966372756,6173,17,-0.302001953125,-0.99346923828125,0.11419677734375
1759870901686,966372756,6173,18,-0.30615234375,-0.98956298828125,0.12762451171875
1759870901686,966372756,6173,19,-0.322265625,-0.99468994140625,0.13031005859375
1759870901686,966372756,6173,20,-0.299560546875,-0.99664306640625,0.08734130859375
1759870901686,966372756,6173,21,-0.298583984375,-0.99761962890625,0.12664794921875
1759870901686,966372756,6173,22,-0.32421875,-0.98834228515625,0.10394287109375
1759870901686,966372756,6173,23,-0.314208984375,-0.98077392578125,0.08978271484375
1759870901686,966372756,6173,24,-0.318359375,-1.00836181640625,0.05755615234375
1759870901686,966372756,6173,25,-0.313232421875,-0.98516845703125,0.08245849609375
1759870901686,966372756,6173,26,-0.302978515625,-0.99835205078125,0.06365966796875
1759870901686,966372756,6173,27,-0.297607421875,-1.00714111328125,0.05511474609375
1759870901686,966372756,6173,28,-0.2880859375,-0.98468017578125,0.05023193359375
1759870901686,966372756,6173,29,-0.30322265625,-1.01666259765625,0.05853271484375
1759870901686,966372756,6173,30,-0.2890625,-0.97198486328125,0.06268310546875
1759870901686,966372756,6173,31,-0.306884765625,-1.03131103515625,0.06488037109375
1759870904200,966375293,6174,0,-0.303955078125,-0.99053955078125,0.07928466796875
1759870904200,966375293,6174,1,-0.303955078125,-1.00006103515625,0.07928466796875
1759870904200,966375293,6174,2,-0.2978515625,-0.99591064453125,0.10687255859375
1759870904200,966375293,6174,3,-0.29833984375,-0.99224853515625,0.10955810546875
1759870904200,966375293,6174,4,-0.3134765625,-0.98565673828125,0.12005615234375
1759870904200,966375293,6174,5,-0.308837890625,-0.99200439453125,0.12518310546875
1759870904200,966375293,6174,6,-0.314697265625,-0.99005126953125,0.12908935546875
1759870904200,966375293,6174,7,-0.311767578125,-1.00128173828125,0.12982177734375
1759870904200,966375293,6174,8,-0.313232421875,-0.97711181640625,0.13592529296875
1759870904200,966375293,6174,9,-0.307861328125,-0.98883056640625,0.13275146484375
1759870904200,966375293,6174,10,-0.307373046875,-0.98736572265625,0.11395263671875
1759870904200,966375293,6174,11,-0.310546875,-0.99517822265625,0.09832763671875
1759870904200,966375293,6174,12,-0.3115234375,-0.99200439453125,0.10003662109375
1759870904200,966375293,6174,13,-0.306884765625,-0.97808837890625,0.10589599609375
1759870904200,966375293,6174,14,-0.30615234375,-0.99859619140625,0.08636474609375
1759870904200,966375293,6174,15,-0.30078125,-0.99957275390625,0.07318115234375
1759870904200,966375293,6174,16,-0.293212890625,-1.00372314453125,0.05267333984375
1759870904200,966375293,6174,17,-0.2998046875,-0.99078369140625,0.05780029296875
1759870904200,966375293,6174,18,-0.286865234375,-1.01397705078125,0.07659912109375
1759870904200,966375293,6174,19,-0.30810546875,-0.97515869140625,0.09783935546875
1759870904200,966375293,6174,20,-0.28466796875,-1.02886962890625,0.09295654296875
1759870904200,966375293,6174,21,-0.296142578125,-0.99005126953125,0.09857177734375
1759870904200,966375293,6174,22,-0.2939453125,-1.00103759765625,0.11517333984375
1759870904200,966375293,6174,23,-0.2939453125,-0.98809814453125,0.11859130859375
1759870904200,966375293,6174,24,-0.29443359375,-0.99761962890625,0.11102294921875
1759870904200,966375293,6174,25,-0.298828125,-0.99053955078125,0.12469482421875
1759870904200,966375293,6174,26,-0.30078125,-0.99395751953125,0.12957763671875
1759870904200,966375293,6174,27,-0.288818359375,-0.98321533203125,0.12762451171875
1759870904200,966375293,6174,28,-0.312255859375,-0.99566650390625,0.12615966796875
1759870904200,966375293,6174,29,-0.296875,-1.01544189453125,0.07708740234375
1759870904200,966375293,6174,30,-0.296142578125,-0.98541259765625,0.08465576171875
1759870904200,966375293,6174,31,-0.295654296875,-1.00787353515625,0.08709716796875
1759870906721,966377830,6175,0,-0.2998046875,-0.99542236328125,0.06512451171875
1759870906721,966377830,6175,1,-0.2978515625,-1.00518798828125,0.07220458984375
1759870906721,966377830,6175,2,-0.281982421875,-0.99517822265625,0.07147216796875
1759870906721,966377830,6175,3,-0.286376953125,-1.00347900390625,0.05853271484375
1759870906721,966377830,6175,4,-0.28955078125,-0.99542236328125,0.05218505859375
1759870906721,966377830,6175,5,-0.292236328125,-1.01129150390625,0.06048583984375
1759870906721,966377830,6175,6,-0.2880859375,-0.98712158203125,0.06781005859375
1759870906721,966377830,6175,7,-0.296142578125,-1.00811767578125,0.07659912109375
1759870906721,966377830,6175,8,-0.288818359375,-1.00421142578125,0.07391357421875
1759870906721,966377830,6175,9,-0.289306640625,-1.00811767578125,0.07196044921875
1759870906721,966377830,6175,10,-0.29833984375,-1.00347900390625,0.10345458984375
1759870906721,966377830,6175,11,-0.28369140625,-0.98907470703125,0.10809326171875
1759870906721,966377830,6175,12,-0.297607421875,-1.01641845703125,0.11395263671875
1759870906721,966377830,6175,13,-0.307373046875,-0.96954345703125,0.12420654296875
1759870906721,966377830,6175,14,-0.3134765625,-0.99688720703125,0.12957763671875
1759870906721,966377830,6175,15,-0.301025390625,-0.98638916015625,0.12249755859375
1759870906721,966377830,6175,16,-0.307373046875,-0.99713134765625,0.13494873046875
1759870906721,966377830,6175,17,-0.311767578125,-0.98541259765625,0.12811279296875
1759870906721,966377830,6175,18,-0.30224609375,-0.99444580078125,0.11419677734375
1759870906721,966377830,6175,19,-0.312255859375,-0.99346923828125,0.10467529296875
1759870906721,966377830,6175,20,-0.30859375,-0.99932861328125,0.09393310546875
1759870906721,966377830,6175,21,-0.309814453125,-0.98736572265625,0.08734130859375
1759870906721,966377830,6175,22,-0.296630859375,-0.99932861328125,0.08660888671875
1759870906721,966377830,6175,23,-0.29736328125,-0.99078369140625,0.05926513671875
1759870906721,966377830,6175,24,-0.2978515625,-1.00445556640625,0.07171630859375
1759870906721,966377830,6175,25,-0.293212890625,-0.99981689453125,0.05535888671875
1759870906721,966377830,6175,26,-0.284423828125,-0.99615478515625,0.06195068359375
1759870906721,966377830,6175,27,-0.297607421875,-0.99761962890625,0.09222412109375
1759870906721,966377830,6175,28,-0.29248046875,-1.01397705078125,0.08197021484375
1759870906721,966377830,6175,29,-0.294677734375,-1.00274658203125,0.09588623046875
1759870906721,966377830,6175,30,-0.304443359375,-0.98858642578125,0.11395263671875
1759870906721,966377830,6175,31,-0.29638671875,-1.00054931640625,0.12274169921875
1759870909232,966380367,6176,0,-0.31494140625,-0.98443603515625,0.13592529296875
1759870909232,966380367,6176,1,-0.319091796875,-0.98175048828125,0.13739013671875
1759870909232,966380367,6176,2,-0.32373046875,-0.99200439453125,0.13348388671875
1759870909232,966380367,6176,3,-0.325927734375,-0.97393798828125,0.15155029296875
1759870909232,966380367,6176,4,-0.329833984375,-0.98419189453125,0.14471435546875
1759870909232,966380367,6176,5,-0.32373046875,-0.98736572265625,0.13787841796875
1759870909232,966380367,6176,6,-0.32275390625,-0.97467041015625,0.13519287109375
1759870909232,966380367,6176,7,-0.30908203125,-0.99468994140625,0.11322021484375
1759870909232,966380367,6176,8,-0.329833984375,-0.98760986328125,0.10028076171875
1759870909232,966380367,6176,9,-0.3203125,-0.99346923828125,0.09197998046875
1759870909232,966380367,6176,10,-0.33447265625,-0.98248291015625,0.08831787109375
1759870909232,966380367,6176,11,-0.310302734375,-1.00640869140625,0.05487060546875
1759870909232,966380367,6176,12,-0.314453125,-0.99761962890625,0.06854248046875
1759870909232,966380367,6176,13,-0.299560546875,-0.98931884765625,0.06243896484375
1759870909232,966380367,6176,14,-0.3076171875,-1.00762939453125,0.05316162109375
1759870909232,966380367,6176,15,-0.297119140625,-0.98614501953125,0.05657958984375
1759870909232,966380367,6176,16,-0.305908203125,-1.00543212890625,0.08709716796875
1759870909232,966380367,6176,17,-0.310791015625,-1.00787353515625,0.07684326171875
1759870909232,966380367,6176,18,-0.3017578125,-0.99493408203125,0.09808349609375
1759870909232,966380367,6176,19,-0.312255859375,-0.99005126953125,0.11248779296875
1759870909232,966380367,6176,20,-0.310791015625,-0.98492431640625,0.12249755859375
1759870909232,966380367,6176,21,-0.313232421875,-0.99273681640625,0.13153076171875
1759870909232,966380367,6176,22,-0.31884765625,-0.98150634765625,0.13958740234375
1759870909232,966380367,6176,23,-0.322509765625,-0.98663330078125,0.14105224609375
1759870909232,966380367,6176,24,-0.31884765625,-0.98321533203125,0.14276123046875
1759870909232,966380367,6176,25,-0.319091796875,-0.98321533203125,0.13250732421875
1759870909232,966380367,6176,26,-0.307861328125,-1.00152587890625,0.12640380859375
1759870909232,966380367,6176,27,-0.322509765625,-0.97393798828125,0.13226318359375
1759870909232,966380367,6176,28,-0.306640625,-0.98760986328125,0.11785888671875
1759870909232,966380367,6176,29,-0.31201171875,-1.00665283203125,0.09197998046875
1759870909232,966380367,6176,30,-0.304443359375,-0.98590087890625,0.09539794921875
1759870909232,966380367,6176,31,-0.294189453125,-1.00103759765625,0.08416748046875
1759870911760,966382904,6177,0,-0.299560546875,-0.99542236328125,0.07733154296875
1759870911760,966382904,6177,1,-0.3037109375,-0.99542236328125,0.07635498046875
1759870911760,966382904,6177,2,-0.30078125,-0.98980712890625,0.06097412109375
1759870911760,966382904,6177,3,-0.30224609375,-1.00054931640625,0.05804443359375
1759870911760,966382904,6177,4,-0.3076171875,-0.99615478515625,0.07098388671875
1759870911760,966382904,6177,5,-0.306640625,-0.98980712890625,0.08416748046875
1759870911760,966382904,6177,6,-0.298583984375,-1.02081298828125,0.08001708984375
1759870911760,966382904,6177,7,-0.302734375,-0.99322509765625,0.09539794921875
1759870911760,966382904,6177,8,-0.30224609375,-0.99639892578125,0.11810302734375
1759870911760,966382904,6177,9,-0.291259765625,-0.98883056640625,0.12347412109375
1759870911760,966382904,6177,10,-0.309326171875,-1.00225830078125,0.12078857421875
1759870911760,966382904,6177,11,-0.3154296875,-0.97833251953125,0.13104248046875
1759870911760,966382904,6177,12,-0.316162109375,-0.98858642578125,0.13665771484375
1759870911760,966382904,6177,13,-0.30712890625,-0.98883056640625,0.13128662109375
1759870911760,966382904,6177,14,-0.30517578125,-0.99615478515625,0.13299560546875
1759870911760,966382904,6177,15,-0.30126953125,-0.99566650390625,0.12860107421875
1759870911760,966382904,6177,16,-0.312744140625,-0.98419189453125,0.11663818359375
1759870911760,966382904,6177,17,-0.305908203125,-0.99591064453125,0.11859130859375
1759870911760,966382904,6177,18,-0.307861328125,-0.99005126953125,0.11077880859375
1759870911760,966382904,6177,19,-0.313720703125,-1.00250244140625,0.09930419921875
1759870911760,966382904,6177,20,-0.31005859375,-0.97833251953125,0.10345458984375
1759870911760,966382904,6177,21,-0.29833984375,-0.99322509765625,0.10687255859375
1759870911760,966382904,6177,22,-0.29345703125,-0.99517822265625,0.09442138671875
1759870911760,966382904,6177,23,-0.294921875,-0.99737548828125,0.09637451171875
1759870911760,966382904,6177,24,-0.294189453125,-0.99517822265625,0.08123779296875
1759870911760,966382904,6177,25,-0.30126953125,-1.00054931640625,0.07415771484375
1759870911760,966382904,6177,26,-0.2978515625,-0.97540283203125,0.07781982421875
1759870911760,966382904,6177,27,-0.310302734375,-1.00811767578125,0.09490966796875
1759870911760,966382904,6177,28,-0.2939453125,-0.99249267578125,0.08978271484375
1759870911760,966382904,6177,29,-0.301025390625,-1.01300048828125,0.08172607421875
1759870911760,966382904,6177,30,-0.310302734375,-0.99615478515625,0.10174560546875
1759870911760,966382904,6177,31,-0.3193359375,-0.99981689453125,0.10076904296875
1759870914283,966385441,6178,0,-0.283935546875,-0.98004150390625,0.14959716796875
1759870914283,966385441,6178,1,-0.314697265625,-0.99346923828125,0.14764404296875
1759870914283,966385441,6178,2,-0.321044921875,-0.96881103515625,0.14959716796875
1759870914283,966385441,6178,3,-0.317626953125,-0.98809814453125,0.14031982421875
1759870914283,966385441,6178,4,-0.313232421875,-0.99249267578125,0.14642333984375
1759870914283,966385441,6178,5,-0.309326171875,-0.98712158203125,0.13739013671875
1759870914283,966385441,6178,6,-0.31298828125,-0.98858642578125,0.13348388671875
1759870914283,966385441,6178,7,-0.30615234375,-0.98297119140625,0.13494873046875
1759870914283,966385441,6178,8,-0.30517578125,-0.99615478515625,0.11077880859375
1759870914283,966385441,6178,9,-0.32568359375,-0.99273681640625,0.09954833984375
1759870914283,966385441,6178,10,-0.319580078125,-0.97979736328125,0.09564208984375
1759870914283,966385441,6178,11,-0.320068359375,-0.98907470703125,0.08929443359375
1759870914283,966385441,6178,12,-0.31298828125,-0.99298095703125,0.07879638671875
1759870914283,966385441,6178,13,-0.29931640625,-1.00616455078125,0.06829833984375
1759870914283,966385441,6178,14,-0.301025390625,-0.99249267578125,0.06756591796875
1759870914283,966385441,6178,15,-0.302734375,-0.99127197265625,0.07904052734375
1759870914283,966385441,6178,16,-0.30078125,-0.99835205078125,0.08929443359375
1759870914283,966385441,6178,17,-0.30517578125,-1.00469970703125,0.09906005859375
1759870914283,966385441,6178,18,-0.294677734375,-0.99664306640625,0.11077880859375
1759870914283,966385441,6178,19,-0.298095703125,-0.99639892578125,0.11907958984375
1759870914283,966385441,6178,20,-0.311279296875,-0.99273681640625,0.13299560546875
1759870914283,966385441,6178,21,-0.3271484375,-0.97515869140625,0.12689208984375
1759870914283,966385441,6178,22,-0.3095703125,-0.99200439453125,0.14324951171875
1759870914283,966385441,6178,23,-0.30322265625,-0.98223876953125,0.13714599609375
1759870914283,966385441,6178,24,-0.311279296875,-0.99737548828125,0.12982177734375
1759870914283,966385441,6178,25,-0.318603515625,-0.98541259765625,0.13470458984375
1759870914283,966385441,6178,26,-0.314453125,-0.98760986328125,0.12615966796875
1759870914283,966385441,6178,27,-0.319091796875,-0.98907470703125,0.11956787109375
1759870914283,966385441,6178,28,-0.310791015625,-0.99029541015625,0.10687255859375
1759870914283,966385441,6178,29,-0.3095703125,-0.99786376953125,0.10760498046875
1759870914283,966385441,6178,30,-0.30908203125,-0.99151611328125,0.08685302734375
1759870914283,966385441,6178,31,-0.30517578125,-0.99932861328125,0.08880615234375
1759870916797,966387978,6179,0,-0.310546875,-0.98297119140625,0.07489013671875
1759870916797,966387978,6179,1,-0.307861328125,-0.99957275390625,0.07000732421875
1759870916797,966387978,6179,2,-0.303955078125,-0.99273681640625,0.06610107421875
1759870916797,966387978,6179,3,-0.3046875,-0.99810791015625,0.06951904296875
1759870916797,966387978,6179,4,-0.30224609375,-0.98321533203125,0.07904052734375
1759870916797,966387978,6179,5,-0.304931640625,-1.01470947265625,0.09197998046875
1759870916797,966387978,6179,6,-0.30810546875,-0.99786376953125,0.09173583984375
1759870916797,966387978,6179,7,-0.31640625,-0.99371337890625,0.10858154296875
1759870916797,966387978,6179,8,-0.3134765625,-0.98321533203125,0.12542724609375
1759870916797,966387978,6179,9,-0.314208984375,-0.98760986328125,0.13079833984375
1759870916797,966387978,6179,10,-0.3193359375,-0.98297119140625,0.14276123046875
1759870916797,966387978,6179,11,-0.317626953125,-0.98663330078125,0.12469482421875
1759870916797,966387978,6179,12,-0.334716796875,-0.98101806640625,0.14617919921875
1759870916797,966387978,6179,13,-0.3251953125,-0.98516845703125,0.13104248046875
1759870916797,966387978,6179,14,-0.31640625,-1.00030517578125,0.13031005859375
1759870916797,966387978,6179,15,-0.31884765625,-0.97637939453125,0.12713623046875
1759870916797,966387978,6179,16,-0.31982421875,-0.99200439453125,0.12396240234375
1759870916797,966387978,6179,17,-0.31982421875,-0.98858642578125,0.11883544921875
1759870916797,966387978,6179,18,-0.322265625,-0.98931884765625,0.11199951171875
1759870916797,966387978,6179,19,-0.332763671875,-0.99005126953125,0.10345458984375
1759870916797,966387978,6179,20,-0.3203125,-0.98712158203125,0.08001708984375
1759870916797,966387978,6179,21,-0.2861328125,-0.99346923828125,0.10223388671875
1759870916797,966387978,6179,22,-0.291748046875,-0.99737548828125,0.07830810546875
1759870916797,966387978,6179,23,-0.29248046875,-0.99688720703125,0.07000732421875
1759870916797,966387978,6179,24,-0.296630859375,-1.00982666015625,0.06439208984375
1759870916797,966387978,6179,25,-0.30126953125,-0.97247314453125,0.07928466796875
1759870916797,966387978,6179,26,-0.330810546875,-1.02325439453125,0.10003662109375
1759870916797,966387978,6179,27,-0.3173828125,-0.98370361328125,0.10491943359375
1759870916797,966387978,6179,28,-0.319580078125,-0.99908447265625,0.10736083984375
1759870916797,966387978,6179,29,-0.310791015625,-0.98590087890625,0.11492919921875
1759870916797,966387978,6179,30,-0.320068359375,-0.98712158203125,0.13763427734375
1759870916797,966387978,6179,31,-0.31494140625,-0.99102783203125,0.13690185546875
1759870919320,966390515,6180,0,-0.31396484375,-0.97955322265625,0.13616943359375
1759870919320,966390515,6180,1,-0.317138671875,-0.99200439453125,0.13592529296875
1759870919320,966390515,6180,2,-0.322509765625,-0.98858642578125,0.12982177734375
1759870919320,966390515,6180,3,-0.318359375,-0.98638916015625,0.13909912109375
1759870919320,966390515,6180,4,-0.315673828125,-0.98321533203125,0.12957763671875
1759870919320,966390515,6180,5,-0.31787109375,-0.98834228515625,0.12860107421875
1759870919320,966390515,6180,6,-0.323974609375,-0.99468994140625,0.11834716796875
1759870919320,966390515,6180,7,-0.324951171875,-0.98541259765625,0.11639404296875
1759870919320,966390515,6180,8,-0.315673828125,-0.98321533203125,0.11810302734375
1759870919320,966390515,6180,9,-0.310546875,-0.98883056640625,0.11932373046875
1759870919320,966390515,6180,10,-0.32861328125,-0.99102783203125,0.09075927734375
1759870919320,966390515,6180,11,-0.325927734375,-0.97540283203125,0.08026123046875
1759870919320,966390515,6180,12,-0.298583984375,-1.00372314453125,0.07293701171875
1759870919320,966390515,6180,13,-0.319580078125,-1.00933837890625,0.05487060546875
1759870919320,966390515,6180,14,-0.313232421875,-0.97735595703125,0.07464599609375
1759870919320,966390515,6180,15,-0.30908203125,-0.99566650390625,0.09100341796875
1759870919320,966390515,6180,16,-0.3017578125,-0.99761962890625,0.09661865234375
1759870919320,966390515,6180,17,-0.306396484375,-1.00201416015625,0.10858154296875
1759870919320,966390515,6180,18,-0.322998046875,-0.98736572265625,0.12298583984375
1759870919320,966390515,6180,19,-0.31982421875,-0.98760986328125,0.12811279296875
1759870919320,966390515,6180,20,-0.314697265625,-0.98321533203125,0.13616943359375
1759870919320,966390515,6180,21,-0.322509765625,-0.98516845703125,0.13519287109375
1759870919320,966390515,6180,22,-0.326904296875,-0.97760009765625,0.15179443359375
1759870919320,966390515,6180,23,-0.323974609375,-0.99102783203125,0.13250732421875
1759870919320,966390515,6180,24,-0.3212890625,-0.98712158203125,0.13494873046875
1759870919320,966390515,6180,25,-0.325439453125,-0.98223876953125,0.13421630859375
1759870919320,966390515,6180,26,-0.326904296875,-0.98834228515625,0.12786865234375
1759870919320,966390515,6180,27,-0.32568359375,-0.98516845703125,0.11712646484375
1759870919320,966390515,6180,28,-0.33154296875,-0.99908447265625,0.11834716796875
1759870919320,966390515,6180,29,-0.333251953125,-0.95904541015625,0.10150146484375
1759870919320,966390515,6180,30,-0.332275390625,-0.99591064453125,0.08758544921875
1759870919320,966390515,6180,31,-0.336669921875,-0.98883056640625,0.07293701171875
1759870921839,966393053,6181,0,-0.331298828125,-0.98809814453125,0.07098388671875
1759870921839,966393053,6181,1,-0.328125,-0.98663330078125,0.06903076171875
