receivedPhoneTimestamp,respeckTimestamp,packetSeqNum,sampleSeqNum,accelX,accelY,accelZ
1760017991944,241827798,27526,22,0.859130859375,-0.10089111328125,0.37152099609375
1760017991944,241827798,27526,23,0.824951171875,-0.10211181640625,0.36981201171875
1760017991944,241827798,27526,24,0.83837890625,-0.08526611328125,0.38397216796875
1760017991944,241827798,27526,25,0.805419921875,-0.11798095703125,0.40667724609375
1760017991944,241827798,27526,26,0.82421875,-0.11431884765625,0.40032958984375
1760017991944,241827798,27526,27,0.843505859375,-0.10382080078125,0.40472412109375
1760017991944,241827798,27526,28,0.842041015625,-0.11700439453125,0.40081787109375
1760017991944,241827798,27526,29,0.830078125,-0.10113525390625,0.39984130859375
1760017991944,241827798,27526,30,0.832275390625,-0.11431884765625,0.44012451171875
1760017991944,241827798,27526,31,0.852294921875,-0.06158447265625,0.41937255859375
1760017994463,241830389,27527,0,0.822021484375,-0.05987548828125,0.41375732421875
1760017994463,241830389,27527,1,0.817138671875,-0.03057861328125,0.39276123046875
1760017994463,241830389,27527,2,0.816162109375,-0.06280517578125,0.38934326171875
1760017994463,241830389,27527,3,0.83447265625,-0.04669189453125,0.39056396484375
1760017994463,241830389,27527,4,0.852294921875,-0.03863525390625,0.39935302734375
1760017994463,241830389,27527,5,0.845458984375,-0.05523681640625,0.39666748046875
1760017994463,241830389,27527,6,0.8291015625,-0.04693603515625,0.36932373046875
1760017994463,241830389,27527,7,0.8212890625,-0.07916259765625,0.39520263671875
1760017994463,241830389,27527,8,0.818359375,-0.12261962890625,0.42987060546875
1760017994463,241830389,27527,9,0.8408203125,-0.08819580078125,0.41253662109375
1760017994463,241830389,27527,10,0.83544921875,-0.09674072265625,0.40692138671875
1760017994463,241830389,27527,11,0.821044921875,-0.10528564453125,0.40472412109375
1760017994463,241830389,27527,12,0.822021484375,-0.10723876953125,0.42230224609375
1760017994463,241830389,27527,13,0.827392578125,-0.10650634765625,0.42742919921875
1760017994463,241830389,27527,14,0.842529296875,-0.03912353515625,0.40887451171875
1760017994463,241830389,27527,15,0.813232421875,-0.05352783203125,0.43548583984375
1760017994463,241830389,27527,16,0.8466796875,-0.00567626953125,0.37860107421875
1760017994463,241830389,27527,17,0.826416015625,-0.00323486328125,0.38812255859375
1760017994463,241830389,27527,18,0.845458984375,0.00115966796875,0.38153076171875
1760017994463,241830389,27527,19,0.845458984375,-0.00250244140625,0.40618896484375
1760017994463,241830389,27527,20,0.830810546875,-0.00347900390625,0.38861083984375
1760017994463,241830389,27527,21,0.828125,-0.03277587890625,0.37420654296875
1760017994463,241830389,27527,22,0.83154296875,-0.07257080078125,0.41326904296875
1760017994463,241830389,27527,23,0.839599609375,-0.07574462890625,0.40692138671875
1760017994463,241830389,27527,24,0.84375,-0.07183837890625,0.39910888671875
1760017994463,241830389,27527,25,0.832275390625,-0.08624267578125,0.40936279296875
1760017994463,241830389,27527,26,0.820556640625,-0.09381103515625,0.41278076171875
1760017994463,241830389,27527,27,0.819091796875,-0.10968017578125,0.44549560546875
1760017994463,241830389,27527,28,0.826416015625,-0.07061767578125,0.42547607421875
1760017994463,241830389,27527,29,0.83203125,-0.08038330078125,0.42156982421875
1760017994463,241830389,27527,30,0.858154296875,-0.06500244140625,0.38128662109375
1760017994463,241830389,27527,31,0.833251953125,-0.04034423828125,0.36053466796875
1760017997165,241832980,27528,0,0.833740234375,-0.04937744140625,0.35784912109375
1760017997165,241832980,27528,1,0.87255859375,-0.01763916015625,0.35247802734375
1760017997165,241832980,27528,2,0.859375,-0.06134033203125,0.36785888671875
1760017997165,241832980,27528,3,0.847900390625,-0.07427978515625,0.35125732421875
1760017997165,241832980,27528,4,0.837646484375,-0.07843017578125,0.36419677734375
1760017997165,241832980,27528,5,0.8203125,-0.11895751953125,0.39178466796875
1760017997165,241832980,27528,6,0.8466796875,-0.07818603515625,0.38470458984375
1760017997165,241832980,27528,7,0.854736328125,-0.09771728515625,0.38836669921875
1760017997165,241832980,27528,8,0.839599609375,-0.10040283203125,0.37518310546875
1760017997165,241832980,27528,9,0.84423828125,-0.10552978515625,0.37738037109375
1760017997165,241832980,27528,10,0.854248046875,-0.10382080078125,0.39080810546875
1760017997165,241832980,27528,11,0.881103515625,-0.10406494140625,0.34222412109375
1760017997165,241832980,27528,12,0.873046875,-0.08575439453125,0.39178466796875
1760017997165,241832980,27528,13,0.83984375,-0.10260009765625,0.37200927734375
1760017997165,241832980,27528,14,0.850830078125,-0.06695556640625,0.34173583984375
1760017997165,241832980,27528,15,0.8369140625,-0.09039306640625,0.35516357421875
1760017997165,241832980,27528,16,0.8662109375,-0.09552001953125,0.36199951171875
1760017997165,241832980,27528,17,0.832763671875,-0.08941650390625,0.36541748046875
1760017997165,241832980,27528,18,0.81884765625,-0.10723876953125,0.37298583984375
1760017997165,241832980,27528,19,0.824462890625,-0.10552978515625,0.37127685546875
1760017997165,241832980,27528,20,0.81787109375,-0.14239501953125,0.39739990234375
1760017997165,241832980,27528,21,0.853515625,-0.12847900390625,0.39373779296875
1760017997165,241832980,27528,22,0.84375,-0.10504150390625,0.38397216796875
1760017997165,241832980,27528,23,0.846435546875,-0.10430908203125,0.37249755859375
1760017997165,241832980,27528,24,0.845703125,-0.09844970703125,0.36590576171875
1760017997165,241832980,27528,25,0.849853515625,-0.10601806640625,0.37225341796875
1760017997165,241832980,27528,26,0.8720703125,-0.12457275390625,0.36175537109375
1760017997165,241832980,27528,27,0.880859375,-0.10162353515625,0.37664794921875
1760017997165,241832980,27528,28,0.860595703125,-0.09747314453125,0.36932373046875
1760017997165,241832980,27528,29,0.83203125,-0.08795166015625,0.36175537109375
1760017997165,241832980,27528,30,0.847412109375,-0.07135009765625,0.34735107421875
1760017997165,241832980,27528,31,0.851806640625,-0.08502197265625,0.38372802734375
1760017999684,241835571,27529,0,0.842529296875,-0.07183837890625,0.36712646484375
1760017999684,241835571,27529,1,0.819580078125,-0.10797119140625,0.37225341796875
1760017999684,241835571,27529,2,0.836181640625,-0.09722900390625,0.36639404296875
1760017999684,241835571,27529,3,0.840087890625,-0.09405517578125,0.38616943359375
1760017999684,241835571,27529,4,0.81396484375,-0.14532470703125,0.38323974609375
1760017999684,241835571,27529,5,0.847412109375,-0.12164306640625,0.38494873046875
1760017999684,241835571,27529,6,0.859375,-0.10992431640625,0.36492919921875
1760017999684,241835571,27529,7,0.848388671875,-0.09918212890625,0.37322998046875
1760017999684,241835571,27529,8,0.85546875,-0.10992431640625,0.37469482421875
1760017999684,241835571,27529,9,0.856689453125,-0.09918212890625,0.37274169921875
1760017999684,241835571,27529,10,0.858154296875,-0.11260986328125,0.39202880859375
1760017999684,241835571,27529,11,0.85546875,-0.10137939453125,0.38177490234375
1760017999684,241835571,27529,12,0.8486328125,-0.07891845703125,0.37786865234375
1760017999684,241835571,27529,13,0.839599609375,-0.07354736328125,0.38519287109375
1760017999684,241835571,27529,14,0.851318359375,-0.02642822265625,0.36248779296875
1760017999684,241835571,27529,15,0.863525390625,-0.03204345703125,0.36053466796875
1760017999684,241835571,27529,16,0.846923828125,-0.03717041015625,0.34027099609375
1760017999684,241835571,27529,17,0.83935546875,-0.04595947265625,0.35614013671875
1760017999684,241835571,27529,18,0.83837890625,-0.05572509765625,0.36395263671875
1760017999684,241835571,27529,19,0.842529296875,-0.05718994140625,0.36175537109375
1760017999684,241835571,27529,20,0.84033203125,-0.07623291015625,0.38177490234375
1760017999684,241835571,27529,21,0.841552734375,-0.12139892578125,0.40081787109375
1760017999684,241835571,27529,22,0.834716796875,-0.09918212890625,0.36639404296875
1760017999684,241835571,27529,23,0.847412109375,-0.10040283203125,0.38568115234375
1760017999684,241835571,27529,24,0.85595703125,-0.09503173828125,0.37884521484375
1760017999684,241835571,27529,25,0.848388671875,-0.10015869140625,0.37664794921875
1760017999684,241835571,27529,26,0.85205078125,-0.09991455078125,0.36614990234375
1760017999684,241835571,27529,27,0.86474609375,-0.13580322265625,0.40545654296875
1760017999684,241835571,27529,28,0.865478515625,-0.10845947265625,0.34735107421875
1760017999684,241835571,27529,29,0.85546875,-0.09991455078125,0.35443115234375
1760017999684,241835571,27529,30,0.847900390625,-0.08795166015625,0.34686279296875
1760017999684,241835571,27529,31,0.84716796875,-0.10089111328125,0.34881591796875
1760018002203,241838163,27530,0,0.856689453125,-0.08135986328125,0.35833740234375
1760018002203,241838163,27530,1,0.845703125,-0.08551025390625,0.35174560546875
1760018002203,241838163,27530,2,0.8271484375,-0.11553955078125,0.37445068359375
1760018002203,241838163,27530,3,0.8408203125,-0.08819580078125,0.33953857421875
1760018002203,241838163,27530,4,0.84375,-0.11920166015625,0.37640380859375
1760018002203,241838163,27530,5,0.83154296875,-0.15118408203125,0.38323974609375
1760018002203,241838163,27530,6,0.853515625,-0.12017822265625,0.36053466796875
1760018002203,241838163,27530,7,0.855224609375,-0.10626220703125,0.36688232421875
1760018002203,241838163,27530,8,0.852783203125,-0.12164306640625,0.36126708984375
1760018002203,241838163,27530,9,0.85888671875,-0.10626220703125,0.36712646484375
1760018002203,241838163,27530,10,0.8408203125,-0.11407470703125,0.37298583984375
1760018002203,241838163,27530,11,0.86328125,-0.11236572265625,0.39300537109375
1760018002203,241838163,27530,12,0.844970703125,-0.10552978515625,0.38714599609375
1760018002203,241838163,27530,13,0.8388671875,-0.08819580078125,0.39422607421875
1760018002203,241838163,27530,14,0.83251953125,-0.06329345703125,0.39886474609375
1760018002203,241838163,27530,15,0.83984375,-0.01617431640625,0.37078857421875
1760018002203,241838163,27530,16,0.846923828125,-0.02374267578125,0.37591552734375
1760018002203,241838163,27530,17,0.851806640625,-0.01422119140625,0.36053466796875
1760018002203,241838163,27530,18,0.8486328125,-0.02691650390625,0.37176513671875
1760018002203,241838163,27530,19,0.847900390625,-0.03082275390625,0.36004638671875
1760018002203,241838163,27530,20,0.847900390625,-0.06036376953125,0.35321044921875
1760018002203,241838163,27530,21,0.842041015625,-0.09796142578125,0.39422607421875
1760018002203,241838163,27530,22,0.847412109375,-0.10235595703125,0.37860107421875
1760018002203,241838163,27530,23,0.846435546875,-0.08697509765625,0.37078857421875
1760018002203,241838163,27530,24,0.8525390625,-0.10357666015625,0.37469482421875
1760018002203,241838163,27530,25,0.84912109375,-0.09332275390625,0.37225341796875
1760018002203,241838163,27530,26,0.8447265625,-0.10015869140625,0.38006591796875
1760018002203,241838163,27530,27,0.845458984375,-0.10406494140625,0.39617919921875
1760018002203,241838163,27530,28,0.844482421875,-0.08941650390625,0.38885498046875
1760018002203,241838163,27530,29,0.83203125,-0.06182861328125,0.40667724609375
1760018002203,241838163,27530,30,0.846435546875,-0.03228759765625,0.40692138671875
1760018002203,241838163,27530,31,0.858642578125,0.01141357421875,0.36175537109375
1760018004903,241840754,27531,0,0.85693359375,-0.03424072265625,0.33587646484375
1760018004903,241840754,27531,1,0.861328125,-0.03057861328125,0.31707763671875
1760018004903,241840754,27531,2,0.853515625,-0.04400634765625,0.33050537109375
1760018004903,241840754,27531,3,0.85595703125,-0.02545166015625,0.33074951171875
1760018004903,241840754,27531,4,0.8544921875,-0.05572509765625,0.34344482421875
1760018004903,241840754,27531,5,0.85107421875,-0.08013916015625,0.38616943359375
1760018004903,241840754,27531,6,0.8564453125,-0.06060791015625,0.36956787109375
1760018004903,241840754,27531,7,0.842529296875,-0.07965087890625,0.37615966796875
1760018004903,241840754,27531,8,0.857177734375,-0.07012939453125,0.36614990234375
1760018004903,241840754,27531,9,0.851318359375,-0.08233642578125,0.36981201171875
1760018004903,241840754,27531,10,0.849365234375,-0.07818603515625,0.37689208984375
1760018004903,241840754,27531,11,0.85009765625,-0.08233642578125,0.37982177734375
1760018004903,241840754,27531,12,0.850830078125,-0.08819580078125,0.39447021484375
1760018004903,241840754,27531,13,0.8525390625,-0.07183837890625,0.38128662109375
1760018004903,241840754,27531,14,0.8310546875,-0.05718994140625,0.39422607421875
1760018004903,241840754,27531,15,0.842529296875,-0.04034423828125,0.37982177734375
1760018004903,241840754,27531,16,0.8427734375,-0.04425048828125,0.37542724609375
1760018004903,241840754,27531,17,0.85009765625,-0.06378173828125,0.35784912109375
1760018004903,241840754,27531,18,0.854736328125,-0.05718994140625,0.35198974609375
1760018004903,241840754,27531,19,0.850341796875,-0.06036376953125,0.36126708984375
1760018004903,241840754,27531,20,0.846923828125,-0.07843017578125,0.37518310546875
1760018004903,241840754,27531,21,0.841064453125,-0.06988525390625,0.37200927734375
1760018004903,241840754,27531,22,0.85009765625,-0.07476806640625,0.38372802734375
1760018004903,241840754,27531,23,0.83447265625,-0.07110595703125,0.38079833984375
1760018004903,241840754,27531,24,0.82421875,-0.08331298828125,0.38665771484375
1760018004903,241840754,27531,25,0.8466796875,-0.07989501953125,0.37420654296875
1760018004903,241840754,27531,26,0.852294921875,-0.07257080078125,0.37615966796875
1760018004903,241840754,27531,27,0.857177734375,-0.07745361328125,0.38104248046875
1760018004903,241840754,27531,28,0.847412109375,-0.08502197265625,0.39202880859375
1760018004903,241840754,27531,29,0.835693359375,-0.08795166015625,0.37933349609375
1760018004903,241840754,27531,30,0.841552734375,-0.09674072265625,0.40008544921875
1760018004903,241840754,27531,31,0.839599609375,-0.08746337890625,0.40472412109375
1760018007422,241843345,27532,0,0.84423828125,-0.06011962890625,0.40057373046875
1760018007422,241843345,27532,1,0.82275390625,-0.06500244140625,0.43182373046875
1760018007422,241843345,27532,2,0.8466796875,0.00677490234375,0.37445068359375
1760018007422,241843345,27532,3,0.828857421875,-0.03277587890625,0.37908935546875
1760018007422,241843345,27532,4,0.845703125,-0.01666259765625,0.36419677734375
1760018007422,241843345,27532,5,0.83935546875,-0.03594970703125,0.37640380859375
1760018007422,241843345,27532,6,0.8408203125,-0.04766845703125,0.38616943359375
1760018007422,241843345,27532,7,0.84912109375,-0.04010009765625,0.36053466796875
1760018007422,241843345,27532,8,0.84033203125,-0.07305908203125,0.39300537109375
1760018007422,241843345,27532,9,0.840576171875,-0.07696533203125,0.38739013671875
1760018007422,241843345,27532,10,0.84716796875,-0.07598876953125,0.38446044921875
1760018007422,241843345,27532,11,0.845458984375,-0.07965087890625,0.38128662109375
1760018007422,241843345,27532,12,0.83740234375,-0.09307861328125,0.39251708984375
1760018007422,241843345,27532,13,0.845703125,-0.07135009765625,0.38812255859375
1760018007422,241843345,27532,14,0.84228515625,-0.08526611328125,0.38250732421875
1760018007422,241843345,27532,15,0.846923828125,-0.07281494140625,0.37640380859375
1760018007422,241843345,27532,16,0.84716796875,-0.08282470703125,0.38006591796875
1760018007422,241843345,27532,17,0.84130859375,-0.08502197265625,0.38494873046875
1760018007422,241843345,27532,18,0.84375,-0.08062744140625,0.38690185546875
1760018007422,241843345,27532,19,0.850341796875,-0.08306884765625,0.38519287109375
1760018007422,241843345,27532,20,0.834716796875,-0.07745361328125,0.37200927734375
1760018007422,241843345,27532,21,0.84228515625,-0.08770751953125,0.38421630859375
1760018007422,241843345,27532,22,0.8369140625,-0.07525634765625,0.37738037109375
1760018007422,241843345,27532,23,0.844482421875,-0.08209228515625,0.38323974609375
1760018007422,241843345,27532,24,0.84912109375,-0.08209228515625,0.38543701171875
1760018007422,241843345,27532,25,0.84423828125,-0.08477783203125,0.38519287109375
1760018007422,241843345,27532,26,0.842041015625,-0.08990478515625,0.40789794921875
1760018007422,241843345,27532,27,0.828125,-0.11138916015625,0.44891357421875
1760018007422,241843345,27532,28,0.849853515625,-0.04888916015625,0.37982177734375
1760018007422,241843345,27532,29,0.814208984375,-0.06793212890625,0.42987060546875
1760018007422,241843345,27532,30,0.83642578125,-0.02886962890625,0.40155029296875
1760018007422,241843345,27532,31,0.8330078125,-0.01324462890625,0.40521240234375
1760018010123,241845936,27533,0,0.827392578125,-0.01446533203125,0.38250732421875
1760018010123,241845936,27533,1,0.84033203125,-0.02398681640625,0.36834716796875
1760018010123,241845936,27533,2,0.82763671875,-0.03741455078125,0.38446044921875
1760018010123,241845936,27533,3,0.83837890625,-0.02838134765625,0.36859130859375
1760018010123,241845936,27533,4,0.838134765625,-0.04986572265625,0.37469482421875
1760018010123,241845936,27533,5,0.842529296875,-0.10284423828125,0.40936279296875
1760018010123,241845936,27533,6,0.845458984375,-0.06427001953125,0.38739013671875
1760018010123,241845936,27533,7,0.841796875,-0.09356689453125,0.38739013671875
1760018010123,241845936,27533,8,0.84326171875,-0.08941650390625,0.38055419921875
1760018010123,241845936,27533,9,0.842529296875,-0.09356689453125,0.37957763671875
1760018010123,241845936,27533,10,0.849365234375,-0.08892822265625,0.37933349609375
1760018010123,241845936,27533,11,0.8564453125,-0.09918212890625,0.39935302734375
1760018010123,241845936,27533,12,0.841064453125,-0.09332275390625,0.40032958984375
1760018010123,241845936,27533,13,0.845947265625,-0.04400634765625,0.39080810546875
1760018010123,241845936,27533,14,0.829833984375,-0.04718017578125,0.41082763671875
1760018010123,241845936,27533,15,0.833251953125,-0.01983642578125,0.39056396484375
1760018010123,241845936,27533,16,0.829345703125,-0.04937744140625,0.39520263671875
1760018010123,241845936,27533,17,0.835693359375,-0.02691650390625,0.37396240234375
1760018010123,241845936,27533,18,0.8291015625,-0.03765869140625,0.39324951171875
1760018010123,241845936,27533,19,0.830810546875,-0.03277587890625,0.37860107421875
1760018010123,241845936,27533,20,0.8447265625,-0.04327392578125,0.36761474609375
1760018010123,241845936,27533,21,0.837890625,-0.08209228515625,0.40374755859375
1760018010123,241845936,27533,22,0.84423828125,-0.07159423828125,0.39593505859375
1760018010123,241845936,27533,23,0.844482421875,-0.07159423828125,0.38494873046875
1760018010123,241845936,27533,24,0.851806640625,-0.08843994140625,0.38177490234375
1760018010123,241845936,27533,25,0.84130859375,-0.08673095703125,0.38275146484375
1760018010123,241845936,27533,26,0.844970703125,-0.09259033203125,0.37982177734375
1760018010123,241845936,27533,27,0.847412109375,-0.09259033203125,0.38250732421875
1760018010123,241845936,27533,28,0.845703125,-0.08477783203125,0.39642333984375
1760018010123,241845936,27533,29,0.847412109375,-0.07354736328125,0.40325927734375
1760018010123,241845936,27533,30,0.847412109375,-0.03936767578125,0.40081787109375
1760018010123,241845936,27533,31,0.833984375,-0.05694580078125,0.38031005859375
1760018012643,241848527,27534,0,0.847900390625,-0.03765869140625,0.36322021484375
1760018012643,241848527,27534,1,0.83544921875,-0.06353759765625,0.37249755859375
1760018012643,241848527,27534,2,0.8369140625,-0.05889892578125,0.37200927734375
1760018012643,241848527,27534,3,0.8427734375,-0.05841064453125,0.38006591796875
1760018012643,241848527,27534,4,0.841064453125,-0.05963134765625,0.36444091796875
1760018012643,241848527,27534,5,0.8447265625,-0.06744384765625,0.38958740234375
1760018012643,241848527,27534,6,0.838623046875,-0.08062744140625,0.38446044921875
1760018012643,241848527,27534,7,0.852294921875,-0.06842041015625,0.37567138671875
1760018012643,241848527,27534,8,0.8544921875,-0.07696533203125,0.37371826171875
1760018012643,241848527,27534,9,0.8544921875,-0.07379150390625,0.36932373046875
1760018012643,241848527,27534,10,0.848876953125,-0.07476806640625,0.36761474609375
1760018012643,241848527,27534,11,0.850830078125,-0.08282470703125,0.37811279296875
1760018012643,241848527,27534,12,0.856689453125,-0.09429931640625,0.41473388671875
1760018012643,241848527,27534,13,0.841796875,-0.06842041015625,0.38421630859375
1760018012643,241848527,27534,14,0.84423828125,-0.02960205078125,0.36077880859375
1760018012643,241848527,27534,15,0.869384765625,-0.04351806640625,0.32952880859375
1760018012643,241848527,27534,16,0.857666015625,-0.04107666015625,0.33807373046875
1760018012643,241848527,27534,17,0.863037109375,-0.02862548828125,0.33416748046875
1760018012643,241848527,27534,18,0.864990234375,-0.03228759765625,0.34735107421875
1760018012643,241848527,27534,19,0.861328125,-0.03326416015625,0.34124755859375
1760018012643,241848527,27534,20,0.84912109375,-0.03961181640625,0.34490966796875
1760018012643,241848527,27534,21,0.84814453125,-0.04156494140625,0.35858154296875
1760018012643,241848527,27534,22,0.84716796875,-0.07769775390625,0.37933349609375
1760018012643,241848527,27534,23,0.8544921875,-0.05035400390625,0.37225341796875
1760018012643,241848527,27534,24,0.85986328125,-0.05914306640625,0.37322998046875
1760018012643,241848527,27534,25,0.848876953125,-0.06353759765625,0.37908935546875
1760018012643,241848527,27534,26,0.84716796875,-0.05401611328125,0.38177490234375
1760018012643,241848527,27534,27,0.858154296875,-0.06988525390625,0.39471435546875
1760018012643,241848527,27534,28,0.852294921875,-0.05548095703125,0.40789794921875
1760018012643,241848527,27534,29,0.8515625,-0.03643798828125,0.39691162109375
1760018012643,241848527,27534,30,0.837158203125,-0.04376220703125,0.36590576171875
1760018012643,241848527,27534,31,0.8310546875,-0.04864501953125,0.35369873046875
1760018015164,241851118,27535,0,0.852294921875,-0.06085205078125,0.34490966796875
1760018015164,241851118,27535,1,0.858154296875,-0.07598876953125,0.36663818359375
1760018015164,241851118,27535,2,0.8525390625,-0.06207275390625,0.36492919921875
1760018015164,241851118,27535,3,0.849365234375,-0.06622314453125,0.35760498046875
1760018015164,241851118,27535,4,0.833251953125,-0.07672119140625,0.37982177734375
1760018015164,241851118,27535,5,0.81982421875,-0.10137939453125,0.40521240234375
1760018015164,241851118,27535,6,0.847412109375,-0.08087158203125,0.38519287109375
1760018015164,241851118,27535,7,0.85546875,-0.07525634765625,0.38543701171875
1760018015164,241851118,27535,8,0.834716796875,-0.08453369140625,0.38616943359375
1760018015164,241851118,27535,9,0.840576171875,-0.08233642578125,0.38494873046875
1760018015164,241851118,27535,10,0.846923828125,-0.07135009765625,0.38372802734375
1760018015164,241851118,27535,11,0.84912109375,-0.10382080078125,0.42010498046875
1760018015164,241851118,27535,12,0.867919921875,-0.05670166015625,0.39031982421875
1760018015164,241851118,27535,13,0.85302734375,-0.05352783203125,0.36663818359375
1760018015164,241851118,27535,14,0.8720703125,-0.06329345703125,0.31585693359375
1760018015164,241851118,27535,15,0.849609375,-0.08624267578125,0.33636474609375
1760018015164,241851118,27535,16,0.856201171875,-0.07135009765625,0.32904052734375
1760018015164,241851118,27535,17,0.846923828125,-0.08013916015625,0.35418701171875
1760018015164,241851118,27535,18,0.87939453125,-0.06353759765625,0.33929443359375
1760018015164,241851118,27535,19,0.876708984375,-0.05914306640625,0.34759521484375
1760018015164,241851118,27535,20,0.809326171875,-0.09698486328125,0.36737060546875
1760018015164,241851118,27535,21,0.8310546875,-0.10723876953125,0.38519287109375
1760018015164,241851118,27535,22,0.845458984375,-0.08941650390625,0.40423583984375
1760018015164,241851118,27535,23,0.817626953125,-0.09576416015625,0.40740966796875
1760018015164,241851118,27535,24,0.8154296875,-0.08477783203125,0.40032958984375
1760018015164,241851118,27535,25,0.838134765625,-0.07232666015625,0.40228271484375
1760018015164,241851118,27535,26,0.86669921875,-0.07696533203125,0.40399169921875
1760018015164,241851118,27535,27,0.85693359375,-0.06988525390625,0.38372802734375
1760018015164,241851118,27535,28,0.850341796875,-0.06109619140625,0.39715576171875
1760018015164,241851118,27535,29,0.85400390625,-0.03814697265625,0.38812255859375
1760018015164,241851118,27535,30,0.83251953125,-0.03985595703125,0.37738037109375
1760018015164,241851118,27535,31,0.83935546875,-0.02667236328125,0.38079833984375
1760018017865,241853710,27536,0,0.84521484375,-0.03033447265625,0.37860107421875
1760018017865,241853710,27536,1,0.822509765625,-0.03741455078125,0.38201904296875
1760018017865,241853710,27536,2,0.835205078125,-0.05279541015625,0.37982177734375
1760018017865,241853710,27536,3,0.839111328125,-0.04156494140625,0.37078857421875
1760018017865,241853710,27536,4,0.82421875,-0.10430908203125,0.40155029296875
1760018017865,241853710,27536,5,0.846923828125,-0.08355712890625,0.38250732421875
1760018017865,241853710,27536,6,0.851806640625,-0.07769775390625,0.38812255859375
1760018017865,241853710,27536,7,0.848876953125,-0.10333251953125,0.38983154296875
1760018017865,241853710,27536,8,0.845947265625,-0.08551025390625,0.38739013671875
1760018017865,241853710,27536,9,0.83984375,-0.09844970703125,0.41693115234375
1760018017865,241853710,27536,10,0.843505859375,-0.07843017578125,0.40399169921875
1760018017865,241853710,27536,11,0.824462890625,-0.07501220703125,0.44061279296875
1760018017865,241853710,27536,12,0.839599609375,-0.01495361328125,0.38275146484375
1760018017865,241853710,27536,13,0.80224609375,0.01263427734375,0.40447998046875
1760018017865,241853710,27536,14,0.8369140625,-0.04083251953125,0.38372802734375
1760018017865,241853710,27536,15,0.8388671875,-0.02423095703125,0.40057373046875
1760018017865,241853710,27536,16,0.835205078125,-0.03497314453125,0.40228271484375
1760018017865,241853710,27536,17,0.8359375,-0.03643798828125,0.38812255859375
1760018017865,241853710,27536,18,0.83203125,-0.03839111328125,0.38568115234375
1760018017865,241853710,27536,19,0.830078125,-0.08746337890625,0.41229248046875
1760018017865,241853710,27536,20,0.839111328125,-0.07086181640625,0.39715576171875
1760018017865,241853710,27536,21,0.8427734375,-0.07891845703125,0.39910888671875
1760018017865,241853710,27536,22,0.832763671875,-0.07965087890625,0.39617919921875
1760018017865,241853710,27536,23,0.841552734375,-0.07720947265625,0.39422607421875
1760018017865,241853710,27536,24,0.833740234375,-0.09527587890625,0.41253662109375
1760018017865,241853710,27536,25,0.8203125,-0.09356689453125,0.44281005859375
1760018017865,241853710,27536,26,0.877197265625,-0.03302001953125,0.40887451171875
1760018017865,241853710,27536,27,0.810302734375,-0.01031494140625,0.40203857421875
1760018017865,241853710,27536,28,0.810546875,-0.03887939453125,0.39813232421875
1760018017865,241853710,27536,29,0.823486328125,-0.04302978515625,0.40277099609375
1760018017865,241853710,27536,30,0.824462890625,-0.04498291015625,0.42669677734375
1760018017865,241853710,27536,31,0.8232421875,-0.07110595703125,0.42449951171875
1760018020382,241856301,27537,0,0.82080078125,-0.05377197265625,0.39837646484375
1760018020382,241856301,27537,1,0.8154296875,-0.06597900390625,0.39447021484375
1760018020382,241856301,27537,2,0.81005859375,-0.10382080078125,0.42327880859375
1760018020382,241856301,27537,3,0.847900390625,-0.08355712890625,0.40228271484375
1760018020382,241856301,27537,4,0.846435546875,-0.08013916015625,0.39862060546875
1760018020382,241856301,27537,5,0.842041015625,-0.08599853515625,0.39080810546875
1760018020382,241856301,27537,6,0.831298828125,-0.08526611328125,0.39007568359375
1760018020382,241856301,27537,7,0.841796875,-0.07818603515625,0.39300537109375
1760018020382,241856301,27537,8,0.853271484375,-0.09503173828125,0.40887451171875
1760018020382,241856301,27537,9,0.84814453125,-0.08380126953125,0.44012451171875
1760018020382,241856301,27537,10,0.83935546875,-0.05645751953125,0.37567138671875
1760018020382,241856301,27537,11,0.819580078125,-0.01593017578125,0.38153076171875
1760018020382,241856301,27537,12,0.83203125,-0.00396728515625,0.36492919921875
1760018020382,241856301,27537,13,0.86865234375,-0.01422119140625,0.36273193359375
1760018020382,241856301,27537,14,0.854248046875,-0.02081298828125,0.35467529296875
1760018020382,241856301,27537,15,0.85302734375,-0.04278564453125,0.36175537109375
1760018020382,241856301,27537,16,0.845947265625,-0.02496337890625,0.34808349609375
1760018020382,241856301,27537,17,0.8408203125,-0.05035400390625,0.36199951171875
1760018020382,241856301,27537,18,0.843994140625,-0.05792236328125,0.38055419921875
1760018020382,241856301,27537,19,0.84912109375,-0.06549072265625,0.36981201171875
1760018020382,241856301,27537,20,0.85546875,-0.05548095703125,0.37078857421875
1760018020382,241856301,27537,21,0.84814453125,-0.06549072265625,0.37518310546875
1760018020382,241856301,27537,22,0.857666015625,-0.06304931640625,0.37322998046875
1760018020382,241856301,27537,23,0.85205078125,-0.06500244140625,0.37615966796875
1760018020382,241856301,27537,24,0.854736328125,-0.07281494140625,0.36639404296875
1760018020382,241856301,27537,25,0.8642578125,-0.06817626953125,0.39031982421875
1760018020382,241856301,27537,26,0.860107421875,-0.06378173828125,0.38812255859375
1760018020382,241856301,27537,27,0.851318359375,-0.00323486328125,0.37957763671875
1760018020382,241856301,27537,28,0.83349609375,-0.03350830078125,0.36468505859375
1760018020382,241856301,27537,29,0.847412109375,-0.04620361328125,0.36737060546875
1760018020382,241856301,27537,30,0.8408203125,-0.02374267578125,0.36737060546875
1760018020382,241856301,27537,31,0.83154296875,-0.04229736328125,0.38031005859375
1760018023083,241858892,27538,0,0.834228515625,-0.05645751953125,0.37298583984375
1760018023083,241858892,27538,1,0.83544921875,-0.06451416015625,0.37518310546875
1760018023083,241858892,27538,2,0.82470703125,-0.07281494140625,0.40325927734375
1760018023083,241858892,27538,3,0.841064453125,-0.07672119140625,0.39276123046875
1760018023083,241858892,27538,4,0.853515625,-0.04718017578125,0.37567138671875
1760018023083,241858892,27538,5,0.85400390625,-0.07354736328125,0.37957763671875
1760018023083,241858892,27538,6,0.850830078125,-0.05670166015625,0.37957763671875
1760018023083,241858892,27538,7,0.84765625,-0.05767822265625,0.38934326171875
1760018023083,241858892,27538,8,0.851806640625,-0.06597900390625,0.38934326171875
1760018023083,241858892,27538,9,0.851806640625,-0.06719970703125,0.40325927734375
1760018023083,241858892,27538,10,0.8505859375,-0.05035400390625,0.41058349609375
1760018023083,241858892,27538,11,0.848876953125,-0.04449462890625,0.40521240234375
1760018023083,241858892,27538,12,0.83154296875,-0.02935791015625,0.38323974609375
1760018023083,241858892,27538,13,0.8271484375,-0.03912353515625,0.36932373046875
1760018023083,241858892,27538,14,0.834228515625,-0.04718017578125,0.38787841796875
1760018023083,241858892,27538,15,0.829345703125,-0.05889892578125,0.40423583984375
1760018023083,241858892,27538,16,0.833984375,-0.06280517578125,0.40765380859375
1760018023083,241858892,27538,17,0.820068359375,-0.06695556640625,0.38470458984375
1760018023083,241858892,27538,18,0.831298828125,-0.06427001953125,0.40618896484375
1760018023083,241858892,27538,19,0.816650390625,-0.08624267578125,0.41278076171875
1760018023083,241858892,27538,20,0.852783203125,-0.05816650390625,0.38006591796875
1760018023083,241858892,27538,21,0.8515625,-0.06964111328125,0.40252685546875
