receivedPhoneTimestamp,respeckTimestamp,packetSeqNum,sampleSeqNum,accelX,accelY,accelZ
1759938533929,6338761,1578,17,0.87353515625,-0.39532470703125,0.17108154296875
1759938533929,6338761,1578,18,0.853271484375,-0.37091064453125,0.18255615234375
1759938533929,6338761,1578,19,0.796630859375,-0.40191650390625,0.31634521484375
1759938533929,6338761,1578,20,0.884521484375,-0.45635986328125,0.22650146484375
1759938533929,6338761,1578,21,0.849365234375,-0.34967041015625,0.25604248046875
1759938533929,6338761,1578,22,0.796630859375,-0.37139892578125,0.25701904296875
1759938533929,6338761,1578,23,0.815185546875,-0.46490478515625,0.37322998046875
1759938533929,6338761,1578,24,0.87060546875,-0.37066650390625,0.24432373046875
1759938533929,6338761,1578,25,0.787353515625,-0.36285400390625,0.29339599609375
1759938533929,6338761,1578,26,0.77978515625,-0.40264892578125,0.36517333984375
1759938533929,6338761,1578,27,0.867919921875,-0.44805908203125,0.33123779296875
1759938533929,6338761,1578,28,0.791015625,-0.32305908203125,0.28265380859375
1759938533929,6338761,1578,29,0.795654296875,-0.38897705078125,0.31878662109375
1759938533929,6338761,1578,30,0.818115234375,-0.43707275390625,0.40203857421875
1759938533929,6338761,1578,31,0.857421875,-0.37115478515625,0.25457763671875
1759938536329,6341298,1579,0,0.810546875,-0.35943603515625,0.30950927734375
1759938536329,6341298,1579,1,0.79345703125,-0.38140869140625,0.33074951171875
1759938536329,6341298,1579,2,0.859375,-0.43804931640625,0.33367919921875
1759938536329,6341298,1579,3,0.839599609375,-0.34063720703125,0.25799560546875
1759938536329,6341298,1579,4,0.810791015625,-0.35797119140625,0.28656005859375
1759938536329,6341298,1579,5,0.805908203125,-0.42779541015625,0.37957763671875
1759938536329,6341298,1579,6,0.889892578125,-0.39019775390625,0.25189208984375
1759938536329,6341298,1579,7,0.80615234375,-0.33746337890625,0.28607177734375
1759938536329,6341298,1579,8,0.810546875,-0.39093017578125,0.31854248046875
1759938536329,6341298,1579,9,0.826416015625,-0.42462158203125,0.36199951171875
1759938536329,6341298,1579,10,0.85888671875,-0.35943603515625,0.26580810546875
1759938536329,6341298,1579,11,0.811767578125,-0.33526611328125,0.30780029296875
1759938536329,6341298,1579,12,0.77490234375,-0.39556884765625,0.33319091796875
1759938536329,6341298,1579,13,0.87646484375,-0.42755126953125,0.34832763671875
1759938536329,6341298,1579,14,0.83447265625,-0.33111572265625,0.26898193359375
1759938536329,6341298,1579,15,0.79931640625,-0.34454345703125,0.31121826171875
1759938536329,6341298,1579,16,0.790283203125,-0.39678955078125,0.35296630859375
1759938536329,6341298,1579,17,0.884765625,-0.42803955078125,0.34124755859375
1759938536329,6341298,1579,18,0.819580078125,-0.31329345703125,0.26214599609375
1759938536329,6341298,1579,19,0.795166015625,-0.35626220703125,0.33050537109375
1759938536329,6341298,1579,20,0.798095703125,-0.41387939453125,0.34857177734375
1759938536329,6341298,1579,21,0.885009765625,-0.40509033203125,0.34368896484375
1759938536329,6341298,1579,22,0.801025390625,-0.34967041015625,0.27630615234375
1759938536329,6341298,1579,23,0.822509765625,-0.34185791015625,0.32122802734375
1759938536329,6341298,1579,24,0.796142578125,-0.40533447265625,0.32781982421875
1759938536329,6341298,1579,25,0.872802734375,-0.41192626953125,0.35101318359375
1759938536329,6341298,1579,26,0.821533203125,-0.33502197265625,0.25604248046875
1759938536329,6341298,1579,27,0.81005859375,-0.36016845703125,0.31463623046875
1759938536329,6341298,1579,28,0.815185546875,-0.42437744140625,0.38128662109375
1759938536329,6341298,1579,29,0.87744140625,-0.38800048828125,0.28070068359375
1759938536329,6341298,1579,30,0.80322265625,-0.33282470703125,0.29608154296875
1759938536329,6341298,1579,31,0.810302734375,-0.36480712890625,0.31195068359375
1759938538932,6343835,1580,0,0.833251953125,-0.42974853515625,0.40496826171875
1759938538932,6343835,1580,1,0.84912109375,-0.36627197265625,0.25579833984375
1759938538932,6343835,1580,2,0.790283203125,-0.33087158203125,0.31341552734375
1759938538932,6343835,1580,3,0.802734375,-0.40728759765625,0.35882568359375
1759938538932,6343835,1580,4,0.85302734375,-0.42999267578125,0.37054443359375
1759938538932,6343835,1580,5,0.83154296875,-0.30841064453125,0.25164794921875
1759938538932,6343835,1580,6,0.78955078125,-0.36920166015625,0.34783935546875
1759938538932,6343835,1580,7,0.8056640625,-0.41680908203125,0.33831787109375
1759938538932,6343835,1580,8,0.877197265625,-0.41461181640625,0.36907958984375
1759938538932,6343835,1580,9,0.798095703125,-0.34527587890625,0.27752685546875
1759938538932,6343835,1580,10,0.806396484375,-0.34576416015625,0.31707763671875
1759938538932,6343835,1580,11,0.810546875,-0.40411376953125,0.34490966796875
1759938538932,6343835,1580,12,0.85546875,-0.43951416015625,0.35955810546875
1759938538932,6343835,1580,13,0.81298828125,-0.31817626953125,0.23822021484375
1759938538932,6343835,1580,14,0.836181640625,-0.37115478515625,0.34539794921875
1759938538932,6343835,1580,15,0.77783203125,-0.41070556640625,0.34466552734375
1759938538932,6343835,1580,16,0.883056640625,-0.39874267578125,0.31024169921875
1759938538932,6343835,1580,17,0.804443359375,-0.33746337890625,0.27703857421875
1759938538932,6343835,1580,18,0.823486328125,-0.37310791015625,0.31170654296875
1759938538932,6343835,1580,19,0.805908203125,-0.40631103515625,0.31072998046875
1759938538932,6343835,1580,20,0.861328125,-0.41754150390625,0.33074951171875
1759938538932,6343835,1580,21,0.81103515625,-0.37945556640625,0.28997802734375
1759938538932,6343835,1580,22,0.82275390625,-0.34942626953125,0.29168701171875
1759938538932,6343835,1580,23,0.80419921875,-0.40362548828125,0.32244873046875
1759938538932,6343835,1580,24,0.8505859375,-0.42633056640625,0.33050537109375
1759938538932,6343835,1580,25,0.828125,-0.35797119140625,0.27166748046875
1759938538932,6343835,1580,26,0.8046875,-0.37701416015625,0.29583740234375
1759938538932,6343835,1580,27,0.808349609375,-0.40338134765625,0.33050537109375
1759938538932,6343835,1580,28,0.864990234375,-0.42120361328125,0.30755615234375
1759938538932,6343835,1580,29,0.81640625,-0.34967041015625,0.28167724609375
1759938538932,6343835,1580,30,0.806884765625,-0.39141845703125,0.29071044921875
1759938538932,6343835,1580,31,0.83447265625,-0.41021728515625,0.34783935546875
1759938541521,6346372,1581,0,0.85400390625,-0.39288330078125,0.26727294921875
1759938541521,6346372,1581,1,0.802978515625,-0.36798095703125,0.30853271484375
1759938541521,6346372,1581,2,0.82470703125,-0.39337158203125,0.29730224609375
1759938541521,6346372,1581,3,0.82763671875,-0.39093017578125,0.34613037109375
1759938541521,6346372,1581,4,0.83642578125,-0.38848876953125,0.28289794921875
1759938541521,6346372,1581,5,0.8193359375,-0.35870361328125,0.30682373046875
1759938541521,6346372,1581,6,0.792236328125,-0.37603759765625,0.35345458984375
1759938541521,6346372,1581,7,0.835693359375,-0.42974853515625,0.36224365234375
1759938541521,6346372,1581,8,0.843505859375,-0.33624267578125,0.22430419921875
1759938541521,6346372,1581,9,0.793701171875,-0.38897705078125,0.35394287109375
1759938541521,6346372,1581,10,0.806396484375,-0.41680908203125,0.37469482421875
1759938541521,6346372,1581,11,0.85498046875,-0.40728759765625,0.28778076171875
1759938541521,6346372,1581,12,0.8203125,-0.32818603515625,0.30950927734375
1759938541521,6346372,1581,13,0.785888671875,-0.39581298828125,0.35638427734375
1759938541521,6346372,1581,14,0.815185546875,-0.43634033203125,0.40643310546875
1759938541521,6346372,1581,15,0.833984375,-0.33746337890625,0.26263427734375
1759938541521,6346372,1581,16,0.7939453125,-0.38531494140625,0.36273193359375
1759938541521,6346372,1581,17,0.79150390625,-0.41949462890625,0.36712646484375
1759938541521,6346372,1581,18,0.84619140625,-0.41168212890625,0.36370849609375
1759938541521,6346372,1581,19,0.791015625,-0.35284423828125,0.30023193359375
1759938541521,6346372,1581,20,0.818115234375,-0.37969970703125,0.36737060546875
1759938541521,6346372,1581,21,0.7626953125,-0.40216064453125,0.36273193359375
1759938541521,6346372,1581,22,0.84423828125,-0.41461181640625,0.34564208984375
1759938541521,6346372,1581,23,0.802001953125,-0.35699462890625,0.30291748046875
1759938541521,6346372,1581,24,0.808349609375,-0.37945556640625,0.35345458984375
1759938541521,6346372,1581,25,0.775634765625,-0.41876220703125,0.35369873046875
1759938541521,6346372,1581,26,0.857666015625,-0.42755126953125,0.35906982421875
1759938541521,6346372,1581,27,0.7958984375,-0.34259033203125,0.26556396484375
1759938541521,6346372,1581,28,0.82421875,-0.37750244140625,0.34979248046875
1759938541521,6346372,1581,29,0.778564453125,-0.43780517578125,0.32830810546875
1759938541521,6346372,1581,30,0.865234375,-0.42437744140625,0.33465576171875
1759938541521,6346372,1581,31,0.802001953125,-0.33428955078125,0.25823974609375
1759938543922,6348909,1582,0,0.80908203125,-0.39776611328125,0.33734130859375
1759938543922,6348909,1582,1,0.80224609375,-0.44366455078125,0.35980224609375
1759938543922,6348909,1582,2,0.86962890625,-0.39630126953125,0.28265380859375
1759938543922,6348909,1582,3,0.76904296875,-0.35015869140625,0.31072998046875
1759938543922,6348909,1582,4,0.83935546875,-0.40289306640625,0.32000732421875
1759938543922,6348909,1582,5,0.802734375,-0.43341064453125,0.38250732421875
1759938543922,6348909,1582,6,0.833740234375,-0.36822509765625,0.26190185546875
1759938543922,6348909,1582,7,0.7939453125,-0.37774658203125,0.33782958984375
1759938543922,6348909,1582,8,0.81103515625,-0.40313720703125,0.33270263671875
1759938543922,6348909,1582,9,0.834228515625,-0.42071533203125,0.37860107421875
1759938543922,6348909,1582,10,0.811279296875,-0.34771728515625,0.28533935546875
1759938543922,6348909,1582,11,0.79736328125,-0.37188720703125,0.34881591796875
1759938543922,6348909,1582,12,0.81396484375,-0.41412353515625,0.33074951171875
1759938543922,6348909,1582,13,0.8349609375,-0.41583251953125,0.35760498046875
1759938543922,6348909,1582,14,0.8095703125,-0.35284423828125,0.29705810546875
1759938543922,6348909,1582,15,0.805419921875,-0.37603759765625,0.36932373046875
1759938543922,6348909,1582,16,0.7919921875,-0.39874267578125,0.32513427734375
1759938543922,6348909,1582,17,0.840576171875,-0.40948486328125,0.36004638671875
1759938543922,6348909,1582,18,0.80419921875,-0.37921142578125,0.31170654296875
1759938543922,6348909,1582,19,0.811279296875,-0.35772705078125,0.35076904296875
1759938543922,6348909,1582,20,0.794677734375,-0.38555908203125,0.32611083984375
1759938543922,6348909,1582,21,0.830810546875,-0.42315673828125,0.37396240234375
1759938543922,6348909,1582,22,0.822998046875,-0.37066650390625,0.28778076171875
1759938543922,6348909,1582,23,0.81103515625,-0.35430908203125,0.34393310546875
1759938543922,6348909,1582,24,0.801513671875,-0.39776611328125,0.31463623046875
1759938543922,6348909,1582,25,0.8447265625,-0.40728759765625,0.34490966796875
1759938543922,6348909,1582,26,0.818115234375,-0.40289306640625,0.30853271484375
1759938543922,6348909,1582,27,0.81396484375,-0.35821533203125,0.33270263671875
1759938543922,6348909,1582,28,0.81103515625,-0.38848876953125,0.30877685546875
1759938543922,6348909,1582,29,0.813232421875,-0.41217041015625,0.34124755859375
1759938543922,6348909,1582,30,0.832275390625,-0.41534423828125,0.31976318359375
1759938543922,6348909,1582,31,0.812744140625,-0.35382080078125,0.31365966796875
1759938546931,6351446,1583,0,0.810302734375,-0.38531494140625,0.31951904296875
1759938546931,6351446,1583,1,0.794921875,-0.42022705078125,0.35882568359375
1759938546931,6351446,1583,2,0.839599609375,-0.39947509765625,0.32196044921875
1759938546931,6351446,1583,3,0.7978515625,-0.36676025390625,0.33050537109375
1759938546931,6351446,1583,4,0.81201171875,-0.37432861328125,0.30267333984375
1759938546931,6351446,1583,5,0.820068359375,-0.42584228515625,0.37542724609375
1759938546931,6351446,1583,6,0.826904296875,-0.39605712890625,0.27972412109375
1759938546931,6351446,1583,7,0.810546875,-0.35968017578125,0.32391357421875
1759938546931,6351446,1583,8,0.806396484375,-0.39556884765625,0.32611083984375
1759938546931,6351446,1583,9,0.83544921875,-0.41656494140625,0.34661865234375
1759938546931,6351446,1583,10,0.817138671875,-0.38946533203125,0.28143310546875
1759938546931,6351446,1583,11,0.806640625,-0.37213134765625,0.34686279296875
1759938546931,6351446,1583,12,0.7900390625,-0.39678955078125,0.32977294921875
1759938546931,6351446,1583,13,0.846923828125,-0.40142822265625,0.34613037109375
1759938546931,6351446,1583,14,0.812255859375,-0.38922119140625,0.29681396484375
1759938546931,6351446,1583,15,0.81298828125,-0.36968994140625,0.34588623046875
1759938546931,6351446,1583,16,0.791748046875,-0.39093017578125,0.31341552734375
1759938546931,6351446,1583,17,0.852783203125,-0.40313720703125,0.33001708984375
1759938546931,6351446,1583,18,0.819580078125,-0.39532470703125,0.31463623046875
1759938546931,6351446,1583,19,0.8095703125,-0.37652587890625,0.32073974609375
1759938546931,6351446,1583,20,0.807861328125,-0.38922119140625,0.31268310546875
1759938551731,6356520,1585,28,0.775634765625,-0.39996337890625,0.30120849609375
1759938551731,6356520,1585,29,0.872314453125,-0.45269775390625,0.32904052734375
1759938551731,6356520,1585,30,0.859130859375,-0.33819580078125,0.22332763671875
1759938551731,6356520,1585,31,0.776123046875,-0.37261962890625,0.29681396484375
1759938554129,6359057,1586,0,0.84228515625,-0.42047119140625,0.39007568359375
1759938554129,6359057,1586,1,0.855224609375,-0.38189697265625,0.22943115234375
1759938554129,6359057,1586,2,0.81201171875,-0.32794189453125,0.27484130859375
1759938554129,6359057,1586,3,0.807861328125,-0.42559814453125,0.36297607421875
1759938554129,6359057,1586,4,0.842529296875,-0.41802978515625,0.33612060546875
1759938554129,6359057,1586,5,0.848388671875,-0.32647705078125,0.25897216796875
1759938554129,6359057,1586,6,0.7958984375,-0.36260986328125,0.30267333984375
1759938554129,6359057,1586,7,0.82958984375,-0.43121337890625,0.37298583984375
1759938554129,6359057,1586,8,0.851806640625,-0.39801025390625,0.28070068359375
1759938554129,6359057,1586,9,0.813720703125,-0.31182861328125,0.26165771484375
1759938554129,6359057,1586,10,0.803466796875,-0.40753173828125,0.35052490234375
1759938554129,6359057,1586,11,0.841064453125,-0.43927001953125,0.35345458984375
1759938554129,6359057,1586,12,0.84912109375,-0.32403564453125,0.24896240234375
1759938554129,6359057,1586,13,0.781982421875,-0.37774658203125,0.31903076171875
1759938554129,6359057,1586,14,0.817626953125,-0.44415283203125,0.41131591796875
1759938554129,6359057,1586,15,0.8623046875,-0.36773681640625,0.24334716796875
1759938554129,6359057,1586,16,0.78271484375,-0.33990478515625,0.30828857421875
1759938554129,6359057,1586,17,0.81298828125,-0.41925048828125,0.38616943359375
1759938554129,6359057,1586,18,0.8447265625,-0.41949462890625,0.31658935546875
1759938554129,6359057,1586,19,0.82470703125,-0.33062744140625,0.28729248046875
1759938554129,6359057,1586,20,0.789794921875,-0.37310791015625,0.31878662109375
1759938554129,6359057,1586,21,0.8173828125,-0.43170166015625,0.39105224609375
1759938554129,6359057,1586,22,0.862548828125,-0.38897705078125,0.28460693359375
1759938554129,6359057,1586,23,0.801025390625,-0.32623291015625,0.28900146484375
1759938554129,6359057,1586,24,0.8037109375,-0.39117431640625,0.33782958984375
1759938554129,6359057,1586,25,0.83056640625,-0.45343017578125,0.40179443359375
1759938554129,6359057,1586,26,0.850830078125,-0.34259033203125,0.26800537109375
1759938554129,6359057,1586,27,0.78271484375,-0.34844970703125,0.31243896484375
1759938554129,6359057,1586,28,0.804931640625,-0.41387939453125,0.37347412109375
1759938554129,6359057,1586,29,0.849609375,-0.41680908203125,0.34075927734375
1759938554129,6359057,1586,30,0.81396484375,-0.31866455078125,0.27484130859375
1759938554129,6359057,1586,31,0.795654296875,-0.37139892578125,0.32440185546875
1759938556733,6361594,1587,0,0.8251953125,-0.45318603515625,0.38909912109375
1759938556733,6361594,1587,1,0.863037109375,-0.37213134765625,0.27215576171875
1759938556733,6361594,1587,2,0.7890625,-0.33331298828125,0.28192138671875
1759938556733,6361594,1587,3,0.833740234375,-0.39459228515625,0.32025146484375
1759938556733,6361594,1587,4,0.83056640625,-0.44342041015625,0.37152099609375
1759938556733,6361594,1587,5,0.84033203125,-0.35333251953125,0.27362060546875
1759938556733,6361594,1587,6,0.800048828125,-0.35186767578125,0.29705810546875
1759938556733,6361594,1587,7,0.813232421875,-0.39849853515625,0.33148193359375
1759938556733,6361594,1587,8,0.8447265625,-0.44317626953125,0.37957763671875
1759938556733,6361594,1587,9,0.827880859375,-0.34600830078125,0.26239013671875
1759938556733,6361594,1587,10,0.785400390625,-0.34722900390625,0.30145263671875
1759938556733,6361594,1587,11,0.812744140625,-0.41607666015625,0.35198974609375
1759938556733,6361594,1587,12,0.852783203125,-0.43463134765625,0.36151123046875
1759938556733,6361594,1587,13,0.815673828125,-0.32403564453125,0.26702880859375
1759938556733,6361594,1587,14,0.79931640625,-0.36822509765625,0.32366943359375
1759938556733,6361594,1587,15,0.8203125,-0.41632080078125,0.32733154296875
1759938556733,6361594,1587,16,0.85546875,-0.43341064453125,0.36444091796875
1759938556733,6361594,1587,17,0.809326171875,-0.32867431640625,0.27899169921875
1759938556733,6361594,1587,18,0.80224609375,-0.36529541015625,0.31463623046875
1759938556733,6361594,1587,19,0.816162109375,-0.40313720703125,0.34075927734375
1759938556733,6361594,1587,20,0.84228515625,-0.43121337890625,0.36932373046875
1759938556733,6361594,1587,21,0.82177734375,-0.32965087890625,0.28875732421875
1759938556733,6361594,1587,22,0.797119140625,-0.35992431640625,0.32489013671875
1759938556733,6361594,1587,23,0.812744140625,-0.39434814453125,0.33636474609375
1759938556733,6361594,1587,24,0.839111328125,-0.43365478515625,0.36859130859375
1759938556733,6361594,1587,25,0.827880859375,-0.34356689453125,0.27752685546875
1759938556733,6361594,1587,26,0.78955078125,-0.34722900390625,0.30828857421875
1759938556733,6361594,1587,27,0.82275390625,-0.40118408203125,0.33612060546875
1759938556733,6361594,1587,28,0.8515625,-0.44976806640625,0.36810302734375
1759938556733,6361594,1587,29,0.8212890625,-0.33892822265625,0.27996826171875
1759938556733,6361594,1587,30,0.80029296875,-0.35113525390625,0.30731201171875
1759938556733,6361594,1587,31,0.8173828125,-0.40240478515625,0.32684326171875
1759938559331,6364131,1588,0,0.836181640625,-0.44635009765625,0.38055419921875
1759938559331,6364131,1588,1,0.819091796875,-0.34552001953125,0.26214599609375
1759938559331,6364131,1588,2,0.80126953125,-0.35162353515625,0.31170654296875
1759938559331,6364131,1588,3,0.8076171875,-0.40582275390625,0.33758544921875
1759938559331,6364131,1588,4,0.8515625,-0.43853759765625,0.37347412109375
1759938559331,6364131,1588,5,0.81298828125,-0.33428955078125,0.24920654296875
1759938559331,6364131,1588,6,0.8173828125,-0.36895751953125,0.33758544921875
1759938559331,6364131,1588,7,0.80859375,-0.40533447265625,0.31658935546875
1759938559331,6364131,1588,8,0.85107421875,-0.42462158203125,0.33489990234375
1759938559331,6364131,1588,9,0.817138671875,-0.33282470703125,0.27581787109375
1759938559331,6364131,1588,10,0.814453125,-0.37335205078125,0.30194091796875
1759938559331,6364131,1588,11,0.815673828125,-0.40802001953125,0.32904052734375
1759938559331,6364131,1588,12,0.85595703125,-0.42242431640625,0.33758544921875
1759938559331,6364131,1588,13,0.817138671875,-0.33673095703125,0.29241943359375
1759938559331,6364131,1588,14,0.799560546875,-0.35479736328125,0.30682373046875
1759938559331,6364131,1588,15,0.821044921875,-0.41070556640625,0.31488037109375
1759938559331,6364131,1588,16,0.854248046875,-0.42510986328125,0.35906982421875
1759938559331,6364131,1588,17,0.818603515625,-0.36651611328125,0.27581787109375
1759938559331,6364131,1588,18,0.80859375,-0.33868408203125,0.31585693359375
1759938559331,6364131,1588,19,0.82080078125,-0.38848876953125,0.29754638671875
1759938559331,6364131,1588,20,0.838623046875,-0.43829345703125,0.37518310546875
1759938559331,6364131,1588,21,0.83056640625,-0.36407470703125,0.27508544921875
1759938559331,6364131,1588,22,0.80712890625,-0.34552001953125,0.31463623046875
1759938559331,6364131,1588,23,0.815185546875,-0.38897705078125,0.32122802734375
1759938559331,6364131,1588,24,0.83642578125,-0.45025634765625,0.39276123046875
1759938559331,6364131,1588,25,0.839111328125,-0.32208251953125,0.23455810546875
1759938559331,6364131,1588,26,0.791748046875,-0.36236572265625,0.34027099609375
1759938559331,6364131,1588,27,0.806884765625,-0.41656494140625,0.34490966796875
1759938559331,6364131,1588,28,0.871826171875,-0.41387939453125,0.33685302734375
1759938559331,6364131,1588,29,0.7939453125,-0.33306884765625,0.28924560546875
1759938559331,6364131,1588,30,0.808349609375,-0.37261962890625,0.32073974609375
1759938559331,6364131,1588,31,0.826171875,-0.42681884765625,0.36419677734375
1759938561728,6366668,1589,0,0.845947265625,-0.39093017578125,0.29534912109375
1759938561728,6366668,1589,1,0.802490234375,-0.34600830078125,0.31072998046875
1759938561728,6366668,1589,2,0.81640625,-0.37457275390625,0.31243896484375
1759938561728,6366668,1589,3,0.82763671875,-0.43463134765625,0.36248779296875
1759938561728,6366668,1589,4,0.84912109375,-0.36505126953125,0.26947021484375
1759938561728,6366668,1589,5,0.79541015625,-0.36895751953125,0.32537841796875
1759938561728,6366668,1589,6,0.8154296875,-0.40704345703125,0.32977294921875
1759938561728,6366668,1589,7,0.84521484375,-0.40460205078125,0.33319091796875
1759938561728,6366668,1589,8,0.81640625,-0.35162353515625,0.28997802734375
1759938561728,6366668,1589,9,0.800537109375,-0.37847900390625,0.31878662109375
1759938561728,6366668,1589,10,0.81005859375,-0.40386962890625,0.34197998046875
1759938561728,6366668,1589,11,0.84375,-0.41680908203125,0.33929443359375
1759938561728,6366668,1589,12,0.8125,-0.34332275390625,0.29510498046875
1759938561728,6366668,1589,13,0.805908203125,-0.36285400390625,0.32879638671875
1759938561728,6366668,1589,14,0.81591796875,-0.39703369140625,0.32489013671875
1759938561728,6366668,1589,15,0.825439453125,-0.41754150390625,0.33294677734375
1759938561728,6366668,1589,16,0.831787109375,-0.39947509765625,0.34490966796875
1759938561728,6366668,1589,17,0.81005859375,-0.33380126953125,0.30902099609375
1759938561728,6366668,1589,18,0.80810546875,-0.35797119140625,0.29779052734375
1759938561728,6366668,1589,19,0.821044921875,-0.42413330078125,0.35272216796875
1759938561728,6366668,1589,20,0.847900390625,-0.41632080078125,0.33172607421875
1759938561728,6366668,1589,21,0.81787109375,-0.32525634765625,0.28021240234375
1759938561728,6366668,1589,22,0.80322265625,-0.36798095703125,0.32342529296875
1759938561728,6366668,1589,23,0.8232421875,-0.43316650390625,0.36492919921875
1759938561728,6366668,1589,24,0.859130859375,-0.36163330078125,0.25042724609375
1759938561728,6366668,1589,25,0.79150390625,-0.36016845703125,0.32489013671875
1759938561728,6366668,1589,26,0.809326171875,-0.42706298828125,0.36932373046875
1759938561728,6366668,1589,27,0.875244140625,-0.37164306640625,0.26849365234375
1759938561728,6366668,1589,28,0.784912109375,-0.35943603515625,0.29608154296875
1759938561728,6366668,1589,29,0.822998046875,-0.39703369140625,0.33856201171875
1759938561728,6366668,1589,30,0.838134765625,-0.41705322265625,0.33245849609375
1759938561728,6366668,1589,31,0.82958984375,-0.34283447265625,0.26800537109375
1759938564334,6369205,1590,0,0.798828125,-0.39459228515625,0.31707763671875
1759938564334,6369205,1590,1,0.836181640625,-0.42291259765625,0.35906982421875
1759938564334,6369205,1590,2,0.8515625,-0.36920166015625,0.25164794921875
1759938564334,6369205,1590,3,0.790283203125,-0.35455322265625,0.30072021484375
1759938564334,6369205,1590,4,0.8212890625,-0.40948486328125,0.31488037109375
1759938564334,6369205,1590,5,0.854248046875,-0.42803955078125,0.33758544921875
1759938564334,6369205,1590,6,0.8359375,-0.33624267578125,0.24407958984375
1759938564334,6369205,1590,7,0.801025390625,-0.37896728515625,0.30999755859375
1759938564334,6369205,1590,8,0.827392578125,-0.42047119140625,0.33660888671875
1759938564334,6369205,1590,9,0.86376953125,-0.39288330078125,0.28387451171875
1759938564334,6369205,1590,10,0.8046875,-0.34429931640625,0.28826904296875
1759938564334,6369205,1590,11,0.834228515625,-0.38018798828125,0.29656982421875
1759938564334,6369205,1590,12,0.82568359375,-0.41241455078125,0.34759521484375
1759938564334,6369205,1590,13,0.84716796875,-0.38531494140625,0.27825927734375
1759938564334,6369205,1590,14,0.809326171875,-0.34747314453125,0.31390380859375
1759938564334,6369205,1590,15,0.82861328125,-0.38385009765625,0.30511474609375
1759938564334,6369205,1590,16,0.818603515625,-0.41485595703125,0.33563232421875
1759938564334,6369205,1590,17,0.844482421875,-0.38092041015625,0.27484130859375
1759938564334,6369205,1590,18,0.80810546875,-0.34576416015625,0.31805419921875
1759938564334,6369205,1590,19,0.824951171875,-0.36846923828125,0.30242919921875
1759938564334,6369205,1590,20,0.827880859375,-0.42242431640625,0.34368896484375
1759938564334,6369205,1590,21,0.84326171875,-0.38531494140625,0.28509521484375
1759938564334,6369205,1590,22,0.8134765625,-0.34429931640625,0.30169677734375
1759938564334,6369205,1590,23,0.82666015625,-0.38726806640625,0.30609130859375
1759938564334,6369205,1590,24,0.828369140625,-0.41241455078125,0.32611083984375
1759938564334,6369205,1590,25,0.8447265625,-0.39630126953125,0.28778076171875
1759938564334,6369205,1590,26,0.8271484375,-0.34161376953125,0.28582763671875
1759938564334,6369205,1590,27,0.801025390625,-0.37823486328125,0.32147216796875
1759938564334,6369205,1590,28,0.839599609375,-0.42315673828125,0.34075927734375
1759938564334,6369205,1590,29,0.851318359375,-0.34771728515625,0.26312255859375
1759938564334,6369205,1590,30,0.802734375,-0.36895751953125,0.31121826171875
1759938564334,6369205,1590,31,0.821044921875,-0.39849853515625,0.30999755859375
1759938567131,6371742,1591,0,0.861083984375,-0.40631103515625,0.32659912109375
1759938567131,6371742,1591,1,0.822998046875,-0.37774658203125,0.28875732421875
1759938567131,6371742,1591,2,0.821533203125,-0.34820556640625,0.31781005859375
1759938567131,6371742,1591,3,0.818603515625,-0.37896728515625,0.28997802734375
1759938567131,6371742,1591,4,0.826416015625,-0.40997314453125,0.33148193359375
1759938567131,6371742,1591,5,0.825439453125,-0.39556884765625,0.31878662109375
1759938567131,6371742,1591,6,0.837158203125,-0.34307861328125,0.30657958984375
1759938567131,6371742,1591,7,0.806396484375,-0.36944580078125,0.29461669921875
1759938567131,6371742,1591,8,0.826904296875,-0.41290283203125,0.32781982421875
1759938567131,6371742,1591,9,0.847412109375,-0.40118408203125,0.30902099609375
1759938567131,6371742,1591,10,0.818359375,-0.34893798828125,0.29901123046875
1759938567131,6371742,1591,11,0.818359375,-0.37677001953125,0.29998779296875
1759938567131,6371742,1591,12,0.812744140625,-0.40997314453125,0.30975341796875
1759938567131,6371742,1591,13,0.85205078125,-0.40093994140625,0.32025146484375
1759938567131,6371742,1591,14,0.8095703125,-0.36993408203125,0.28680419921875
1759938567131,6371742,1591,15,0.82177734375,-0.36944580078125,0.31903076171875
1759938567131,6371742,1591,16,0.814453125,-0.40338134765625,0.30706787109375
1759938567131,6371742,1591,17,0.85546875,-0.39434814453125,0.32000732421875
1759938567131,6371742,1591,18,0.814453125,-0.37066650390625,0.33465576171875
1759938567131,6371742,1591,19,0.81298828125,-0.37237548828125,0.29217529296875
1759938567131,6371742,1591,20,0.830322265625,-0.37945556640625,0.32659912109375
1759938567131,6371742,1591,21,0.829833984375,-0.39776611328125,0.29071044921875
1759938567131,6371742,1591,22,0.820068359375,-0.36724853515625,0.34222412109375
1759938567131,6371742,1591,23,0.818115234375,-0.37921142578125,0.30853271484375
1759938567131,6371742,1591,24,0.832763671875,-0.39239501953125,0.31878662109375
