receivedPhoneTimestamp,respeckTimestamp,packetSeqNum,sampleSeqNum,accelX,accelY,accelZ
1759678140113,865921622,13514,0,-0.154296875,-1.02569580078125,-0.05963134765625
1759678140113,865921622,13514,1,-0.159912109375,-1.02130126953125,-0.06402587890625
1759678140113,865921622,13514,2,-0.156005859375,-1.01324462890625,-0.07354736328125
1759678140113,865921622,13514,3,-0.14501953125,-1.00201416015625,-0.06744384765625
1759678140113,865921622,13514,4,-0.1513671875,-1.01593017578125,-0.09234619140625
1759678140113,865921622,13514,5,-0.158447265625,-1.04180908203125,-0.07110595703125
1759678140113,865921622,13514,6,-0.158203125,-1.02618408203125,-0.05645751953125
1759678140113,865921622,13514,7,-0.152099609375,-1.03082275390625,-0.05230712890625
1759678140113,865921622,13514,8,-0.170166015625,-1.02838134765625,-0.05377197265625
1759678140113,865921622,13514,9,-0.162109375,-1.02667236328125,-0.06109619140625
1759678140113,865921622,13514,10,-0.184326171875,-1.03277587890625,-0.05914306640625
1759678140113,865921622,13514,11,-0.176513671875,-1.02667236328125,-0.06475830078125
1759678140113,865921622,13514,12,-0.173095703125,-1.03326416015625,-0.05499267578125
1759678140113,865921622,13514,13,-0.1796875,-1.02886962890625,-0.05767822265625
1759678140113,865921622,13514,14,-0.1884765625,-1.01666259765625,-0.05303955078125
1759678140113,865921622,13514,15,-0.181640625,-1.03668212890625,-0.05035400390625
1759678140113,865921622,13514,16,-0.1845703125,-1.04180908203125,-0.03570556640625
1759678140113,865921622,13514,17,-0.176025390625,-1.02301025390625,-0.05963134765625
1759678140113,865921622,13514,18,-0.17138671875,-1.02130126953125,-0.06256103515625
1759678140113,865921622,13514,19,-0.1630859375,-1.02740478515625,-0.08233642578125
1759678140113,865921622,13514,20,-0.172607421875,-1.03350830078125,-0.08282470703125
1759678140113,865921622,13514,21,-0.165771484375,-1.01959228515625,-0.07794189453125
1759678140113,865921622,13514,22,-0.175048828125,-1.03009033203125,-0.06182861328125
1759678140113,865921622,13514,23,-0.171142578125,-1.02008056640625,-0.06524658203125
1759678140113,865921622,13514,24,-0.173095703125,-1.02178955078125,-0.07501220703125
1759678140113,865921622,13514,25,-0.171142578125,-1.02130126953125,-0.07183837890625
1759678140113,865921622,13514,26,-0.169677734375,-1.01568603515625,-0.08526611328125
1759678140113,865921622,13514,27,-0.15869140625,-1.02618408203125,-0.08917236328125
1759678140113,865921622,13514,28,-0.167724609375,-0.98443603515625,-0.07989501953125
1759678140113,865921622,13514,29,-0.164306640625,-1.00860595703125,-0.08746337890625
1759678140113,865921622,13514,30,-0.164794921875,-1.03009033203125,-0.07672119140625
1759678140113,865921622,13514,31,-0.15673828125,-1.03668212890625,-0.06842041015625
1759678142636,865924159,13515,0,-0.173828125,-1.03448486328125,-0.07232666015625
1759678142636,865924159,13515,1,-0.17041015625,-1.03643798828125,-0.06695556640625
1759678142636,865924159,13515,2,-0.173583984375,-1.02789306640625,-0.07452392578125
1759678142636,865924159,13515,3,-0.177490234375,-1.01983642578125,-0.07208251953125
1759678142636,865924159,13515,4,-0.18310546875,-1.02545166015625,-0.07012939453125
1759678142636,865924159,13515,5,-0.174072265625,-1.02716064453125,-0.07647705078125
1759678142636,865924159,13515,6,-0.169921875,-1.02667236328125,-0.08160400390625
1759678142636,865924159,13515,7,-0.175537109375,-1.03179931640625,-0.07623291015625
1759678142636,865924159,13515,8,-0.18115234375,-1.02593994140625,-0.08135986328125
1759678142636,865924159,13515,9,-0.173828125,-1.02716064453125,-0.08599853515625
1759678142636,865924159,13515,10,-0.168212890625,-1.04327392578125,-0.07257080078125
1759678142636,865924159,13515,11,-0.168212890625,-1.02691650390625,-0.09161376953125
1759678142636,865924159,13515,12,-0.180908203125,-1.02667236328125,-0.10650634765625
1759678142636,865924159,13515,13,-0.16162109375,-1.02960205078125,-0.10308837890625
1759678142636,865924159,13515,14,-0.16162109375,-1.02789306640625,-0.10943603515625
1759678142636,865924159,13515,15,-0.1630859375,-1.02862548828125,-0.10382080078125
1759678142636,865924159,13515,16,-0.162353515625,-1.02398681640625,-0.10845947265625
1759678142636,865924159,13515,17,-0.15966796875,-1.02301025390625,-0.10333251953125
1759678142636,865924159,13515,18,-0.1591796875,-1.01812744140625,-0.10137939453125
1759678142636,865924159,13515,19,-0.158935546875,-1.01470947265625,-0.10308837890625
1759678142636,865924159,13515,20,-0.15771484375,-1.01837158203125,-0.11407470703125
1759678142636,865924159,13515,21,-0.162353515625,-1.00543212890625,-0.10772705078125
1759678142636,865924159,13515,22,-0.15625,-1.01617431640625,-0.11285400390625
1759678142636,865924159,13515,23,-0.1572265625,-1.01226806640625,-0.12164306640625
1759678142636,865924159,13515,24,-0.160400390625,-1.02667236328125,-0.10845947265625
1759678142636,865924159,13515,25,-0.16259765625,-1.03253173828125,-0.10821533203125
1759678142636,865924159,13515,26,-0.16259765625,-1.03228759765625,-0.10186767578125
1759678142636,865924159,13515,27,-0.16845703125,-1.02423095703125,-0.10382080078125
1759678142636,865924159,13515,28,-0.1708984375,-1.02569580078125,-0.10040283203125
1759678142636,865924159,13515,29,-0.1689453125,-1.03106689453125,-0.09503173828125
1759678142636,865924159,13515,30,-0.171875,-1.02691650390625,-0.10577392578125
1759678142636,865924159,13515,31,-0.179443359375,-1.02471923828125,-0.11285400390625
1759678145155,865926696,13516,0,-0.1748046875,-1.02471923828125,-0.11114501953125
1759678145155,865926696,13516,1,-0.17333984375,-1.02471923828125,-0.11309814453125
1759678145155,865926696,13516,2,-0.171630859375,-1.02813720703125,-0.11749267578125
1759678145155,865926696,13516,3,-0.173583984375,-1.02081298828125,-0.11309814453125
1759678145155,865926696,13516,4,-0.169677734375,-1.03033447265625,-0.11895751953125
1759678145155,865926696,13516,5,-0.166748046875,-1.04449462890625,-0.10357666015625
1759678145155,865926696,13516,6,-0.1650390625,-1.02642822265625,-0.12335205078125
1759678145155,865926696,13516,7,-0.1572265625,-1.02667236328125,-0.12506103515625
1759678145155,865926696,13516,8,-0.167724609375,-1.03253173828125,-0.11187744140625
1759678145155,865926696,13516,9,-0.16357421875,-1.01837158203125,-0.11553955078125
1759678145155,865926696,13516,10,-0.164306640625,-1.02593994140625,-0.10992431640625
1759678145155,865926696,13516,11,-0.16064453125,-1.02764892578125,-0.11407470703125
1759678145155,865926696,13516,12,-0.155517578125,-1.01666259765625,-0.13018798828125
1759678145155,865926696,13516,13,-0.154296875,-1.02545166015625,-0.11944580078125
1759678145155,865926696,13516,14,-0.16552734375,-1.02520751953125,-0.11822509765625
1759678145155,865926696,13516,15,-0.158935546875,-1.00933837890625,-0.11773681640625
1759678145155,865926696,13516,16,-0.149658203125,-1.00909423828125,-0.12164306640625
1759678145155,865926696,13516,17,-0.16455078125,-1.00567626953125,-0.12359619140625
1759678145155,865926696,13516,18,-0.171875,-1.00836181640625,-0.12213134765625
1759678145155,865926696,13516,19,-0.163330078125,-1.03643798828125,-0.11260986328125
1759678145155,865926696,13516,20,-0.158935546875,-1.02398681640625,-0.11944580078125
1759678145155,865926696,13516,21,-0.170166015625,-1.02886962890625,-0.09820556640625
1759678145155,865926696,13516,22,-0.16552734375,-1.03277587890625,-0.10308837890625
1759678145155,865926696,13516,23,-0.17578125,-1.02496337890625,-0.10675048828125
1759678145155,865926696,13516,24,-0.16943359375,-1.02520751953125,-0.09893798828125
1759678145155,865926696,13516,25,-0.185302734375,-1.02618408203125,-0.10626220703125
1759678145155,865926696,13516,26,-0.1748046875,-1.02618408203125,-0.09820556640625
1759678145155,865926696,13516,27,-0.17041015625,-1.02471923828125,-0.10211181640625
1759678145155,865926696,13516,28,-0.178955078125,-1.02618408203125,-0.09844970703125
1759678145155,865926696,13516,29,-0.175537109375,-1.02447509765625,-0.10626220703125
1759678145155,865926696,13516,30,-0.18359375,-1.03253173828125,-0.10797119140625
1759678145155,865926696,13516,31,-0.1865234375,-1.04058837890625,-0.08868408203125
1759678147676,865929233,13517,0,-0.178955078125,-1.02545166015625,-0.09893798828125
1759678147676,865929233,13517,1,-0.17431640625,-1.02203369140625,-0.10552978515625
1759678147676,865929233,13517,2,-0.169189453125,-1.02398681640625,-0.11285400390625
1759678147676,865929233,13517,3,-0.16650390625,-1.02838134765625,-0.10113525390625
1759678147676,865929233,13517,4,-0.166259765625,-1.02398681640625,-0.09112548828125
1759678147676,865929233,13517,5,-0.165771484375,-1.02081298828125,-0.09259033203125
1759678147676,865929233,13517,6,-0.162353515625,-1.02081298828125,-0.09283447265625
1759678147676,865929233,13517,7,-0.16259765625,-1.02276611328125,-0.08160400390625
1759678147676,865929233,13517,8,-0.154541015625,-1.01666259765625,-0.08868408203125
1759678147676,865929233,13517,9,-0.153076171875,-1.02227783203125,-0.08306884765625
1759678147676,865929233,13517,10,-0.151123046875,-1.01226806640625,-0.08599853515625
1759678147676,865929233,13517,11,-0.152099609375,-1.00445556640625,-0.07452392578125
1759678147676,865929233,13517,12,-0.1494140625,-1.01812744140625,-0.08184814453125
1759678147676,865929233,13517,13,-0.150390625,-1.03594970703125,-0.08038330078125
1759678147676,865929233,13517,14,-0.157958984375,-1.03375244140625,-0.07061767578125
1759678147676,865929233,13517,15,-0.153564453125,-1.02911376953125,-0.07305908203125
1759678147676,865929233,13517,16,-0.16259765625,-1.03472900390625,-0.07305908203125
1759678147676,865929233,13517,17,-0.158935546875,-1.02886962890625,-0.07989501953125
1759678147676,865929233,13517,18,-0.157958984375,-1.03179931640625,-0.08258056640625
1759678147676,865929233,13517,19,-0.169677734375,-1.03131103515625,-0.07696533203125
1759678147676,865929233,13517,20,-0.16943359375,-1.02056884765625,-0.09210205078125
1759678147676,865929233,13517,21,-0.169677734375,-1.02789306640625,-0.08502197265625
1759678147676,865929233,13517,22,-0.168212890625,-1.02471923828125,-0.09014892578125
1759678147676,865929233,13517,23,-0.169677734375,-1.03057861328125,-0.08868408203125
1759678147676,865929233,13517,24,-0.16845703125,-1.04473876953125,-0.07867431640625
1759678147676,865929233,13517,25,-0.16650390625,-1.03082275390625,-0.08087158203125
1759678147676,865929233,13517,26,-0.171630859375,-1.02496337890625,-0.09796142578125
1759678147676,865929233,13517,27,-0.165771484375,-1.02960205078125,-0.09405517578125
1759678147676,865929233,13517,28,-0.155517578125,-1.02325439453125,-0.09576416015625
1759678147676,865929233,13517,29,-0.151611328125,-1.01788330078125,-0.10626220703125
1759678147676,865929233,13517,30,-0.159423828125,-1.02813720703125,-0.09429931640625
1759678147676,865929233,13517,31,-0.15576171875,-1.02398681640625,-0.08551025390625
1759678150196,865931770,13518,0,-0.145751953125,-1.02545166015625,-0.08624267578125
1759678150196,865931770,13518,1,-0.1474609375,-1.02056884765625,-0.09381103515625
1759678150196,865931770,13518,2,-0.146240234375,-1.01690673828125,-0.08770751953125
1759678150196,865931770,13518,3,-0.1474609375,-1.01300048828125,-0.09674072265625
1759678150196,865931770,13518,4,-0.144775390625,-1.01397705078125,-0.09478759765625
1759678150196,865931770,13518,5,-0.14892578125,-1.02862548828125,-0.09674072265625
1759678150196,865931770,13518,6,-0.145751953125,-1.02911376953125,-0.09576416015625
1759678150196,865931770,13518,7,-0.15234375,-1.02911376953125,-0.08477783203125
1759678150196,865931770,13518,8,-0.151123046875,-1.03106689453125,-0.08306884765625
1759678150196,865931770,13518,9,-0.1572265625,-1.02154541015625,-0.08697509765625
1759678150196,865931770,13518,10,-0.15087890625,-1.03570556640625,-0.08721923828125
1759678150196,865931770,13518,11,-0.153076171875,-1.02862548828125,-0.08624267578125
1759678150196,865931770,13518,12,-0.152587890625,-1.03033447265625,-0.09014892578125
1759678150196,865931770,13518,13,-0.158935546875,-1.02520751953125,-0.08624267578125
1759678150196,865931770,13518,14,-0.157958984375,-1.02911376953125,-0.08892822265625
1759678150196,865931770,13518,15,-0.158447265625,-1.02374267578125,-0.09283447265625
1759678150196,865931770,13518,16,-0.159423828125,-1.03448486328125,-0.09332275390625
1759678150196,865931770,13518,17,-0.15771484375,-1.03424072265625,-0.08380126953125
1759678150196,865931770,13518,18,-0.16162109375,-1.03863525390625,-0.08624267578125
1759678150196,865931770,13518,19,-0.167724609375,-1.02276611328125,-0.10552978515625
1759678150196,865931770,13518,20,-0.160888671875,-1.02667236328125,-0.09967041015625
1759678150196,865931770,13518,21,-0.162353515625,-1.03448486328125,-0.08673095703125
1759678150196,865931770,13518,22,-0.14599609375,-1.02398681640625,-0.10699462890625
1759678150196,865931770,13518,23,-0.15576171875,-1.02886962890625,-0.10284423828125
1759678150196,865931770,13518,24,-0.155029296875,-1.02471923828125,-0.09039306640625
1759678150196,865931770,13518,25,-0.15869140625,-1.02301025390625,-0.08819580078125
1759678150196,865931770,13518,26,-0.154052734375,-1.02349853515625,-0.08306884765625
1759678150196,865931770,13518,27,-0.153564453125,-1.02203369140625,-0.08843994140625
1759678150196,865931770,13518,28,-0.1513671875,-1.02105712890625,-0.07843017578125
1759678150196,865931770,13518,29,-0.152099609375,-1.00616455078125,-0.09039306640625
1759678150196,865931770,13518,30,-0.155029296875,-1.01763916015625,-0.07476806640625
1759678150196,865931770,13518,31,-0.149658203125,-1.01568603515625,-0.07867431640625
1759678152710,865934307,13519,0,-0.144775390625,-1.03619384765625,-0.07061767578125
1759678152710,865934307,13519,1,-0.15185546875,-1.03179931640625,-0.07794189453125
1759678152710,865934307,13519,2,-0.15673828125,-1.03057861328125,-0.07598876953125
1759678152710,865934307,13519,3,-0.1533203125,-1.02862548828125,-0.08135986328125
1759678152710,865934307,13519,4,-0.155517578125,-1.03228759765625,-0.09039306640625
1759678152710,865934307,13519,5,-0.154052734375,-1.02862548828125,-0.08843994140625
1759678152710,865934307,13519,6,-0.15283203125,-1.03009033203125,-0.08843994140625
1759678152710,865934307,13519,7,-0.15576171875,-1.03521728515625,-0.09063720703125
1759678152710,865934307,13519,8,-0.159423828125,-1.03082275390625,-0.09625244140625
1759678152710,865934307,13519,9,-0.157470703125,-1.03204345703125,-0.10430908203125
1759678152710,865934307,13519,10,-0.153076171875,-1.03912353515625,-0.10772705078125
1759678152710,865934307,13519,11,-0.152587890625,-1.02447509765625,-0.10552978515625
1759678152710,865934307,13519,12,-0.162353515625,-1.03326416015625,-0.11065673828125
1759678152710,865934307,13519,13,-0.15625,-1.03302001953125,-0.11456298828125
1759678152710,865934307,13519,14,-0.14892578125,-1.03009033203125,-0.12945556640625
1759678152710,865934307,13519,15,-0.150146484375,-1.02349853515625,-0.11920166015625
1759678152710,865934307,13519,16,-0.1484375,-1.02374267578125,-0.12750244140625
1759678152710,865934307,13519,17,-0.146728515625,-1.02178955078125,-0.12823486328125
1759678152710,865934307,13519,18,-0.150146484375,-1.02203369140625,-0.13116455078125
1759678152710,865934307,13519,19,-0.146240234375,-1.02276611328125,-0.12969970703125
1759678152710,865934307,13519,20,-0.147216796875,-1.02203369140625,-0.12115478515625
1759678152710,865934307,13519,21,-0.142333984375,-1.01470947265625,-0.12530517578125
1759678152710,865934307,13519,22,-0.14306640625,-1.01007080078125,-0.11724853515625
1759678152710,865934307,13519,23,-0.151611328125,-1.01641845703125,-0.11773681640625
1759678152710,865934307,13519,24,-0.14208984375,-1.02667236328125,-0.11407470703125
1759678152710,865934307,13519,25,-0.14501953125,-1.02813720703125,-0.10479736328125
1759678152710,865934307,13519,26,-0.1533203125,-1.03106689453125,-0.10601806640625
1759678152710,865934307,13519,27,-0.155517578125,-1.03277587890625,-0.10357666015625
1759678152710,865934307,13519,28,-0.158447265625,-1.02520751953125,-0.09893798828125
1759678152710,865934307,13519,29,-0.1591796875,-1.02593994140625,-0.10162353515625
1759678152710,865934307,13519,30,-0.166748046875,-1.03082275390625,-0.09967041015625
1759678152710,865934307,13519,31,-0.16943359375,-1.02618408203125,-0.10284423828125
1759678155417,865936844,13520,0,-0.173583984375,-1.02618408203125,-0.09454345703125
1759678155417,865936844,13520,1,-0.16748046875,-1.02716064453125,-0.10528564453125
1759678155417,865936844,13520,2,-0.1689453125,-1.02886962890625,-0.10064697265625
1759678155417,865936844,13520,3,-0.17431640625,-1.03643798828125,-0.09356689453125
1759678155417,865936844,13520,4,-0.16455078125,-1.03839111328125,-0.09478759765625
1759678155417,865936844,13520,5,-0.177978515625,-1.02349853515625,-0.10064697265625
1759678155417,865936844,13520,6,-0.170654296875,-1.02545166015625,-0.10504150390625
1759678155417,865936844,13520,7,-0.167236328125,-1.02593994140625,-0.09918212890625
1759678155417,865936844,13520,8,-0.166748046875,-1.02301025390625,-0.09796142578125
1759678155417,865936844,13520,9,-0.17138671875,-1.02764892578125,-0.10430908203125
1759678155417,865936844,13520,10,-0.15869140625,-1.02227783203125,-0.09283447265625
1759678155417,865936844,13520,11,-0.165283203125,-1.02252197265625,-0.08624267578125
1759678155417,865936844,13520,12,-0.17041015625,-1.02081298828125,-0.08233642578125
1759678155417,865936844,13520,13,-0.165283203125,-1.02081298828125,-0.08282470703125
1759678155417,865936844,13520,14,-0.1708984375,-1.01568603515625,-0.07867431640625
1759678155417,865936844,13520,15,-0.16943359375,-1.00885009765625,-0.08111572265625
1759678155417,865936844,13520,16,-0.169189453125,-1.00616455078125,-0.07794189453125
1759678155417,865936844,13520,17,-0.16650390625,-1.03375244140625,-0.08502197265625
1759678155417,865936844,13520,18,-0.17041015625,-1.02886962890625,-0.08062744140625
1759678155417,865936844,13520,19,-0.16943359375,-1.02740478515625,-0.08087158203125
1759678155417,865936844,13520,20,-0.174072265625,-1.02642822265625,-0.08135986328125
1759678155417,865936844,13520,21,-0.176025390625,-1.02496337890625,-0.09405517578125
1759678155417,865936844,13520,22,-0.1748046875,-1.02960205078125,-0.09527587890625
1759678155417,865936844,13520,23,-0.168701171875,-1.02862548828125,-0.10430908203125
1759678155417,865936844,13520,24,-0.166748046875,-1.02838134765625,-0.10626220703125
1759678155417,865936844,13520,25,-0.166259765625,-1.03082275390625,-0.09918212890625
1759678155417,865936844,13520,26,-0.166259765625,-1.03179931640625,-0.10528564453125
1759678155417,865936844,13520,27,-0.166259765625,-1.03497314453125,-0.10284423828125
1759678155417,865936844,13520,28,-0.161865234375,-1.03643798828125,-0.09503173828125
1759678155417,865936844,13520,29,-0.16455078125,-1.02667236328125,-0.09967041015625
1759678155417,865936844,13520,30,-0.16650390625,-1.01983642578125,-0.10211181640625
1759678155417,865936844,13520,31,-0.1591796875,-1.02838134765625,-0.10260009765625
1759678157934,865939381,13521,0,-0.15673828125,-1.02447509765625,-0.10406494140625
1759678157934,865939381,13521,1,-0.15625,-1.02789306640625,-0.10064697265625
1759678157934,865939381,13521,2,-0.15576171875,-1.02447509765625,-0.09869384765625
1759678157934,865939381,13521,3,-0.152099609375,-1.02471923828125,-0.09967041015625
1759678157934,865939381,13521,4,-0.15771484375,-1.01837158203125,-0.09967041015625
1759678157934,865939381,13521,5,-0.157470703125,-1.01910400390625,-0.08990478515625
1759678157934,865939381,13521,6,-0.155517578125,-1.01568603515625,-0.09600830078125
1759678157934,865939381,13521,7,-0.16259765625,-1.01397705078125,-0.09649658203125
1759678157934,865939381,13521,8,-0.163330078125,-1.01055908203125,-0.09259033203125
1759678157934,865939381,13521,9,-0.159423828125,-1.03057861328125,-0.08795166015625
1759678157934,865939381,13521,10,-0.16943359375,-1.03179931640625,-0.09722900390625
1759678157934,865939381,13521,11,-0.1611328125,-1.03204345703125,-0.08819580078125
1759678157934,865939381,13521,12,-0.157958984375,-1.02520751953125,-0.08819580078125
1759678157934,865939381,13521,13,-0.16015625,-1.02618408203125,-0.09503173828125
1759678157934,865939381,13521,14,-0.173828125,-1.02374267578125,-0.10260009765625
1759678157934,865939381,13521,15,-0.163818359375,-1.03253173828125,-0.09527587890625
1759678157934,865939381,13521,16,-0.168701171875,-1.02740478515625,-0.10357666015625
1759678157934,865939381,13521,17,-0.167724609375,-1.02813720703125,-0.10675048828125
1759678157934,865939381,13521,18,-0.169189453125,-1.02813720703125,-0.10601806640625
1759678157934,865939381,13521,19,-0.1650390625,-1.02789306640625,-0.11529541015625
1759678157934,865939381,13521,20,-0.16064453125,-1.04547119140625,-0.11114501953125
1759678157934,865939381,13521,21,-0.170654296875,-1.02520751953125,-0.11212158203125
1759678157934,865939381,13521,22,-0.15869140625,-1.02691650390625,-0.12408447265625
1759678157934,865939381,13521,23,-0.158203125,-1.02764892578125,-0.12286376953125
1759678157934,865939381,13521,24,-0.158203125,-1.02496337890625,-0.13287353515625
1759678157934,865939381,13521,25,-0.15185546875,-1.02862548828125,-0.12530517578125
1759678157934,865939381,13521,26,-0.15185546875,-1.02032470703125,-0.13336181640625
1759678157934,865939381,13521,27,-0.156005859375,-1.02618408203125,-0.12677001953125
1759678157934,865939381,13521,28,-0.151611328125,-1.01739501953125,-0.12799072265625
1759678157934,865939381,13521,29,-0.15087890625,-1.02325439453125,-0.12701416015625
1759678157934,865939381,13521,30,-0.150390625,-1.01397705078125,-0.12237548828125
1759678157934,865939381,13521,31,-0.154296875,-1.01666259765625,-0.12994384765625
1759678160457,865941918,13522,0,-0.155517578125,-1.01470947265625,-0.11676025390625
1759678160457,865941918,13522,1,-0.151123046875,-1.00738525390625,-0.12017822265625
1759678160457,865941918,13522,2,-0.153076171875,-1.03741455078125,-0.11700439453125
1759678160457,865941918,13522,3,-0.154541015625,-1.02960205078125,-0.11724853515625
1759678160457,865941918,13522,4,-0.1494140625,-1.02740478515625,-0.11505126953125
1759678160457,865941918,13522,5,-0.16162109375,-1.02984619140625,-0.11260986328125
1759678160457,865941918,13522,6,-0.162841796875,-1.02960205078125,-0.11212158203125
1759678160457,865941918,13522,7,-0.160888671875,-1.02520751953125,-0.12164306640625
1759678160457,865941918,13522,8,-0.157958984375,-1.02789306640625,-0.12457275390625
1759678160457,865941918,13522,9,-0.15771484375,-1.02423095703125,-0.12896728515625
1759678160457,865941918,13522,10,-0.16015625,-1.02325439453125,-0.12506103515625
1759678160457,865941918,13522,11,-0.159423828125,-1.02374267578125,-0.12457275390625
1759678160457,865941918,13522,12,-0.157958984375,-1.03253173828125,-0.12335205078125
1759678160457,865941918,13522,13,-0.14892578125,-1.04376220703125,-0.11138916015625
1759678160457,865941918,13522,14,-0.157958984375,-1.02764892578125,-0.11651611328125
1759678160457,865941918,13522,15,-0.15576171875,-1.02325439453125,-0.11431884765625
1759678160457,865941918,13522,16,-0.15576171875,-1.02154541015625,-0.11041259765625
1759678160457,865941918,13522,17,-0.158447265625,-1.02569580078125,-0.10919189453125
1759678160457,865941918,13522,18,-0.157958984375,-1.02178955078125,-0.11114501953125
1759678160457,865941918,13522,19,-0.15966796875,-1.02203369140625,-0.10650634765625
1759678160457,865941918,13522,20,-0.156982421875,-1.02081298828125,-0.09942626953125
1759678160457,865941918,13522,21,-0.158447265625,-1.01324462890625,-0.10552978515625
1759678160457,865941918,13522,22,-0.157958984375,-1.01690673828125,-0.10113525390625
1759678160457,865941918,13522,23,-0.15966796875,-1.01177978515625,-0.10992431640625
1759678160457,865941918,13522,24,-0.158447265625,-1.01226806640625,-0.09405517578125
1759678160457,865941918,13522,25,-0.154052734375,-1.02862548828125,-0.10504150390625
1759678160457,865941918,13522,26,-0.16162109375,-1.02764892578125,-0.09503173828125
1759678160457,865941918,13522,27,-0.169189453125,-1.02691650390625,-0.09625244140625
1759678160457,865941918,13522,28,-0.16162109375,-1.02838134765625,-0.09454345703125
1759678160457,865941918,13522,29,-0.16650390625,-1.02789306640625,-0.09527587890625
1759678160457,865941918,13522,30,-0.16162109375,-1.02764892578125,-0.09454345703125
1759678160457,865941918,13522,31,-0.166259765625,-1.02789306640625,-0.09844970703125
1759678162973,865944455,13523,0,-0.168212890625,-1.02642822265625,-0.10040283203125
1759678162973,865944455,13523,1,-0.16943359375,-1.02691650390625,-0.10015869140625
1759678162973,865944455,13523,2,-0.169677734375,-1.02569580078125,-0.09649658203125
1759678162973,865944455,13523,3,-0.16796875,-1.02886962890625,-0.10455322265625
1759678162973,865944455,13523,4,-0.1728515625,-1.02593994140625,-0.10064697265625
1759678162973,865944455,13523,5,-0.1640625,-1.03326416015625,-0.09942626953125
1759678162973,865944455,13523,6,-0.169677734375,-1.02545166015625,-0.10626220703125
1759678162973,865944455,13523,7,-0.171142578125,-1.02471923828125,-0.10650634765625
1759678162973,865944455,13523,8,-0.16064453125,-1.02301025390625,-0.11090087890625
1759678162973,865944455,13523,9,-0.164794921875,-1.02764892578125,-0.10211181640625
1759678162973,865944455,13523,10,-0.168212890625,-1.02569580078125,-0.11383056640625
1759678162973,865944455,13523,11,-0.1748046875,-1.02227783203125,-0.10552978515625
1759678162973,865944455,13523,12,-0.1669921875,-1.01641845703125,-0.10650634765625
1759678162973,865944455,13523,13,-0.167236328125,-1.02154541015625,-0.10430908203125
1759678162973,865944455,13523,14,-0.165283203125,-1.01568603515625,-0.10479736328125
1759678162973,865944455,13523,15,-0.16796875,-1.01812744140625,-0.10162353515625
1759678162973,865944455,13523,16,-0.161376953125,-1.01593017578125,-0.10113525390625
1759678162973,865944455,13523,17,-0.16064453125,-1.01348876953125,-0.09478759765625
1759678162973,865944455,13523,18,-0.1689453125,-1.02252197265625,-0.10894775390625
1759678162973,865944455,13523,19,-0.15478515625,-1.03668212890625,-0.10089111328125
1759678162973,865944455,13523,20,-0.1533203125,-1.02838134765625,-0.11212158203125
1759678162973,865944455,13523,21,-0.151611328125,-1.03204345703125,-0.11163330078125
1759678162973,865944455,13523,22,-0.152587890625,-1.02667236328125,-0.11309814453125
1759678162973,865944455,13523,23,-0.150634765625,-1.02886962890625,-0.11627197265625
1759678162973,865944455,13523,24,-0.146728515625,-1.02960205078125,-0.11383056640625
1759678162973,865944455,13523,25,-0.14697265625,-1.02691650390625,-0.12066650390625
1759678162973,865944455,13523,26,-0.146240234375,-1.02716064453125,-0.11920166015625
1759678162973,865944455,13523,27,-0.15087890625,-1.02911376953125,-0.12408447265625
1759678162973,865944455,13523,28,-0.1533203125,-1.03594970703125,-0.11749267578125
1759678162973,865944455,13523,29,-0.154052734375,-1.03253173828125,-0.11651611328125
1759678162973,865944455,13523,30,-0.154296875,-1.02838134765625,-0.11236572265625
1759678162973,865944455,13523,31,-0.16015625,-1.02618408203125,-0.11041259765625
1759678165488,865946992,13524,0,-0.159423828125,-1.02960205078125,-0.11114501953125
1759678165488,865946992,13524,1,-0.158203125,-1.02911376953125,-0.10675048828125
1759678165488,865946992,13524,2,-0.157470703125,-1.01666259765625,-0.11798095703125
1759678165488,865946992,13524,3,-0.15869140625,-1.02301025390625,-0.10919189453125
1759678165488,865946992,13524,4,-0.160400390625,-1.01959228515625,-0.10919189453125
1759678165488,865946992,13524,5,-0.15869140625,-1.02032470703125,-0.11358642578125
1759678165488,865946992,13524,6,-0.1552734375,-1.02203369140625,-0.11236572265625
1759678165488,865946992,13524,7,-0.15283203125,-1.01422119140625,-0.12066650390625
1759678165488,865946992,13524,8,-0.1572265625,-1.02569580078125,-0.11090087890625
1759678165488,865946992,13524,9,-0.153564453125,-1.02349853515625,-0.11822509765625
1759678165488,865946992,13524,10,-0.149169921875,-1.03570556640625,-0.10821533203125
1759678165488,865946992,13524,11,-0.139892578125,-1.02862548828125,-0.10626220703125
1759678165488,865946992,13524,12,-0.138671875,-1.02349853515625,-0.10137939453125
1759678165488,865946992,13524,13,-0.146728515625,-1.02984619140625,-0.10113525390625
1759678165488,865946992,13524,14,-0.14892578125,-1.03033447265625,-0.10577392578125
1759678165488,865946992,13524,15,-0.14794921875,-1.02593994140625,-0.10577392578125
1759678165488,865946992,13524,16,-0.146484375,-1.02984619140625,-0.10845947265625
1759678165488,865946992,13524,17,-0.150634765625,-1.02740478515625,-0.10992431640625
1759678165488,865946992,13524,18,-0.14599609375,-1.03033447265625,-0.11407470703125
1759678165488,865946992,13524,19,-0.14892578125,-1.03814697265625,-0.10430908203125
1759678165488,865946992,13524,20,-0.15234375,-1.03131103515625,-0.11212158203125
1759678165488,865946992,13524,21,-0.157958984375,-1.03472900390625,-0.10406494140625
1759678165488,865946992,13524,22,-0.158447265625,-1.03253173828125,-0.10284423828125
1759678165488,865946992,13524,23,-0.15185546875,-1.02740478515625,-0.10040283203125
1759678165488,865946992,13524,24,-0.15380859375,-1.02838134765625,-0.09942626953125
1759678165488,865946992,13524,25,-0.157958984375,-1.02398681640625,-0.09307861328125
1759678165488,865946992,13524,26,-0.15673828125,-1.02325439453125,-0.09771728515625
1759678165488,865946992,13524,27,-0.150390625,-1.02862548828125,-0.09381103515625
1759678165488,865946992,13524,28,-0.15478515625,-1.02227783203125,-0.09674072265625
1759678165488,865946992,13524,29,-0.160888671875,-1.01959228515625,-0.09796142578125
1759678165488,865946992,13524,30,-0.158447265625,-1.02056884765625,-0.09649658203125
1759678165488,865946992,13524,31,-0.153564453125,-1.01080322265625,-0.10992431640625
1759678168015,865949529,13525,0,-0.155029296875,-1.01544189453125,-0.09600830078125
1759678168015,865949529,13525,1,-0.15087890625,-1.01861572265625,-0.10260009765625
1759678168015,865949529,13525,2,-0.152587890625,-1.03131103515625,-0.09478759765625
1759678168015,865949529,13525,3,-0.15673828125,-1.03155517578125,-0.09088134765625
1759678168015,865949529,13525,4,-0.1513671875,-1.03326416015625,-0.09185791015625
1759678168015,865949529,13525,5,-0.155029296875,-1.02911376953125,-0.08892822265625
1759678168015,865949529,13525,6,-0.153564453125,-1.03302001953125,-0.09454345703125
1759678168015,865949529,13525,7,-0.155517578125,-1.02520751953125,-0.09600830078125
1759678168015,865949529,13525,8,-0.15087890625,-1.03204345703125,-0.10015869140625
1759678168015,865949529,13525,9,-0.156982421875,-1.02813720703125,-0.10308837890625
1759678168015,865949529,13525,10,-0.149658203125,-1.02886962890625,-0.10284423828125
1759678168015,865949529,13525,11,-0.152587890625,-1.03424072265625,-0.10479736328125
1759678168015,865949529,13525,12,-0.152587890625,-1.03839111328125,-0.10723876953125
1759678168015,865949529,13525,13,-0.15576171875,-1.02789306640625,-0.10357666015625
1759678168015,865949529,13525,14,-0.154052734375,-1.02838134765625,-0.10821533203125
1759678168015,865949529,13525,15,-0.1513671875,-1.02423095703125,-0.10870361328125
1759678168015,865949529,13525,16,-0.1572265625,-1.02447509765625,-0.10382080078125
1759678168015,865949529,13525,17,-0.158447265625,-1.02374267578125,-0.10577392578125
1759678168015,865949529,13525,18,-0.1494140625,-1.02789306640625,-0.10577392578125
1759678168015,865949529,13525,19,-0.154296875,-1.02520751953125,-0.10260009765625
1759678168015,865949529,13525,20,-0.15380859375,-1.02032470703125,-0.10430908203125
1759678168015,865949529,13525,21,-0.152587890625,-1.02423095703125,-0.10382080078125
