receivedPhoneTimestamp,respeckTimestamp,packetSeqNum,sampleSeqNum,accelX,accelY,accelZ
1759605468241,706941161,14308,31,-0.060791015625,-0.99884033203125,-0.05621337890625
1759605470828,706943734,14309,0,-0.054931640625,-0.96661376953125,-0.03863525390625
1759605470828,706943734,14309,1,-0.073486328125,-1.01397705078125,0.04315185546875
1759605470828,706943734,14309,2,-0.07177734375,-1.00567626953125,0.05535888671875
1759605470828,706943734,14309,3,-0.068115234375,-1.00177001953125,0.05364990234375
1759605470828,706943734,14309,4,-0.070556640625,-1.00811767578125,0.05316162109375
1759605470828,706943734,14309,5,-0.076904296875,-0.98052978515625,0.07122802734375
1759605470828,706943734,14309,6,-0.068359375,-1.00738525390625,0.00384521484375
1759605470828,706943734,14309,7,-0.06640625,-1.00006103515625,-0.02227783203125
1759605470828,706943734,14309,8,-0.052978515625,-0.99713134765625,-0.03497314453125
1759605470828,706943734,14309,9,-0.05419921875,-0.97784423828125,-0.01373291015625
1759605470828,706943734,14309,10,-0.074462890625,-1.00128173828125,0.02777099609375
1759605470828,706943734,14309,11,-0.0693359375,-1.00518798828125,0.04876708984375
1759605470828,706943734,14309,12,-0.070556640625,-0.99688720703125,0.05584716796875
1759605470828,706943734,14309,13,-0.06591796875,-1.00885009765625,0.05511474609375
1759605470828,706943734,14309,14,-0.07666015625,-0.98492431640625,0.04779052734375
1759605470828,706943734,14309,15,-0.06787109375,-0.99957275390625,-0.00543212890625
1759605470828,706943734,14309,16,-0.059814453125,-1.00347900390625,-0.02911376953125
1759605470828,706943734,14309,17,-0.048828125,-0.99493408203125,-0.03521728515625
1759605470828,706943734,14309,18,-0.064208984375,-0.99029541015625,0.01312255859375
1759605470828,706943734,14309,19,-0.064208984375,-1.00299072265625,0.02874755859375
1759605470828,706943734,14309,20,-0.05810546875,-1.00006103515625,0.03582763671875
1759605470828,706943734,14309,21,-0.06201171875,-0.99395751953125,0.05780029296875
1759605470828,706943734,14309,22,-0.0615234375,-1.00567626953125,0.05169677734375
1759605470828,706943734,14309,23,-0.0693359375,-0.99420166015625,0.02728271484375
1759605470828,706943734,14309,24,-0.057861328125,-1.00299072265625,-0.00982666015625
1759605470828,706943734,14309,25,-0.0595703125,-0.99981689453125,-0.03033447265625
1759605470828,706943734,14309,26,-0.053466796875,-0.99176025390625,-0.03302001953125
1759605470828,706943734,14309,27,-0.061767578125,-0.99468994140625,0.00189208984375
1759605470828,706943734,14309,28,-0.073486328125,-1.00836181640625,0.02825927734375
1759605470828,706943734,14309,29,-0.059326171875,-1.00006103515625,0.02117919921875
1759605470828,706943734,14309,30,-0.070068359375,-1.00225830078125,0.03826904296875
1759605470828,706943734,14309,31,-0.0703125,-0.99884033203125,0.02972412109375
1759605473409,706946307,14310,0,-0.06640625,-1.00054931640625,-0.00201416015625
1759605473409,706946307,14310,1,-0.0615234375,-0.99908447265625,-0.01959228515625
1759605473409,706946307,14310,2,-0.060302734375,-1.00054931640625,-0.03936767578125
1759605473409,706946307,14310,3,-0.06201171875,-0.99224853515625,-0.02935791015625
1759605473409,706946307,14310,4,-0.080810546875,-0.99810791015625,0.02239990234375
1759605473409,706946307,14310,5,-0.068359375,-1.00469970703125,0.02313232421875
1759605473409,706946307,14310,6,-0.070068359375,-0.99737548828125,0.03704833984375
1759605473409,706946307,14310,7,-0.07373046875,-1.00494384765625,0.04974365234375
1759605473409,706946307,14310,8,-0.072509765625,-0.99371337890625,0.04217529296875
1759605473409,706946307,14310,9,-0.0703125,-1.00250244140625,0.00921630859375
1759605473409,706946307,14310,10,-0.0595703125,-0.99957275390625,-0.01641845703125
1759605473409,706946307,14310,11,-0.05224609375,-1.00030517578125,-0.03106689453125
1759605473409,706946307,14310,12,-0.05126953125,-0.99224853515625,-0.01348876953125
1759605473409,706946307,14310,13,-0.07763671875,-0.99615478515625,0.03143310546875
1759605473409,706946307,14310,14,-0.0634765625,-1.00030517578125,0.03143310546875
1759605473409,706946307,14310,15,-0.064697265625,-1.00006103515625,0.03485107421875
1759605473409,706946307,14310,16,-0.069580078125,-1.00543212890625,0.04193115234375
1759605473409,706946307,14310,17,-0.07275390625,-0.99224853515625,0.02923583984375
1759605473409,706946307,14310,18,-0.064453125,-1.00299072265625,0.00775146484375
1759605473409,706946307,14310,19,-0.058349609375,-1.00299072265625,-0.02740478515625
1759605473409,706946307,14310,20,-0.055908203125,-0.99737548828125,-0.04400634765625
1759605473409,706946307,14310,21,-0.051025390625,-0.99420166015625,-0.02911376953125
1759605473409,706946307,14310,22,-0.067626953125,-0.99957275390625,0.01092529296875
1759605473409,706946307,14310,23,-0.05322265625,-1.00518798828125,0.02215576171875
1759605473409,706946307,14310,24,-0.0634765625,-0.99346923828125,0.02899169921875
1759605473409,706946307,14310,25,-0.06494140625,-1.00665283203125,0.03216552734375
1759605473409,706946307,14310,26,-0.063232421875,-0.99224853515625,0.02972412109375
1759605473409,706946307,14310,27,-0.05615234375,-1.00177001953125,0.00213623046875
1759605473409,706946307,14310,28,-0.05810546875,-1.00006103515625,0.00262451171875
1759605473409,706946307,14310,29,-0.053466796875,-0.99859619140625,-0.02520751953125
1759605473409,706946307,14310,30,-0.05322265625,-0.99224853515625,-0.02032470703125
1759605473409,706946307,14310,31,-0.06884765625,-0.99713134765625,0.01458740234375
1759605475993,706948880,14311,0,-0.064453125,-1.00616455078125,0.02288818359375
1759605475993,706948880,14311,1,-0.06005859375,-0.99859619140625,0.02996826171875
1759605475993,706948880,14311,2,-0.063232421875,-1.00250244140625,0.04046630859375
1759605475993,706948880,14311,3,-0.05517578125,-1.00396728515625,0.02435302734375
1759605475993,706948880,14311,4,-0.06298828125,-0.99566650390625,0.02117919921875
1759605475993,706948880,14311,5,-0.071533203125,-0.99786376953125,0.02728271484375
1759605475993,706948880,14311,6,-0.0673828125,-0.99859619140625,0.01312255859375
1759605475993,706948880,14311,7,-0.06201171875,-0.99639892578125,0.00482177734375
1759605475993,706948880,14311,8,-0.064453125,-0.99444580078125,0.02703857421875
1759605475993,706948880,14311,9,-0.072021484375,-0.99884033203125,0.04266357421875
1759605475993,706948880,14311,10,-0.0673828125,-0.99859619140625,0.03680419921875
1759605475993,706948880,14311,11,-0.071533203125,-0.99835205078125,0.04730224609375
1759605475993,706948880,14311,12,-0.061767578125,-1.01177978515625,0.04095458984375
1759605475993,706948880,14311,13,-0.072509765625,-0.98956298828125,0.04119873046875
1759605475993,706948880,14311,14,-0.06787109375,-1.00006103515625,0.02337646484375
1759605475993,706948880,14311,15,-0.056884765625,-0.99859619140625,-0.00225830078125
1759605475993,706948880,14311,16,-0.0625,-0.99908447265625,-0.00762939453125
1759605475993,706948880,14311,17,-0.081298828125,-0.98712158203125,0.04510498046875
1759605475993,706948880,14311,18,-0.067626953125,-1.00103759765625,0.04681396484375
1759605475993,706948880,14311,19,-0.0693359375,-0.99737548828125,0.04388427734375
1759605475993,706948880,14311,20,-0.078125,-0.99981689453125,0.05584716796875
1759605475993,706948880,14311,21,-0.07080078125,-0.99957275390625,0.04949951171875
1759605475993,706948880,14311,22,-0.070068359375,-0.99468994140625,0.03680419921875
1759605475993,706948880,14311,23,-0.072509765625,-1.00274658203125,0.02532958984375
1759605475993,706948880,14311,24,-0.0771484375,-0.99688720703125,0.01019287109375
1759605475993,706948880,14311,25,-0.077880859375,-1.00054931640625,-0.00543212890625
1759605475993,706948880,14311,26,-0.064208984375,-0.98175048828125,0.04486083984375
1759605475993,706948880,14311,27,-0.086181640625,-0.99908447265625,0.07391357421875
1759605475993,706948880,14311,28,-0.076171875,-1.00006103515625,0.05487060546875
1759605475993,706948880,14311,29,-0.0830078125,-0.99200439453125,0.07049560546875
1759605475993,706948880,14311,30,-0.078857421875,-1.00689697265625,0.05755615234375
1759605475993,706948880,14311,31,-0.082763671875,-0.99102783203125,0.05120849609375
1759605478580,706951453,14312,0,-0.08056640625,-0.99810791015625,0.04071044921875
1759605478580,706951453,14312,1,-0.082275390625,-0.99664306640625,0.03021240234375
1759605478580,706951453,14312,2,-0.07763671875,-0.99200439453125,0.03070068359375
1759605478580,706951453,14312,3,-0.078369140625,-0.99176025390625,0.04241943359375
1759605478580,706951453,14312,4,-0.08740234375,-0.99713134765625,0.05682373046875
1759605478580,706951453,14312,5,-0.078857421875,-1.00299072265625,0.04681396484375
1759605478580,706951453,14312,6,-0.08203125,-0.99371337890625,0.05584716796875
1759605478580,706951453,14312,7,-0.079345703125,-1.00274658203125,0.06048583984375
1759605478580,706951453,14312,8,-0.0712890625,-0.98736572265625,0.04925537109375
1759605478580,706951453,14312,9,-0.07861328125,-0.99761962890625,0.03948974609375
1759605478580,706951453,14312,10,-0.072265625,-0.99835205078125,0.03118896484375
1759605478580,706951453,14312,11,-0.076416015625,-0.99468994140625,0.02264404296875
1759605478580,706951453,14312,12,-0.076904296875,-0.99493408203125,0.03607177734375
1759605478580,706951453,14312,13,-0.086181640625,-0.99053955078125,0.06024169921875
1759605478580,706951453,14312,14,-0.075927734375,-1.00396728515625,0.04901123046875
1759605478580,706951453,14312,15,-0.080078125,-0.99615478515625,0.05316162109375
1759605478580,706951453,14312,16,-0.083740234375,-1.00347900390625,0.06439208984375
1759605478580,706951453,14312,17,-0.078857421875,-0.98907470703125,0.05950927734375
1759605478580,706951453,14312,18,-0.078857421875,-0.99810791015625,0.02288818359375
1759605478580,706951453,14312,19,-0.07080078125,-1.00079345703125,0.01019287109375
1759605478580,706951453,14312,20,-0.07177734375,-0.99835205078125,0.00091552734375
1759605478580,706951453,14312,21,-0.073974609375,-0.99591064453125,0.01068115234375
1759605478580,706951453,14312,22,-0.082763671875,-0.99786376953125,0.03387451171875
1759605478580,706951453,14312,23,-0.076171875,-1.00103759765625,0.03094482421875
1759605478580,706951453,14312,24,-0.076904296875,-0.99395751953125,0.04290771484375
1759605478580,706951453,14312,25,-0.0810546875,-1.00103759765625,0.05413818359375
1759605478580,706951453,14312,26,-0.0693359375,-0.99688720703125,0.02288818359375
1759605478580,706951453,14312,27,-0.072265625,-1.00054931640625,0.01654052734375
1759605478580,706951453,14312,28,-0.06640625,-0.99737548828125,-0.00518798828125
1759605478580,706951453,14312,29,-0.064453125,-0.99444580078125,-0.01373291015625
1759605478580,706951453,14312,30,-0.06494140625,-0.99688720703125,-0.00738525390625
1759605478580,706951453,14312,31,-0.072998046875,-0.99981689453125,0.02337646484375
1759605481161,706954026,14313,0,-0.07373046875,-0.99981689453125,0.02728271484375
1759605481161,706954026,14313,1,-0.071533203125,-0.99688720703125,0.03753662109375
1759605481161,706954026,14313,2,-0.07666015625,-1.00933837890625,0.03704833984375
1759605481161,706954026,14313,3,-0.074951171875,-0.99591064453125,0.02801513671875
1759605481161,706954026,14313,4,-0.065673828125,-0.99810791015625,0.00433349609375
1759605481161,706954026,14313,5,-0.063720703125,-0.99664306640625,-0.01422119140625
1759605481161,706954026,14313,6,-0.06005859375,-0.99615478515625,-0.01031494140625
1759605481161,706954026,14313,7,-0.07568359375,-0.99664306640625,0.02899169921875
1759605481161,706954026,14313,8,-0.0693359375,-0.99810791015625,0.03875732421875
1759605481161,706954026,14313,9,-0.073486328125,-0.99908447265625,0.04071044921875
1759605481161,706954026,14313,10,-0.07861328125,-1.00738525390625,0.04949951171875
1759605481161,706954026,14313,11,-0.07275390625,-0.99371337890625,0.03680419921875
1759605481161,706954026,14313,12,-0.069091796875,-0.99420166015625,0.02191162109375
1759605481161,706954026,14313,13,-0.06884765625,-1.00054931640625,0.00018310546875
1759605481161,706954026,14313,14,-0.0693359375,-0.99737548828125,0.00140380859375
1759605481161,706954026,14313,15,-0.069580078125,-0.99517822265625,0.00897216796875
1759605481161,706954026,14313,16,-0.078369140625,-0.99322509765625,0.02630615234375
1759605481161,706954026,14313,17,-0.0712890625,-1.00079345703125,0.03997802734375
1759605481161,706954026,14313,18,-0.06884765625,-1.00030517578125,0.03680419921875
1759605481161,706954026,14313,19,-0.078369140625,-1.00274658203125,0.04852294921875
1759605481161,706954026,14313,20,-0.07568359375,-0.99566650390625,0.05023193359375
1759605481161,706954026,14313,21,-0.073486328125,-0.99224853515625,0.01776123046875
1759605481161,706954026,14313,22,-0.064453125,-0.99786376953125,0.00604248046875
1759605481161,706954026,14313,23,-0.06640625,-1.00079345703125,-0.01885986328125
1759605481161,706954026,14313,24,-0.054931640625,-0.99322509765625,-0.02398681640625
1759605481161,706954026,14313,25,-0.06787109375,-0.99346923828125,0.01580810546875
1759605481161,706954026,14313,26,-0.0615234375,-1.00250244140625,0.02459716796875
1759605481161,706954026,14313,27,-0.063720703125,-0.99932861328125,0.02923583984375
1759605481161,706954026,14313,28,-0.07177734375,-1.00103759765625,0.05462646484375
1759605481161,706954026,14313,29,-0.062744140625,-1.00225830078125,0.02972412109375
1759605481161,706954026,14313,30,-0.070068359375,-0.99615478515625,0.01727294921875
1759605481161,706954026,14313,31,-0.062255859375,-0.99932861328125,-0.00811767578125
1759605483746,706956593,14314,0,-0.0576171875,-1.00030517578125,-0.02349853515625
1759605483746,706956593,14314,1,-0.05615234375,-0.99517822265625,-0.02178955078125
1759605483746,706956593,14314,2,-0.06689453125,-0.99981689453125,0.00067138671875
1759605483746,706956593,14314,3,-0.065673828125,-0.99981689453125,0.01922607421875
1759605483746,706956593,14314,4,-0.06787109375,-1.00128173828125,0.02508544921875
1759605483746,706956593,14314,5,-0.074951171875,-1.00469970703125,0.03851318359375
1759605483746,706956593,14314,6,-0.072998046875,-1.00103759765625,0.02801513671875
1759605483746,706956593,14314,7,-0.071533203125,-0.99542236328125,0.00457763671875
1759605483746,706956593,14314,8,-0.06494140625,-0.99908447265625,-0.01495361328125
1759605483746,706956593,14314,9,-0.06103515625,-0.99908447265625,-0.02667236328125
1759605483746,706956593,14314,10,-0.0576171875,-0.99420166015625,-0.02691650390625
1759605483746,706956593,14314,11,-0.07421875,-0.99639892578125,0.00262451171875
1759605483746,706956593,14314,12,-0.067138671875,-1.00665283203125,0.01678466796875
1759605483746,706956593,14314,13,-0.053466796875,-1.00006103515625,0.01019287109375
1759605483746,706956593,14314,14,-0.0625,-1.00054931640625,0.03436279296875
1759605483746,706956593,14314,15,-0.063720703125,-1.00128173828125,0.02777099609375
1759605483746,706956593,14314,16,-0.07177734375,-0.99957275390625,0.00311279296875
1759605483746,706956593,14314,17,-0.0615234375,-0.99884033203125,0.00604248046875
1759605483746,706956593,14314,18,-0.059814453125,-0.99713134765625,-0.00323486328125
1759605483746,706956593,14314,19,-0.05908203125,-0.99102783203125,0.00433349609375
1759605483746,706956593,14314,20,-0.075439453125,-0.99981689453125,0.02239990234375
1759605483746,706956593,14314,21,-0.06396484375,-1.00225830078125,0.03924560546875
1759605483746,706956593,14314,22,-0.06103515625,-0.99688720703125,0.02777099609375
1759605483746,706956593,14314,23,-0.074462890625,-1.00347900390625,0.04608154296875
1759605483746,706956593,14314,24,-0.071533203125,-0.99005126953125,0.04119873046875
1759605483746,706956593,14314,25,-0.066162109375,-0.99908447265625,0.01727294921875
1759605483746,706956593,14314,26,-0.055419921875,-1.00079345703125,-0.00152587890625
1759605483746,706956593,14314,27,-0.05859375,-0.99322509765625,0.01190185546875
1759605483746,706956593,14314,28,-0.065673828125,-0.99468994140625,0.02117919921875
1759605483746,706956593,14314,29,-0.06787109375,-1.00274658203125,0.04241943359375
1759605483746,706956593,14314,30,-0.06103515625,-0.99908447265625,0.04364013671875
1759605483746,706956593,14314,31,-0.07421875,-0.99932861328125,0.06439208984375
1759605486328,706959167,14315,0,-0.070556640625,-1.00250244140625,0.05462646484375
1759605486328,706959167,14315,1,-0.0703125,-0.98858642578125,0.04095458984375
1759605486328,706959167,14315,2,-0.062255859375,-1.00250244140625,0.01678466796875
1759605486328,706959167,14315,3,-0.059814453125,-0.99444580078125,0.00555419921875
1759605486328,706959167,14315,4,-0.059814453125,-0.99298095703125,0.02752685546875
1759605486328,706959167,14315,5,-0.07373046875,-0.99517822265625,0.05706787109375
1759605486328,706959167,14315,6,-0.067138671875,-1.00079345703125,0.03704833984375
1759605486328,706959167,14315,7,-0.076416015625,-0.99566650390625,0.05218505859375
1759605486328,706959167,14315,8,-0.0712890625,-1.00811767578125,0.05413818359375
1759605486328,706959167,14315,9,-0.072265625,-0.99200439453125,0.04705810546875
1759605486328,706959167,14315,10,-0.0654296875,-0.99517822265625,0.02874755859375
1759605486328,706959167,14315,11,-0.059326171875,-1.00006103515625,0.00189208984375
1759605486328,706959167,14315,12,-0.056396484375,-0.98907470703125,0.01971435546875
1759605486328,706959167,14315,13,-0.066650390625,-0.99835205078125,0.02728271484375
1759605486328,706959167,14315,14,-0.0654296875,-1.00372314453125,0.03729248046875
1759605486328,706959167,14315,15,-0.064697265625,-0.99737548828125,0.04608154296875
1759605486328,706959167,14315,16,-0.070556640625,-1.00250244140625,0.05120849609375
1759605486328,706959167,14315,17,-0.068359375,-0.99591064453125,0.04266357421875
1759605486328,706959167,14315,18,-0.0703125,-0.99664306640625,0.02655029296875
1759605486328,706959167,14315,19,-0.060546875,-1.00469970703125,0.00531005859375
1759605486328,706959167,14315,20,-0.057373046875,-0.98907470703125,0.00726318359375
1759605486328,706959167,14315,21,-0.062255859375,-0.99542236328125,0.02459716796875
1759605486328,706959167,14315,22,-0.061767578125,-1.00299072265625,0.02972412109375
1759605486328,706959167,14315,23,-0.066650390625,-0.99884033203125,0.04144287109375
1759605486328,706959167,14315,24,-0.066162109375,-0.99786376953125,0.05242919921875
1759605486328,706959167,14315,25,-0.0654296875,-1.00469970703125,0.04510498046875
1759605486328,706959167,14315,26,-0.063232421875,-0.98931884765625,0.04510498046875
1759605486328,706959167,14315,27,-0.066650390625,-0.99688720703125,0.03485107421875
1759605486328,706959167,14315,28,-0.061767578125,-0.99957275390625,0.00384521484375
1759605486328,706959167,14315,29,-0.060302734375,-0.99371337890625,0.02703857421875
1759605486328,706959167,14315,30,-0.073486328125,-0.99517822265625,0.04461669921875
1759605486328,706959167,14315,31,-0.06591796875,-1.00201416015625,0.04534912109375
1759605488715,706961740,14316,0,-0.069091796875,-0.99713134765625,0.06024169921875
1759605488715,706961740,14316,1,-0.077392578125,-0.99615478515625,0.06170654296875
1759605488715,706961740,14316,2,-0.075927734375,-1.00177001953125,0.05096435546875
1759605488715,706961740,14316,3,-0.070068359375,-0.99029541015625,0.03680419921875
1759605488715,706961740,14316,4,-0.0703125,-1.00054931640625,0.03094482421875
1759605488715,706961740,14316,5,-0.063720703125,-1.00177001953125,0.00750732421875
1759605488715,706961740,14316,6,-0.07177734375,-0.99371337890625,0.02728271484375
1759605488715,706961740,14316,7,-0.076171875,-0.99322509765625,0.04730224609375
1759605488715,706961740,14316,8,-0.06982421875,-0.99835205078125,0.06195068359375
1759605488715,706961740,14316,9,-0.066650390625,-0.99639892578125,0.07342529296875
1759605488715,706961740,14316,10,-0.0751953125,-0.99859619140625,0.07928466796875
1759605488715,706961740,14316,11,-0.08349609375,-0.99615478515625,0.07049560546875
1759605488715,706961740,14316,12,-0.07470703125,-0.99444580078125,0.05242919921875
1759605488715,706961740,14316,13,-0.06201171875,-0.99468994140625,0.03314208984375
1759605488715,706961740,14316,14,-0.04638671875,-0.98736572265625,0.00653076171875
1759605488715,706961740,14316,15,-0.061767578125,-0.98785400390625,0.00604248046875
1759605488715,706961740,14316,16,-0.0751953125,-1.00836181640625,0.04339599609375
1759605488715,706961740,14316,17,-0.05126953125,-0.99517822265625,0.03753662109375
1759605488715,706961740,14316,18,-0.04052734375,-0.97613525390625,0.05828857421875
1759605488715,706961740,14316,19,-0.0400390625,-0.98492431640625,0.07513427734375
1759605488715,706961740,14316,20,-0.046142578125,-1.00006103515625,0.05584716796875
1759605488715,706961740,14316,21,-0.054443359375,-1.02935791015625,0.00872802734375
1759605488715,706961740,14316,22,-0.06396484375,-0.99102783203125,0.01995849609375
1759605488715,706961740,14316,23,-0.04248046875,-0.99420166015625,-0.00372314453125
1759605488715,706961740,14316,24,-0.051513671875,-0.99078369140625,-0.00030517578125
1759605488715,706961740,14316,25,-0.0556640625,-1.00006103515625,0.02435302734375
1759605488715,706961740,14316,26,-0.050048828125,-1.00909423828125,0.04266357421875
1759605488715,706961740,14316,27,-0.052490234375,-0.99957275390625,0.03948974609375
1759605488715,706961740,14316,28,-0.0556640625,-1.00396728515625,0.04705810546875
1759605488715,706961740,14316,29,-0.0625,-0.98834228515625,0.04779052734375
1759605488715,706961740,14316,30,-0.0546875,-0.99981689453125,0.01556396484375
1759605488715,706961740,14316,31,-0.04736328125,-0.99688720703125,-0.01104736328125
1759605491299,706964313,14317,0,-0.058837890625,-0.99639892578125,-0.01861572265625
1759605491299,706964313,14317,1,-0.063232421875,-0.99371337890625,-0.00543212890625
1759605491299,706964313,14317,2,-0.070556640625,-0.99566650390625,0.03485107421875
1759605491299,706964313,14317,3,-0.06982421875,-1.00616455078125,0.03094482421875
1759605491299,706964313,14317,4,-0.069091796875,-0.99932861328125,0.03997802734375
1759605491299,706964313,14317,5,-0.066650390625,-1.00201416015625,0.04974365234375
1759605491299,706964313,14317,6,-0.075927734375,-0.99151611328125,0.04364013671875
1759605491299,706964313,14317,7,-0.068359375,-1.00030517578125,0.02728271484375
1759605491299,706964313,14317,8,-0.0595703125,-0.99639892578125,-0.00665283203125
1759605491299,706964313,14317,9,-0.06103515625,-0.99444580078125,-0.00177001953125
1759605491299,706964313,14317,10,-0.06298828125,-0.99542236328125,-0.00396728515625
1759605491299,706964313,14317,11,-0.068359375,-0.99737548828125,0.03631591796875
1759605491299,706964313,14317,12,-0.06884765625,-1.00225830078125,0.04559326171875
1759605491299,706964313,14317,13,-0.0712890625,-1.00030517578125,0.05169677734375
1759605491299,706964313,14317,14,-0.069091796875,-0.99737548828125,0.05145263671875
1759605491299,706964313,14317,15,-0.0751953125,-0.99200439453125,0.03729248046875
1759605491299,706964313,14317,16,-0.067626953125,-1.00250244140625,0.01336669921875
1759605491299,706964313,14317,17,-0.06103515625,-0.99615478515625,0.00384521484375
1759605491299,706964313,14317,18,-0.06201171875,-0.99493408203125,0.00531005859375
1759605491299,706964313,14317,19,-0.0556640625,-0.99444580078125,0.01751708984375
1759605491299,706964313,14317,20,-0.067626953125,-0.99859619140625,0.04119873046875
1759605491299,706964313,14317,21,-0.06201171875,-0.99908447265625,0.04901123046875
1759605491299,706964313,14317,22,-0.067626953125,-0.99884033203125,0.05291748046875
1759605491299,706964313,14317,23,-0.062744140625,-1.00567626953125,0.05780029296875
1759605491299,706964313,14317,24,-0.069091796875,-0.98468017578125,0.04998779296875
1759605491299,706964313,14317,25,-0.062744140625,-1.00177001953125,0.00750732421875
1759605491299,706964313,14317,26,-0.060302734375,-1.00006103515625,0.00555419921875
1759605491299,706964313,14317,27,-0.061767578125,-0.98883056640625,0.00726318359375
1759605491299,706964313,14317,28,-0.07177734375,-0.99664306640625,0.02655029296875
1759605491299,706964313,14317,29,-0.07421875,-0.99981689453125,0.04168701171875
1759605491299,706964313,14317,30,-0.074951171875,-1.00079345703125,0.03948974609375
1759605491299,706964313,14317,31,-0.0791015625,-1.00518798828125,0.05633544921875
1759605493883,706966886,14318,0,-0.075439453125,-0.99542236328125,0.04608154296875
1759605493883,706966886,14318,1,-0.0771484375,-0.99395751953125,0.03778076171875
1759605493883,706966886,14318,2,-0.07373046875,-1.00201416015625,0.01287841796875
1759605493883,706966886,14318,3,-0.06640625,-0.99420166015625,-0.00103759765625
1759605493883,706966886,14318,4,-0.068603515625,-0.99005126953125,0.02630615234375
1759605493883,706966886,14318,5,-0.07666015625,-0.99591064453125,0.04241943359375
1759605493883,706966886,14318,6,-0.07275390625,-1.00152587890625,0.04852294921875
1759605493883,706966886,14318,7,-0.08642578125,-0.99737548828125,0.06268310546875
1759605493883,706966886,14318,8,-0.0751953125,-1.00616455078125,0.05413818359375
1759605493883,706966886,14318,9,-0.093994140625,-0.99151611328125,0.05194091796875
1759605493883,706966886,14318,10,-0.07373046875,-0.99542236328125,0.00604248046875
1759605493883,706966886,14318,11,-0.0693359375,-1.00152587890625,-0.01593017578125
1759605493883,706966886,14318,12,-0.068115234375,-0.98907470703125,-0.01593017578125
1759605493883,706966886,14318,13,-0.0751953125,-0.98858642578125,0.02410888671875
1759605493883,706966886,14318,14,-0.079345703125,-0.99957275390625,0.03485107421875
1759605493883,706966886,14318,15,-0.077392578125,-1.00177001953125,0.04144287109375
1759605493883,706966886,14318,16,-0.080322265625,-1.00152587890625,0.05609130859375
1759605493883,706966886,14318,17,-0.076416015625,-0.99932861328125,0.04901123046875
1759605493883,706966886,14318,18,-0.074951171875,-0.99615478515625,0.03070068359375
1759605493883,706966886,14318,19,-0.062744140625,-1.00103759765625,0.00018310546875
1759605493883,706966886,14318,20,-0.053955078125,-0.99884033203125,-0.02056884765625
1759605493883,706966886,14318,21,-0.05517578125,-0.98565673828125,-6.103515625e-05
1759605493883,706966886,14318,22,-0.067138671875,-0.99786376953125,0.03289794921875
1759605493883,706966886,14318,23,-0.068115234375,-1.00152587890625,0.04193115234375
1759605493883,706966886,14318,24,-0.06640625,-0.99884033203125,0.05120849609375
1759605493883,706966886,14318,25,-0.0712890625,-0.99884033203125,0.06292724609375
1759605493883,706966886,14318,26,-0.06396484375,-0.99835205078125,0.05657958984375
1759605493883,706966886,14318,27,-0.070068359375,-0.99517822265625,0.03778076171875
1759605493883,706966886,14318,28,-0.055419921875,-1.00396728515625,0.00115966796875
1759605493883,706966886,14318,29,-0.052734375,-0.99322509765625,-0.00982666015625
1759605493883,706966886,14318,30,-0.051025390625,-0.99127197265625,-0.00225830078125
1759605493883,706966886,14318,31,-0.071044921875,-0.99835205078125,0.03997802734375
1759605496466,706969459,14319,0,-0.06640625,-1.00201416015625,0.05267333984375
1759605496466,706969459,14319,1,-0.07080078125,-0.99884033203125,0.06414794921875
1759605496466,706969459,14319,2,-0.07080078125,-0.99957275390625,0.07293701171875
1759605496466,706969459,14319,3,-0.061279296875,-0.99420166015625,0.07098388671875
1759605496466,706969459,14319,4,-0.072021484375,-0.99420166015625,0.06292724609375
1759605496466,706969459,14319,5,-0.0634765625,-0.99664306640625,0.01702880859375
1759605496466,706969459,14319,6,-0.054931640625,-0.99761962890625,-0.00543212890625
1759605496466,706969459,14319,7,-0.066650390625,-0.99444580078125,0.02362060546875
1759605496466,706969459,14319,8,-0.0693359375,-0.99884033203125,0.05023193359375
1759605496466,706969459,14319,9,-0.07080078125,-0.99786376953125,0.05853271484375
1759605496466,706969459,14319,10,-0.077392578125,-0.99420166015625,0.06976318359375
1759605496466,706969459,14319,11,-0.065673828125,-0.99932861328125,0.07781982421875
1759605496466,706969459,14319,12,-0.0947265625,-0.98785400390625,0.06439208984375
1759605496466,706969459,14319,13,-0.04931640625,-0.99737548828125,0.00970458984375
1759605496466,706969459,14319,14,-0.0634765625,-1.00250244140625,-0.00762939453125
1759605496466,706969459,14319,15,-0.07080078125,-1.00177001953125,-0.00836181640625
1759605496466,706969459,14319,16,-0.05859375,-0.98565673828125,0.00946044921875
1759605496466,706969459,14319,17,-0.076904296875,-1.00469970703125,0.05242919921875
1759605496466,706969459,14319,18,-0.05810546875,-0.99542236328125,0.06317138671875
1759605496466,706969459,14319,19,-0.08203125,-1.00030517578125,0.06561279296875
1759605496466,706969459,14319,20,-0.07568359375,-0.99664306640625,0.05902099609375
1759605496466,706969459,14319,21,-0.074462890625,-0.99639892578125,0.03387451171875
1759605496466,706969459,14319,22,-0.072998046875,-0.99249267578125,0.01849365234375
1759605496466,706969459,14319,23,-0.0771484375,-0.99591064453125,-0.00347900390625
1759605496466,706969459,14319,24,-0.064453125,-1.00006103515625,-0.01080322265625
1759605496466,706969459,14319,25,-0.076416015625,-0.98419189453125,0.02923583984375
1759605496466,706969459,14319,26,-0.082763671875,-0.99932861328125,0.05975341796875
1759605496466,706969459,14319,27,-0.056640625,-0.99884033203125,0.03753662109375
1759605496466,706969459,14319,28,-0.0712890625,-0.99932861328125,0.05828857421875
1759605496466,706969459,14319,29,-0.07861328125,-1.00128173828125,0.04974365234375
1759605496466,706969459,14319,30,-0.08251953125,-0.99737548828125,0.02655029296875
1759605496466,706969459,14319,31,-0.06982421875,-0.99957275390625,0.00115966796875
1759605499051,706972032,14320,0,-0.07177734375,-0.99957275390625,-0.01788330078125
1759605499051,706972032,14320,1,-0.06982421875,-0.98809814453125,-0.01788330078125
1759605499051,706972032,14320,2,-0.084228515625,-0.99420166015625,0.03778076171875
1759605499051,706972032,14320,3,-0.078857421875,-1.00274658203125,0.04241943359375
1759605499051,706972032,14320,4,-0.061767578125,-1.00201416015625,0.02874755859375
1759605499051,706972032,14320,5,-0.07470703125,-0.99737548828125,0.04803466796875
1759605499051,706972032,14320,6,-0.068603515625,-0.99713134765625,0.04412841796875
1759605499051,706972032,14320,7,-0.069580078125,-0.99786376953125,0.01068115234375
1759605499051,706972032,14320,8,-0.063720703125,-1.00274658203125,-0.01788330078125
1759605499051,706972032,14320,9,-0.05517578125,-0.99859619140625,-0.03619384765625
1759605499051,706972032,14320,10,-0.05029296875,-0.99615478515625,-0.03961181640625
1759605499051,706972032,14320,11,-0.06201171875,-0.99566650390625,-0.00640869140625
1759605499051,706972032,14320,12,-0.05859375,-0.99859619140625,0.02362060546875
1759605499051,706972032,14320,13,-0.059814453125,-1.00518798828125,0.01751708984375
1759605499051,706972032,14320,14,-0.064453125,-1.00543212890625,0.02752685546875
1759605499051,706972032,14320,15,-0.0673828125,-0.99713134765625,0.02630615234375
1759605499051,706972032,14320,16,-0.0791015625,-0.99908447265625,0.01580810546875
1759605499051,706972032,14320,17,-0.06494140625,-0.99713134765625,-0.01251220703125
1759605499051,706972032,14320,18,-0.06982421875,-0.99688720703125,-0.01470947265625
1759605499051,706972032,14320,19,-0.063232421875,-0.99468994140625,-0.02056884765625
1759605499051,706972032,14320,20,-0.0732421875,-1.00128173828125,-0.01617431640625
1759605499051,706972032,14320,21,-0.0703125,-0.99542236328125,-0.01470947265625
