receivedPhoneTimestamp,respeckTimestamp,packetSeqNum,sampleSeqNum,accelX,accelY,accelZ
1759330916571,518698601,8062,20,0.615966796875,-0.42340087890625,0.57611083984375
1759330916571,518698601,8062,21,0.6103515625,-0.42242431640625,0.57757568359375
1759330916571,518698601,8062,22,0.609619140625,-0.42462158203125,0.58001708984375
1759330916571,518698601,8062,23,0.601318359375,-0.42193603515625,0.58148193359375
1759330916571,518698601,8062,24,0.59912109375,-0.42144775390625,0.58685302734375
1759330916571,518698601,8062,25,0.597412109375,-0.42242431640625,0.59246826171875
1759330916571,518698601,8062,26,0.58740234375,-0.42193603515625,0.59295654296875
1759330916571,518698601,8062,27,0.591064453125,-0.42413330078125,0.59564208984375
1759330916571,518698601,8062,28,0.59130859375,-0.42144775390625,0.59710693359375
1759330916571,518698601,8062,29,0.59228515625,-0.41656494140625,0.59881591796875
1759330916571,518698601,8062,30,0.5908203125,-0.41973876953125,0.59515380859375
1759330916571,518698601,8062,31,0.59521484375,-0.42388916015625,0.59466552734375
1759330919107,518701144,8063,0,0.599853515625,-0.41754150390625,0.59857177734375
1759330919107,518701144,8063,1,0.59765625,-0.40924072265625,0.59197998046875
1759330919107,518701144,8063,2,0.59814453125,-0.41070556640625,0.58953857421875
1759330919107,518701144,8063,3,0.59814453125,-0.41705322265625,0.59197998046875
1759330919107,518701144,8063,4,0.598876953125,-0.41607666015625,0.59271240234375
1759330919107,518701144,8063,5,0.596923828125,-0.41558837890625,0.59686279296875
1759330919107,518701144,8063,6,0.594482421875,-0.41241455078125,0.59075927734375
1759330919107,518701144,8063,7,0.5986328125,-0.41925048828125,0.59613037109375
1759330919107,518701144,8063,8,0.600830078125,-0.41998291015625,0.59051513671875
1759330919107,518701144,8063,9,0.601806640625,-0.41094970703125,0.59075927734375
1759330919107,518701144,8063,10,0.599365234375,-0.41680908203125,0.58880615234375
1759330919107,518701144,8063,11,0.603271484375,-0.42291259765625,0.58636474609375
1759330919107,518701144,8063,12,0.6103515625,-0.42144775390625,0.58416748046875
1759330919107,518701144,8063,13,0.605224609375,-0.41363525390625,0.58392333984375
1759330919107,518701144,8063,14,0.60986328125,-0.41973876953125,0.57928466796875
1759330919107,518701144,8063,15,0.61083984375,-0.42291259765625,0.57977294921875
1759330919107,518701144,8063,16,0.602294921875,-0.42437744140625,0.58099365234375
1759330919107,518701144,8063,17,0.6044921875,-0.42413330078125,0.57977294921875
1759330919107,518701144,8063,18,0.606689453125,-0.42413330078125,0.58123779296875
1759330919107,518701144,8063,19,0.61181640625,-0.42315673828125,0.57781982421875
1759330919107,518701144,8063,20,0.61083984375,-0.42120361328125,0.57513427734375
1759330919107,518701144,8063,21,0.6123046875,-0.42877197265625,0.57513427734375
1759330919107,518701144,8063,22,0.617919921875,-0.42193603515625,0.57171630859375
1759330919107,518701144,8063,23,0.6142578125,-0.42022705078125,0.57025146484375
1759330919107,518701144,8063,24,0.611572265625,-0.42437744140625,0.57220458984375
1759330919107,518701144,8063,25,0.61181640625,-0.42779541015625,0.57806396484375
1759330919107,518701144,8063,26,0.60693359375,-0.42413330078125,0.57830810546875
1759330919107,518701144,8063,27,0.608642578125,-0.42828369140625,0.57830810546875
1759330919107,518701144,8063,28,0.603515625,-0.42633056640625,0.58123779296875
1759330919107,518701144,8063,29,0.598388671875,-0.42828369140625,0.58221435546875
1759330919107,518701144,8063,30,0.596923828125,-0.42291259765625,0.58685302734375
1759330919107,518701144,8063,31,0.59619140625,-0.42681884765625,0.59393310546875
1759330921690,518703687,8064,0,0.592041015625,-0.42071533203125,0.59075927734375
1759330921690,518703687,8064,1,0.590576171875,-0.42657470703125,0.59783935546875
1759330921690,518703687,8064,2,0.587890625,-0.42608642578125,0.59246826171875
1759330921690,518703687,8064,3,0.590087890625,-0.41265869140625,0.59295654296875
1759330921690,518703687,8064,4,0.587890625,-0.41998291015625,0.59490966796875
1759330921690,518703687,8064,5,0.58837890625,-0.42095947265625,0.59954833984375
1759330921690,518703687,8064,6,0.591796875,-0.42681884765625,0.59759521484375
1759330921690,518703687,8064,7,0.593505859375,-0.41729736328125,0.59295654296875
1759330921690,518703687,8064,8,0.596435546875,-0.42169189453125,0.59149169921875
1759330921690,518703687,8064,9,0.59521484375,-0.42462158203125,0.59002685546875
1759330921690,518703687,8064,10,0.598388671875,-0.42413330078125,0.58612060546875
1759330921690,518703687,8064,11,0.60302734375,-0.42462158203125,0.58514404296875
1759330921690,518703687,8064,12,0.60595703125,-0.42559814453125,0.58367919921875
1759330921690,518703687,8064,13,0.605224609375,-0.42437744140625,0.57733154296875
1759330921690,518703687,8064,14,0.6064453125,-0.42437744140625,0.57611083984375
1759330921690,518703687,8064,15,0.61181640625,-0.42755126953125,0.57855224609375
1759330921690,518703687,8064,16,0.61376953125,-0.42266845703125,0.57342529296875
1759330921690,518703687,8064,17,0.61669921875,-0.42266845703125,0.57318115234375
1759330921690,518703687,8064,18,0.609375,-0.42486572265625,0.57440185546875
1759330921690,518703687,8064,19,0.609619140625,-0.42803955078125,0.57635498046875
1759330921690,518703687,8064,20,0.612548828125,-0.42364501953125,0.57196044921875
1759330921690,518703687,8064,21,0.611083984375,-0.42437744140625,0.57098388671875
1759330921690,518703687,8064,22,0.6123046875,-0.42657470703125,0.57366943359375
1759330921690,518703687,8064,23,0.61083984375,-0.42803955078125,0.57440185546875
1759330921690,518703687,8064,24,0.61328125,-0.42608642578125,0.57489013671875
1759330921690,518703687,8064,25,0.612548828125,-0.42388916015625,0.57586669921875
1759330921690,518703687,8064,26,0.61181640625,-0.42657470703125,0.57342529296875
1759330921690,518703687,8064,27,0.609130859375,-0.42657470703125,0.57098388671875
1759330921690,518703687,8064,28,0.6103515625,-0.43341064453125,0.57684326171875
1759330921690,518703687,8064,29,0.612060546875,-0.42095947265625,0.57635498046875
1759330921690,518703687,8064,30,0.60693359375,-0.42559814453125,0.57586669921875
1759330921690,518703687,8064,31,0.602294921875,-0.42901611328125,0.57830810546875
1759330924373,518706230,8065,0,0.60302734375,-0.43316650390625,0.58148193359375
1759330924373,518706230,8065,1,0.599609375,-0.42437744140625,0.58660888671875
1759330924373,518706230,8065,2,0.5947265625,-0.42608642578125,0.58953857421875
1759330924373,518706230,8065,3,0.593505859375,-0.42901611328125,0.59027099609375
1759330924373,518706230,8065,4,0.59033203125,-0.42681884765625,0.59564208984375
1759330924373,518706230,8065,5,0.589599609375,-0.42340087890625,0.59368896484375
1759330924373,518706230,8065,6,0.585205078125,-0.41925048828125,0.59637451171875
1759330924373,518706230,8065,7,0.586181640625,-0.42266845703125,0.59686279296875
1759330924373,518706230,8065,8,0.5888671875,-0.42242431640625,0.59246826171875
1759330924373,518706230,8065,9,0.589599609375,-0.42877197265625,0.59295654296875
1759330924373,518706230,8065,10,0.59521484375,-0.42218017578125,0.59173583984375
1759330924373,518706230,8065,11,0.59375,-0.42340087890625,0.59002685546875
1759330924373,518706230,8065,12,0.594970703125,-0.42462158203125,0.58978271484375
1759330924373,518706230,8065,13,0.59912109375,-0.43023681640625,0.58929443359375
1759330924373,518706230,8065,14,0.60205078125,-0.42486572265625,0.58343505859375
1759330924373,518706230,8065,15,0.60205078125,-0.42486572265625,0.58392333984375
1759330924373,518706230,8065,16,0.60498046875,-0.42437744140625,0.57977294921875
1759330924373,518706230,8065,17,0.6025390625,-0.42584228515625,0.57928466796875
1759330924373,518706230,8065,18,0.6064453125,-0.42681884765625,0.57830810546875
1759330924373,518706230,8065,19,0.604736328125,-0.42755126953125,0.58001708984375
1759330924373,518706230,8065,20,0.603759765625,-0.42730712890625,0.58148193359375
1759330924373,518706230,8065,21,0.604248046875,-0.42730712890625,0.57977294921875
1759330924373,518706230,8065,22,0.6064453125,-0.42510986328125,0.57562255859375
1759330924373,518706230,8065,23,0.60986328125,-0.42877197265625,0.57757568359375
1759330924373,518706230,8065,24,0.610595703125,-0.42242431640625,0.57513427734375
1759330924373,518706230,8065,25,0.60888671875,-0.42755126953125,0.57489013671875
1759330924373,518706230,8065,26,0.607177734375,-0.43096923828125,0.57537841796875
1759330924373,518706230,8065,27,0.607421875,-0.43096923828125,0.58001708984375
1759330924373,518706230,8065,28,0.606689453125,-0.42730712890625,0.57977294921875
1759330924373,518706230,8065,29,0.60205078125,-0.42755126953125,0.58123779296875
1759330924373,518706230,8065,30,0.5986328125,-0.43243408203125,0.58392333984375
1759330924373,518706230,8065,31,0.597900390625,-0.43072509765625,0.58367919921875
1759330926712,518708773,8066,0,0.59765625,-0.42852783203125,0.58538818359375
1759330926712,518708773,8066,1,0.592041015625,-0.42950439453125,0.58636474609375
1759330926712,518708773,8066,2,0.58935546875,-0.42706298828125,0.59417724609375
1759330926712,518708773,8066,3,0.5869140625,-0.42706298828125,0.59490966796875
1759330926712,518708773,8066,4,0.5849609375,-0.42901611328125,0.59930419921875
1759330926712,518708773,8066,5,0.58349609375,-0.42803955078125,0.60076904296875
1759330926712,518708773,8066,6,0.58056640625,-0.42169189453125,0.60418701171875
1759330926712,518708773,8066,7,0.572509765625,-0.42266845703125,0.60711669921875
1759330926712,518708773,8066,8,0.58056640625,-0.42169189453125,0.60491943359375
1759330926712,518708773,8066,9,0.57373046875,-0.42413330078125,0.60858154296875
1759330926712,518708773,8066,10,0.5703125,-0.41802978515625,0.60784912109375
1759330926712,518708773,8066,11,0.5810546875,-0.41632080078125,0.61151123046875
1759330926712,518708773,8066,12,0.571533203125,-0.41729736328125,0.60931396484375
1759330926712,518708773,8066,13,0.5712890625,-0.41558837890625,0.61590576171875
1759330926712,518708773,8066,14,0.567138671875,-0.41925048828125,0.61468505859375
1759330926712,518708773,8066,15,0.56640625,-0.42242431640625,0.61297607421875
1759330926712,518708773,8066,16,0.571533203125,-0.42120361328125,0.61151123046875
1759330926712,518708773,8066,17,0.57958984375,-0.42559814453125,0.61126708984375
1759330926712,518708773,8066,18,0.580810546875,-0.42218017578125,0.60687255859375
1759330926712,518708773,8066,19,0.58154296875,-0.41876220703125,0.60565185546875
1759330926712,518708773,8066,20,0.582275390625,-0.42242431640625,0.60638427734375
1759330926712,518708773,8066,21,0.579833984375,-0.42681884765625,0.60589599609375
1759330926712,518708773,8066,22,0.5849609375,-0.42022705078125,0.60418701171875
1759330926712,518708773,8066,23,0.58544921875,-0.41998291015625,0.60443115234375
1759330926712,518708773,8066,24,0.587890625,-0.42486572265625,0.60394287109375
1759330926712,518708773,8066,25,0.584228515625,-0.42681884765625,0.59979248046875
1759330926712,518708773,8066,26,0.58642578125,-0.42388916015625,0.59759521484375
1759330926712,518708773,8066,27,0.58837890625,-0.42266845703125,0.59954833984375
1759330926712,518708773,8066,28,0.589599609375,-0.42413330078125,0.59881591796875
1759330926712,518708773,8066,29,0.591064453125,-0.42413330078125,0.59539794921875
1759330926712,518708773,8066,30,0.58935546875,-0.42218017578125,0.58929443359375
1759330926712,518708773,8066,31,0.595947265625,-0.42828369140625,0.59124755859375
1759330929248,518711316,8067,0,0.59814453125,-0.41949462890625,0.58319091796875
1759330929248,518711316,8067,1,0.59765625,-0.42413330078125,0.58905029296875
1759330929248,518711316,8067,2,0.59521484375,-0.42608642578125,0.58489990234375
1759330929248,518711316,8067,3,0.5986328125,-0.42633056640625,0.58782958984375
1759330929248,518711316,8067,4,0.60009765625,-0.42388916015625,0.58612060546875
1759330929248,518711316,8067,5,0.599609375,-0.42559814453125,0.58709716796875
1759330929248,518711316,8067,6,0.5986328125,-0.42608642578125,0.58660888671875
1759330929248,518711316,8067,7,0.60107421875,-0.42926025390625,0.58709716796875
1759330929248,518711316,8067,8,0.5986328125,-0.42462158203125,0.58514404296875
1759330929248,518711316,8067,9,0.60205078125,-0.42291259765625,0.58685302734375
1759330929248,518711316,8067,10,0.60009765625,-0.42877197265625,0.58709716796875
1759330929248,518711316,8067,11,0.602294921875,-0.42462158203125,0.58343505859375
1759330929248,518711316,8067,12,0.60205078125,-0.42803955078125,0.58489990234375
1759330929248,518711316,8067,13,0.6005859375,-0.42999267578125,0.58294677734375
1759330929248,518711316,8067,14,0.5947265625,-0.42559814453125,0.58465576171875
1759330929248,518711316,8067,15,0.59326171875,-0.43048095703125,0.58612060546875
1759330929248,518711316,8067,16,0.58740234375,-0.43463134765625,0.58978271484375
1759330929248,518711316,8067,17,0.586181640625,-0.43194580078125,0.59539794921875
1759330929248,518711316,8067,18,0.58447265625,-0.42974853515625,0.59979248046875
1759330929248,518711316,8067,19,0.58251953125,-0.42926025390625,0.60223388671875
1759330929248,518711316,8067,20,0.579345703125,-0.43267822265625,0.60418701171875
1759330929248,518711316,8067,21,0.576416015625,-0.43048095703125,0.61053466796875
1759330929248,518711316,8067,22,0.568359375,-0.42510986328125,0.61175537109375
1759330929248,518711316,8067,23,0.56689453125,-0.42462158203125,0.61810302734375
1759330929248,518711316,8067,24,0.562744140625,-0.41876220703125,0.62371826171875
1759330929248,518711316,8067,25,0.557861328125,-0.41558837890625,0.62225341796875
1759330929248,518711316,8067,26,0.555908203125,-0.41046142578125,0.61932373046875
1759330929248,518711316,8067,27,0.554931640625,-0.41143798828125,0.62249755859375
1759330929248,518711316,8067,28,0.556396484375,-0.41290283203125,0.62176513671875
1759330929248,518711316,8067,29,0.561767578125,-0.42218017578125,0.62030029296875
1759330929248,518711316,8067,30,0.5634765625,-0.41973876953125,0.62322998046875
1759330929248,518711316,8067,31,0.563720703125,-0.41827392578125,0.62005615234375
1759330931890,518713859,8068,0,0.5673828125,-0.42242431640625,0.61834716796875
1759330931890,518713859,8068,1,0.56982421875,-0.42633056640625,0.61199951171875
1759330931890,518713859,8068,2,0.57275390625,-0.42779541015625,0.60906982421875
1759330931890,518713859,8068,3,0.581298828125,-0.42388916015625,0.60711669921875
1759330931890,518713859,8068,4,0.583251953125,-0.42510986328125,0.59979248046875
1759330931890,518713859,8068,5,0.586669921875,-0.42486572265625,0.60247802734375
1759330931890,518713859,8068,6,0.58642578125,-0.42657470703125,0.59539794921875
1759330931890,518713859,8068,7,0.592041015625,-0.42413330078125,0.59295654296875
1759330931890,518713859,8068,8,0.592529296875,-0.42291259765625,0.59173583984375
1759330931890,518713859,8068,9,0.591552734375,-0.43023681640625,0.59271240234375
1759330931890,518713859,8068,10,0.59033203125,-0.42779541015625,0.58953857421875
1759330931890,518713859,8068,11,0.593994140625,-0.42608642578125,0.58880615234375
1759330931890,518713859,8068,12,0.59765625,-0.42633056640625,0.59027099609375
1759330931890,518713859,8068,13,0.5986328125,-0.42755126953125,0.58807373046875
1759330931890,518713859,8068,14,0.594482421875,-0.42779541015625,0.59051513671875
1759330931890,518713859,8068,15,0.593017578125,-0.42657470703125,0.59100341796875
1759330931890,518713859,8068,16,0.59521484375,-0.42779541015625,0.58929443359375
1759330931890,518713859,8068,17,0.594970703125,-0.42486572265625,0.58929443359375
1759330931890,518713859,8068,18,0.594482421875,-0.42901611328125,0.58905029296875
1759330931890,518713859,8068,19,0.592529296875,-0.42828369140625,0.59002685546875
1759330931890,518713859,8068,20,0.595947265625,-0.43023681640625,0.58563232421875
1759330931890,518713859,8068,21,0.59765625,-0.42559814453125,0.58880615234375
1759330931890,518713859,8068,22,0.59814453125,-0.42535400390625,0.59027099609375
1759330931890,518713859,8068,23,0.593994140625,-0.43170166015625,0.58734130859375
1759330931890,518713859,8068,24,0.593994140625,-0.43121337890625,0.59368896484375
1759330931890,518713859,8068,25,0.589111328125,-0.42779541015625,0.59295654296875
1759330931890,518713859,8068,26,0.587890625,-0.42828369140625,0.59295654296875
1759330931890,518713859,8068,27,0.5869140625,-0.42950439453125,0.59661865234375
1759330931890,518713859,8068,28,0.584716796875,-0.43096923828125,0.60394287109375
1759330931890,518713859,8068,29,0.57958984375,-0.42633056640625,0.60443115234375
1759330931890,518713859,8068,30,0.57275390625,-0.42315673828125,0.60906982421875
1759330931890,518713859,8068,31,0.574462890625,-0.42169189453125,0.61077880859375
1759330934314,518716402,8069,0,0.563720703125,-0.42169189453125,0.61126708984375
1759330934314,518716402,8069,1,0.560791015625,-0.41607666015625,0.61077880859375
1759330934314,518716402,8069,2,0.564208984375,-0.42730712890625,0.61395263671875
1759330934314,518716402,8069,3,0.57470703125,-0.41949462890625,0.61273193359375
1759330934314,518716402,8069,4,0.576171875,-0.42291259765625,0.61175537109375
1759330934314,518716402,8069,5,0.56884765625,-0.42486572265625,0.61004638671875
1759330934314,518716402,8069,6,0.568603515625,-0.42462158203125,0.61053466796875
1759330934314,518716402,8069,7,0.57666015625,-0.42364501953125,0.60955810546875
1759330934314,518716402,8069,8,0.579833984375,-0.42584228515625,0.60467529296875
1759330934314,518716402,8069,9,0.5810546875,-0.42657470703125,0.60516357421875
1759330934314,518716402,8069,10,0.579345703125,-0.42926025390625,0.60321044921875
1759330934314,518716402,8069,11,0.58056640625,-0.42633056640625,0.60174560546875
1759330934314,518716402,8069,12,0.58544921875,-0.42340087890625,0.60467529296875
1759330934314,518716402,8069,13,0.5830078125,-0.42828369140625,0.59759521484375
1759330934314,518716402,8069,14,0.583740234375,-0.42608642578125,0.59881591796875
1759330934314,518716402,8069,15,0.583740234375,-0.42852783203125,0.59735107421875
1759330934314,518716402,8069,16,0.59033203125,-0.42974853515625,0.59783935546875
1759330934314,518716402,8069,17,0.58544921875,-0.42681884765625,0.60223388671875
1759330934314,518716402,8069,18,0.582275390625,-0.43048095703125,0.59515380859375
1759330934314,518716402,8069,19,0.58544921875,-0.43267822265625,0.59539794921875
1759330934314,518716402,8069,20,0.585205078125,-0.43218994140625,0.59954833984375
1759330934314,518716402,8069,21,0.581298828125,-0.42852783203125,0.59588623046875
1759330934314,518716402,8069,22,0.583984375,-0.43096923828125,0.59588623046875
1759330934314,518716402,8069,23,0.58349609375,-0.43145751953125,0.59881591796875
1759330934314,518716402,8069,24,0.5830078125,-0.43145751953125,0.59881591796875
1759330934314,518716402,8069,25,0.58203125,-0.42974853515625,0.59906005859375
1759330934314,518716402,8069,26,0.58251953125,-0.43121337890625,0.59808349609375
1759330934314,518716402,8069,27,0.582275390625,-0.42828369140625,0.60272216796875
1759330934314,518716402,8069,28,0.58349609375,-0.43170166015625,0.59808349609375
1759330934314,518716402,8069,29,0.58544921875,-0.42950439453125,0.59954833984375
1759330934314,518716402,8069,30,0.5849609375,-0.42462158203125,0.59906005859375
1759330934314,518716402,8069,31,0.583984375,-0.43194580078125,0.59930419921875
1759330936857,518718945,8070,0,0.584228515625,-0.43218994140625,0.59564208984375
1759330936857,518718945,8070,1,0.58154296875,-0.43438720703125,0.60150146484375
1759330936857,518718945,8070,2,0.58251953125,-0.43145751953125,0.60125732421875
1759330936857,518718945,8070,3,0.582763671875,-0.43487548828125,0.61077880859375
1759330936857,518718945,8070,4,0.570068359375,-0.42828369140625,0.60125732421875
1759330936857,518718945,8070,5,0.56494140625,-0.42901611328125,0.60882568359375
1759330936857,518718945,8070,6,0.567626953125,-0.43145751953125,0.61053466796875
1759330936857,518718945,8070,7,0.565185546875,-0.42877197265625,0.61151123046875
1759330936857,518718945,8070,8,0.56298828125,-0.43170166015625,0.60931396484375
1759330936857,518718945,8070,9,0.565185546875,-0.43341064453125,0.61102294921875
1759330936857,518718945,8070,10,0.56591796875,-0.42828369140625,0.61151123046875
1759330936857,518718945,8070,11,0.569091796875,-0.43365478515625,0.61151123046875
1759330936857,518718945,8070,12,0.56689453125,-0.43145751953125,0.60882568359375
1759330936857,518718945,8070,13,0.565185546875,-0.43438720703125,0.60833740234375
1759330936857,518718945,8070,14,0.568603515625,-0.42926025390625,0.60760498046875
1759330936857,518718945,8070,15,0.571533203125,-0.42877197265625,0.60760498046875
1759330936857,518718945,8070,16,0.577392578125,-0.43389892578125,0.60638427734375
1759330936857,518718945,8070,17,0.583984375,-0.42999267578125,0.60565185546875
1759330936857,518718945,8070,18,0.57958984375,-0.43194580078125,0.60345458984375
1759330936857,518718945,8070,19,0.58056640625,-0.42950439453125,0.60467529296875
1759330936857,518718945,8070,20,0.579345703125,-0.43218994140625,0.60467529296875
1759330936857,518718945,8070,21,0.574951171875,-0.42901611328125,0.60321044921875
1759330936857,518718945,8070,22,0.5771484375,-0.43341064453125,0.60565185546875
1759330936857,518718945,8070,23,0.578369140625,-0.42926025390625,0.60565185546875
1759330936857,518718945,8070,24,0.567626953125,-0.42828369140625,0.60809326171875
1759330936857,518718945,8070,25,0.564453125,-0.42852783203125,0.61151123046875
1759330936857,518718945,8070,26,0.56494140625,-0.42926025390625,0.61297607421875
1759330936857,518718945,8070,27,0.5634765625,-0.42535400390625,0.61224365234375
1759330936857,518718945,8070,28,0.56298828125,-0.42462158203125,0.61614990234375
1759330936857,518718945,8070,29,0.5625,-0.42633056640625,0.61517333984375
1759330936857,518718945,8070,30,0.560302734375,-0.42486572265625,0.61663818359375
1759330936857,518718945,8070,31,0.5576171875,-0.42193603515625,0.61737060546875
1759330939386,518721488,8071,0,0.5625,-0.42340087890625,0.61663818359375
1759330939386,518721488,8071,1,0.563232421875,-0.42364501953125,0.61688232421875
1759330939386,518721488,8071,2,0.56591796875,-0.42266845703125,0.61395263671875
1759330939386,518721488,8071,3,0.567626953125,-0.42608642578125,0.60711669921875
1759330939386,518721488,8071,4,0.57421875,-0.41973876953125,0.60711669921875
1759330939386,518721488,8071,5,0.5771484375,-0.42413330078125,0.60906982421875
1759330939386,518721488,8071,6,0.578857421875,-0.42584228515625,0.60443115234375
1759330939386,518721488,8071,7,0.578857421875,-0.42828369140625,0.60516357421875
1759330939386,518721488,8071,8,0.58251953125,-0.42388916015625,0.60394287109375
1759330939386,518721488,8071,9,0.585205078125,-0.42633056640625,0.60223388671875
1759330939386,518721488,8071,10,0.586181640625,-0.42901611328125,0.60076904296875
1759330939386,518721488,8071,11,0.587158203125,-0.42803955078125,0.59930419921875
1759330939386,518721488,8071,12,0.587646484375,-0.42486572265625,0.59661865234375
1759330939386,518721488,8071,13,0.58642578125,-0.42388916015625,0.60150146484375
1759330939386,518721488,8071,14,0.58740234375,-0.42828369140625,0.59906005859375
1759330939386,518721488,8071,15,0.584228515625,-0.42633056640625,0.59930419921875
1759330939386,518721488,8071,16,0.585693359375,-0.43121337890625,0.59930419921875
1759330939386,518721488,8071,17,0.58837890625,-0.42681884765625,0.60076904296875
1759330939386,518721488,8071,18,0.584228515625,-0.42706298828125,0.59759521484375
1759330939386,518721488,8071,19,0.58642578125,-0.42779541015625,0.59735107421875
1759330939386,518721488,8071,20,0.5849609375,-0.43170166015625,0.59954833984375
1759330939386,518721488,8071,21,0.585693359375,-0.42803955078125,0.59783935546875
1759330939386,518721488,8071,22,0.5869140625,-0.42730712890625,0.60198974609375
1759330939386,518721488,8071,23,0.587646484375,-0.42657470703125,0.59759521484375
1759330939386,518721488,8071,24,0.58447265625,-0.42681884765625,0.59710693359375
1759330939386,518721488,8071,25,0.587158203125,-0.42730712890625,0.59173583984375
1759330939386,518721488,8071,26,0.58935546875,-0.42828369140625,0.59783935546875
1759330939386,518721488,8071,27,0.5888671875,-0.43048095703125,0.60101318359375
1759330939386,518721488,8071,28,0.58642578125,-0.42803955078125,0.59930419921875
1759330939386,518721488,8071,29,0.582763671875,-0.42828369140625,0.59930419921875
1759330939386,518721488,8071,30,0.582763671875,-0.43658447265625,0.60321044921875
1759330939386,518721488,8071,31,0.583740234375,-0.42950439453125,0.60296630859375
1759330941924,518724031,8072,0,0.5771484375,-0.42486572265625,0.60540771484375
1759330941924,518724031,8072,1,0.576171875,-0.42926025390625,0.60638427734375
1759330941924,518724031,8072,2,0.576171875,-0.43292236328125,0.60760498046875
1759330941924,518724031,8072,3,0.571044921875,-0.42462158203125,0.60906982421875
1759330941924,518724031,8072,4,0.56689453125,-0.42315673828125,0.61273193359375
1759330941924,518724031,8072,5,0.566650390625,-0.42706298828125,0.61077880859375
1759330941924,518724031,8072,6,0.56298828125,-0.42486572265625,0.61346435546875
1759330941924,518724031,8072,7,0.563232421875,-0.42266845703125,0.61199951171875
1759330941924,518724031,8072,8,0.564208984375,-0.42291259765625,0.61663818359375
1759330941924,518724031,8072,9,0.56005859375,-0.42218017578125,0.61663818359375
1759330941924,518724031,8072,10,0.561767578125,-0.42437744140625,0.61712646484375
1759330941924,518724031,8072,11,0.5625,-0.42486572265625,0.61297607421875
1759330941924,518724031,8072,12,0.562744140625,-0.41900634765625,0.61614990234375
1759330941924,518724031,8072,13,0.56494140625,-0.42242431640625,0.61322021484375
1759330941924,518724031,8072,14,0.568359375,-0.42901611328125,0.60955810546875
1759330941924,518724031,8072,15,0.574462890625,-0.42950439453125,0.61248779296875
1759330941924,518724031,8072,16,0.56884765625,-0.42535400390625,0.61102294921875
1759330941924,518724031,8072,17,0.571533203125,-0.42657470703125,0.61224365234375
1759330941924,518724031,8072,18,0.576416015625,-0.43048095703125,0.60906982421875
1759330941924,518724031,8072,19,0.57568359375,-0.43194580078125,0.60809326171875
1759330941924,518724031,8072,20,0.576171875,-0.42755126953125,0.60565185546875
1759330941924,518724031,8072,21,0.580078125,-0.42828369140625,0.60760498046875
1759330941924,518724031,8072,22,0.57861328125,-0.42901611328125,0.60467529296875
1759330941924,518724031,8072,23,0.582763671875,-0.42633056640625,0.60150146484375
1759330941924,518724031,8072,24,0.58349609375,-0.43487548828125,0.59979248046875
1759330941924,518724031,8072,25,0.5859375,-0.42803955078125,0.60076904296875
1759330941924,518724031,8072,26,0.58447265625,-0.42657470703125,0.59979248046875
1759330941924,518724031,8072,27,0.58642578125,-0.42999267578125,0.60028076171875
1759330941924,518724031,8072,28,0.584716796875,-0.43267822265625,0.59979248046875
1759330941924,518724031,8072,29,0.588623046875,-0.42852783203125,0.60198974609375
1759330941924,518724031,8072,30,0.58642578125,-0.42828369140625,0.60272216796875
1759330941924,518724031,8072,31,0.5869140625,-0.43048095703125,0.59881591796875
1759330944457,518726574,8073,0,0.582763671875,-0.43316650390625,0.59979248046875
1759330944457,518726574,8073,1,0.583984375,-0.43096923828125,0.59808349609375
1759330944457,518726574,8073,2,0.584228515625,-0.43048095703125,0.59954833984375
1759330944457,518726574,8073,3,0.584716796875,-0.42974853515625,0.60174560546875
1759330944457,518726574,8073,4,0.586181640625,-0.43194580078125,0.60101318359375
1759330944457,518726574,8073,5,0.581787109375,-0.42877197265625,0.59808349609375
1759330944457,518726574,8073,6,0.584716796875,-0.43243408203125,0.59930419921875
1759330944457,518726574,8073,7,0.585693359375,-0.42828369140625,0.60296630859375
1759330944457,518726574,8073,8,0.58642578125,-0.42828369140625,0.59759521484375
1759330944457,518726574,8073,9,0.580078125,-0.42755126953125,0.60345458984375
1759330944457,518726574,8073,10,0.57470703125,-0.42999267578125,0.60418701171875
1759330944457,518726574,8073,11,0.57373046875,-0.42584228515625,0.60760498046875
1759330944457,518726574,8073,12,0.56982421875,-0.42559814453125,0.60931396484375
1759330944457,518726574,8073,13,0.567138671875,-0.42657470703125,0.60906982421875
1759330944457,518726574,8073,14,0.564208984375,-0.42462158203125,0.61199951171875
1759330944457,518726574,8073,15,0.562255859375,-0.42315673828125,0.61468505859375
1759330944457,518726574,8073,16,0.5625,-0.41949462890625,0.61834716796875
1759330944457,518726574,8073,17,0.5615234375,-0.42120361328125,0.61566162109375
1759330944457,518726574,8073,18,0.558837890625,-0.41778564453125,0.61737060546875
1759330944457,518726574,8073,19,0.557373046875,-0.42559814453125,0.62030029296875
1759330944457,518726574,8073,20,0.562255859375,-0.42071533203125,0.61810302734375
1759330944457,518726574,8073,21,0.56494140625,-0.42120361328125,0.61981201171875
1759330944457,518726574,8073,22,0.561767578125,-0.42413330078125,0.61468505859375
1759330944457,518726574,8073,23,0.564208984375,-0.42608642578125,0.60955810546875
1759330944457,518726574,8073,24,0.568115234375,-0.42779541015625,0.61297607421875
1759330944457,518726574,8073,25,0.565673828125,-0.42120361328125,0.61199951171875
1759330944457,518726574,8073,26,0.5771484375,-0.42755126953125,0.60638427734375
1759330944457,518726574,8073,27,0.579833984375,-0.42706298828125,0.60809326171875
1759330944457,518726574,8073,28,0.580810546875,-0.42413330078125,0.60565185546875
1759330944457,518726574,8073,29,0.5830078125,-0.42559814453125,0.60662841796875
1759330944457,518726574,8073,30,0.581298828125,-0.42584228515625,0.60736083984375
1759330944457,518726574,8073,31,0.581787109375,-0.42535400390625,0.60443115234375
1759330946991,518729117,8074,0,0.582275390625,-0.42559814453125,0.60101318359375
1759330946991,518729117,8074,1,0.580810546875,-0.42950439453125,0.60223388671875
1759330946991,518729117,8074,2,0.5859375,-0.42535400390625,0.60223388671875
1759330946991,518729117,8074,3,0.584228515625,-0.42852783203125,0.60198974609375
1759330946991,518729117,8074,4,0.58349609375,-0.42852783203125,0.60272216796875
1759330946991,518729117,8074,5,0.583740234375,-0.43243408203125,0.60125732421875
1759330946991,518729117,8074,6,0.583251953125,-0.42413330078125,0.60028076171875
1759330946991,518729117,8074,7,0.580810546875,-0.42877197265625,0.60198974609375
1759330946991,518729117,8074,8,0.5830078125,-0.43121337890625,0.60028076171875
1759330946991,518729117,8074,9,0.583251953125,-0.43023681640625,0.60321044921875
1759330946991,518729117,8074,10,0.58349609375,-0.42950439453125,0.60491943359375
