receivedPhoneTimestamp,respeckTimestamp,packetSeqNum,sampleSeqNum,accelX,accelY,accelZ
1759957144149,1058622088,24890,8,0.59423828125,-0.05963134765625,-0.83746337890625
1759957144149,1058622088,24890,9,0.580322265625,-0.06207275390625,-0.83941650390625
1759957144149,1058622088,24890,10,0.569580078125,-0.05938720703125,-0.85430908203125
1759957144149,1058622088,24890,11,0.56689453125,-0.05230712890625,-0.84185791015625
1759957144149,1058622088,24890,12,0.56689453125,-0.04400634765625,-0.85260009765625
1759957144149,1058622088,24890,13,0.559814453125,-0.03887939453125,-0.85943603515625
1759957144149,1058622088,24890,14,0.556640625,-0.04669189453125,-0.85113525390625
1759957144149,1058622088,24890,15,0.56396484375,-0.04449462890625,-0.84210205078125
1759957144149,1058622088,24890,16,0.563720703125,-0.04864501953125,-0.85479736328125
1759957144149,1058622088,24890,17,0.568603515625,-0.04595947265625,-0.85870361328125
1759957144149,1058622088,24890,18,0.563720703125,-0.04840087890625,-0.86260986328125
1759957144149,1058622088,24890,19,0.557373046875,-0.04962158203125,-0.84869384765625
1759957144149,1058622088,24890,20,0.55419921875,-0.04766845703125,-0.84429931640625
1759957144149,1058622088,24890,21,0.55712890625,-0.04205322265625,-0.85430908203125
1759957144149,1058622088,24890,22,0.561279296875,-0.03521728515625,-0.85284423828125
1759957144149,1058622088,24890,23,0.556884765625,-0.03302001953125,-0.84332275390625
1759957144149,1058622088,24890,24,0.55615234375,-0.03692626953125,-0.85162353515625
1759957144149,1058622088,24890,25,0.5673828125,-0.03814697265625,-0.86041259765625
1759957144149,1058622088,24890,26,0.55712890625,-0.03741455078125,-0.85992431640625
1759957144149,1058622088,24890,27,0.5576171875,-0.03765869140625,-0.84747314453125
1759957144149,1058622088,24890,28,0.564453125,-0.03814697265625,-0.85162353515625
1759957144149,1058622088,24890,29,0.55859375,-0.03961181640625,-0.85089111328125
1759957144149,1058622088,24890,30,0.5615234375,-0.03863525390625,-0.84991455078125
1759957144149,1058622088,24890,31,0.56494140625,-0.03424072265625,-0.85260009765625
1759957146535,1058624655,24891,0,0.568359375,-0.03643798828125,-0.85479736328125
1759957146535,1058624655,24891,1,0.5625,-0.03741455078125,-0.85333251953125
1759957146535,1058624655,24891,2,0.556396484375,-0.04156494140625,-0.85113525390625
1759957146535,1058624655,24891,3,0.565185546875,-0.03936767578125,-0.85626220703125
1759957146535,1058624655,24891,4,0.558837890625,-0.03936767578125,-0.85162353515625
1759957146535,1058624655,24891,5,0.55712890625,-0.04132080078125,-0.85137939453125
1759957146535,1058624655,24891,6,0.554443359375,-0.04278564453125,-0.85064697265625
1759957146535,1058624655,24891,7,0.553466796875,-0.04644775390625,-0.85797119140625
1759957146535,1058624655,24891,8,0.556640625,-0.04962158203125,-0.86065673828125
1759957146535,1058624655,24891,9,0.55078125,-0.04742431640625,-0.85357666015625
1759957146535,1058624655,24891,10,0.549072265625,-0.04351806640625,-0.85772705078125
1759957146535,1058624655,24891,11,0.553466796875,-0.04669189453125,-0.85699462890625
1759957146535,1058624655,24891,12,0.55029296875,-0.04913330078125,-0.85675048828125
1759957146535,1058624655,24891,13,0.547119140625,-0.04864501953125,-0.85894775390625
1759957146535,1058624655,24891,14,0.55322265625,-0.04913330078125,-0.86041259765625
1759957146535,1058624655,24891,15,0.550537109375,-0.04986572265625,-0.85601806640625
1759957146535,1058624655,24891,16,0.552734375,-0.05206298828125,-0.85992431640625
1759957146535,1058624655,24891,17,0.552001953125,-0.04937744140625,-0.85626220703125
1759957146535,1058624655,24891,18,0.55322265625,-0.04864501953125,-0.85479736328125
1759957146535,1058624655,24891,19,0.552978515625,-0.04962158203125,-0.85479736328125
1759957146535,1058624655,24891,20,0.552734375,-0.04864501953125,-0.85430908203125
1759957146535,1058624655,24891,21,0.5537109375,-0.04815673828125,-0.85455322265625
1759957146535,1058624655,24891,22,0.555908203125,-0.05157470703125,-0.85479736328125
1759957146535,1058624655,24891,23,0.556396484375,-0.04913330078125,-0.85772705078125
1759957146535,1058624655,24891,24,0.5546875,-0.04864501953125,-0.85601806640625
1759957146535,1058624655,24891,25,0.552734375,-0.04937744140625,-0.85675048828125
1759957146535,1058624655,24891,26,0.552978515625,-0.04766845703125,-0.85504150390625
1759957146535,1058624655,24891,27,0.553955078125,-0.04766845703125,-0.85601806640625
1759957146535,1058624655,24891,28,0.55224609375,-0.04913330078125,-0.85430908203125
1759957146535,1058624655,24891,29,0.553466796875,-0.04888916015625,-0.85699462890625
1759957146535,1058624655,24891,30,0.5546875,-0.04986572265625,-0.85430908203125
1759957146535,1058624655,24891,31,0.552978515625,-0.04913330078125,-0.85577392578125
1759957149120,1058627222,24892,0,0.55517578125,-0.05010986328125,-0.85601806640625
1759957149120,1058627222,24892,1,0.55419921875,-0.05010986328125,-0.85723876953125
1759957149120,1058627222,24892,2,0.55322265625,-0.04986572265625,-0.85455322265625
1759957149120,1058627222,24892,3,0.556884765625,-0.05084228515625,-0.85479736328125
1759957149120,1058627222,24892,4,0.552490234375,-0.04766845703125,-0.85968017578125
1759957149120,1058627222,24892,5,0.5537109375,-0.04937744140625,-0.85406494140625
1759957149120,1058627222,24892,6,0.555908203125,-0.04962158203125,-0.85528564453125
1759957149120,1058627222,24892,7,0.556640625,-0.04937744140625,-0.85650634765625
1759957149120,1058627222,24892,8,0.55517578125,-0.05035400390625,-0.85479736328125
1759957149120,1058627222,24892,9,0.554931640625,-0.04644775390625,-0.85186767578125
1759957149120,1058627222,24892,10,0.554931640625,-0.04962158203125,-0.85382080078125
1759957149120,1058627222,24892,11,0.55615234375,-0.04937744140625,-0.85601806640625
1759957149120,1058627222,24892,12,0.5576171875,-0.04840087890625,-0.85723876953125
1759957149120,1058627222,24892,13,0.555908203125,-0.04986572265625,-0.85235595703125
1759957149120,1058627222,24892,14,0.56005859375,-0.04766845703125,-0.85748291015625
1759957149120,1058627222,24892,15,0.556396484375,-0.04937744140625,-0.85382080078125
1759957149120,1058627222,24892,16,0.555908203125,-0.04742431640625,-0.85455322265625
1759957149120,1058627222,24892,17,0.556396484375,-0.05206298828125,-0.85064697265625
1759957149120,1058627222,24892,18,0.55859375,-0.05010986328125,-0.85504150390625
1759957149120,1058627222,24892,19,0.55419921875,-0.04840087890625,-0.85333251953125
1759957149120,1058627222,24892,20,0.554443359375,-0.04766845703125,-0.85479736328125
1759957149120,1058627222,24892,21,0.5546875,-0.04718017578125,-0.85406494140625
1759957149120,1058627222,24892,22,0.556396484375,-0.04669189453125,-0.85552978515625
1759957149120,1058627222,24892,23,0.557861328125,-0.04449462890625,-0.85748291015625
1759957149120,1058627222,24892,24,0.555419921875,-0.04669189453125,-0.85650634765625
1759957149120,1058627222,24892,25,0.5556640625,-0.04595947265625,-0.85333251953125
1759957149120,1058627222,24892,26,0.555419921875,-0.04547119140625,-0.85357666015625
1759957149120,1058627222,24892,27,0.558349609375,-0.04718017578125,-0.85577392578125
1759957149120,1058627222,24892,28,0.554931640625,-0.04742431640625,-0.85577392578125
1759957149120,1058627222,24892,29,0.55712890625,-0.04644775390625,-0.85430908203125
1759957149120,1058627222,24892,30,0.55712890625,-0.04791259765625,-0.85015869140625
1759957149120,1058627222,24892,31,0.558837890625,-0.04693603515625,-0.85284423828125
1759957151703,1058629790,24893,0,0.553955078125,-0.04595947265625,-0.85797119140625
1759957151703,1058629790,24893,1,0.554931640625,-0.04595947265625,-0.85284423828125
1759957151703,1058629790,24893,2,0.55517578125,-0.04644775390625,-0.85552978515625
1759957151703,1058629790,24893,3,0.556640625,-0.04522705078125,-0.85748291015625
1759957151703,1058629790,24893,4,0.554443359375,-0.04644775390625,-0.85064697265625
1759957151703,1058629790,24893,5,0.556640625,-0.04742431640625,-0.85748291015625
1759957151703,1058629790,24893,6,0.555908203125,-0.04351806640625,-0.85577392578125
1759957151703,1058629790,24893,7,0.5556640625,-0.04473876953125,-0.85479736328125
1759957151703,1058629790,24893,8,0.5546875,-0.04473876953125,-0.85357666015625
1759957151703,1058629790,24893,9,0.554931640625,-0.04498291015625,-0.85748291015625
1759957151703,1058629790,24893,10,0.554443359375,-0.04547119140625,-0.85577392578125
1759957151703,1058629790,24893,11,0.552001953125,-0.04840087890625,-0.85748291015625
1759957151703,1058629790,24893,12,0.55517578125,-0.04547119140625,-0.85577392578125
1759957151703,1058629790,24893,13,0.553955078125,-0.04669189453125,-0.85308837890625
1759957151703,1058629790,24893,14,0.555419921875,-0.04595947265625,-0.85845947265625
1759957151703,1058629790,24893,15,0.554931640625,-0.04791259765625,-0.85577392578125
1759957151703,1058629790,24893,16,0.55615234375,-0.04888916015625,-0.85577392578125
1759957151703,1058629790,24893,17,0.550048828125,-0.05108642578125,-0.85601806640625
1759957151703,1058629790,24893,18,0.557373046875,-0.04766845703125,-0.85577392578125
1759957151703,1058629790,24893,19,0.55419921875,-0.04937744140625,-0.85601806640625
1759957151703,1058629790,24893,20,0.55419921875,-0.05010986328125,-0.85528564453125
1759957151703,1058629790,24893,21,0.55615234375,-0.04766845703125,-0.85723876953125
1759957151703,1058629790,24893,22,0.55810546875,-0.04937744140625,-0.85870361328125
1759957151703,1058629790,24893,23,0.555419921875,-0.04840087890625,-0.85357666015625
1759957151703,1058629790,24893,24,0.55126953125,-0.04986572265625,-0.85284423828125
1759957151703,1058629790,24893,25,0.55615234375,-0.05133056640625,-0.85479736328125
1759957151703,1058629790,24893,26,0.554443359375,-0.05035400390625,-0.85797119140625
1759957151703,1058629790,24893,27,0.556396484375,-0.05035400390625,-0.85821533203125
1759957151703,1058629790,24893,28,0.55322265625,-0.04962158203125,-0.85479736328125
1759957151703,1058629790,24893,29,0.554443359375,-0.04913330078125,-0.85552978515625
1759957151703,1058629790,24893,30,0.554931640625,-0.05035400390625,-0.85186767578125
1759957151703,1058629790,24893,31,0.554931640625,-0.04815673828125,-0.85601806640625
1759957154684,1058632357,24894,0,0.555419921875,-0.04840087890625,-0.85699462890625
1759957154684,1058632357,24894,1,0.554931640625,-0.04815673828125,-0.85723876953125
1759957154684,1058632357,24894,2,0.55712890625,-0.04766845703125,-0.85455322265625
1759957154684,1058632357,24894,3,0.55419921875,-0.04840087890625,-0.85406494140625
1759957154684,1058632357,24894,4,0.55615234375,-0.04962158203125,-0.85308837890625
1759957154684,1058632357,24894,5,0.554443359375,-0.04840087890625,-0.85650634765625
1759957154684,1058632357,24894,6,0.554443359375,-0.04840087890625,-0.85577392578125
1759957154684,1058632357,24894,7,0.553466796875,-0.04620361328125,-0.85406494140625
1759957154684,1058632357,24894,8,0.555419921875,-0.04522705078125,-0.85504150390625
1759957154684,1058632357,24894,9,0.5546875,-0.04571533203125,-0.85699462890625
1759957154684,1058632357,24894,10,0.55615234375,-0.04693603515625,-0.85211181640625
1759957154684,1058632357,24894,11,0.55712890625,-0.04620361328125,-0.85552978515625
1759957154684,1058632357,24894,12,0.55615234375,-0.04376220703125,-0.85528564453125
1759957154684,1058632357,24894,13,0.556640625,-0.04595947265625,-0.85455322265625
1759957154684,1058632357,24894,14,0.554931640625,-0.04522705078125,-0.85382080078125
1759957154684,1058632357,24894,15,0.554443359375,-0.04669189453125,-0.85626220703125
1759957154684,1058632357,24894,16,0.55615234375,-0.04595947265625,-0.85577392578125
1759957154684,1058632357,24894,17,0.554443359375,-0.04791259765625,-0.84991455078125
1759957154684,1058632357,24894,18,0.55615234375,-0.04595947265625,-0.85211181640625
1759957154684,1058632357,24894,19,0.553955078125,-0.04620361328125,-0.85235595703125
1759957154684,1058632357,24894,20,0.55419921875,-0.04815673828125,-0.85650634765625
1759957154684,1058632357,24894,21,0.554443359375,-0.04547119140625,-0.85552978515625
1759957154684,1058632357,24894,22,0.554443359375,-0.04766845703125,-0.85406494140625
1759957154684,1058632357,24894,23,0.55615234375,-0.04547119140625,-0.85650634765625
1759957154684,1058632357,24894,24,0.555419921875,-0.04620361328125,-0.85357666015625
1759957154684,1058632357,24894,25,0.556640625,-0.04644775390625,-0.85260009765625
1759957154684,1058632357,24894,26,0.55517578125,-0.04425048828125,-0.85675048828125
1759957154684,1058632357,24894,27,0.556640625,-0.04376220703125,-0.85113525390625
1759957154684,1058632357,24894,28,0.55517578125,-0.04644775390625,-0.85064697265625
1759957154684,1058632357,24894,29,0.555908203125,-0.04522705078125,-0.85650634765625
1759957154684,1058632357,24894,30,0.55712890625,-0.04449462890625,-0.85430908203125
1759957154684,1058632357,24894,31,0.556396484375,-0.04669189453125,-0.85675048828125
1759957156872,1058634924,24895,0,0.556396484375,-0.04547119140625,-0.85479736328125
1759957156872,1058634924,24895,1,0.557373046875,-0.04449462890625,-0.85601806640625
1759957156872,1058634924,24895,2,0.55419921875,-0.04278564453125,-0.85504150390625
1759957156872,1058634924,24895,3,0.5546875,-0.04522705078125,-0.85308837890625
1759957156872,1058634924,24895,4,0.555908203125,-0.04547119140625,-0.85528564453125
1759957156872,1058634924,24895,5,0.554443359375,-0.04473876953125,-0.85504150390625
1759957156872,1058634924,24895,6,0.5546875,-0.04620361328125,-0.85552978515625
1759957156872,1058634924,24895,7,0.555419921875,-0.04498291015625,-0.85675048828125
1759957156872,1058634924,24895,8,0.554443359375,-0.04693603515625,-0.85601806640625
1759957156872,1058634924,24895,9,0.5556640625,-0.04327392578125,-0.85675048828125
1759957156872,1058634924,24895,10,0.556884765625,-0.04522705078125,-0.85601806640625
1759957156872,1058634924,24895,11,0.561279296875,-0.04595947265625,-0.85577392578125
1759957156872,1058634924,24895,12,0.556884765625,-0.04595947265625,-0.85626220703125
1759957156872,1058634924,24895,13,0.56298828125,-0.04498291015625,-0.85211181640625
1759957156872,1058634924,24895,14,0.559814453125,-0.04522705078125,-0.84869384765625
1759957156872,1058634924,24895,15,0.560302734375,-0.04498291015625,-0.84747314453125
1759957156872,1058634924,24895,16,0.559326171875,-0.04327392578125,-0.85186767578125
1759957156872,1058634924,24895,17,0.558837890625,-0.04595947265625,-0.85089111328125
1759957156872,1058634924,24895,18,0.558837890625,-0.04400634765625,-0.85137939453125
1759957156872,1058634924,24895,19,0.560791015625,-0.04449462890625,-0.84942626953125
1759957156872,1058634924,24895,20,0.559814453125,-0.04254150390625,-0.85528564453125
1759957156872,1058634924,24895,21,0.556640625,-0.04132080078125,-0.85308837890625
1759957156872,1058634924,24895,22,0.555908203125,-0.04254150390625,-0.85675048828125
1759957156872,1058634924,24895,23,0.5556640625,-0.03765869140625,-0.85797119140625
1759957156872,1058634924,24895,24,0.5576171875,-0.03765869140625,-0.85894775390625
1759957156872,1058634924,24895,25,0.555419921875,-0.03594970703125,-0.85211181640625
1759957156872,1058634924,24895,26,0.55712890625,-0.03399658203125,-0.85430908203125
1759957156872,1058634924,24895,27,0.5576171875,-0.03350830078125,-0.85430908203125
1759957156872,1058634924,24895,28,0.556396484375,-0.03350830078125,-0.85552978515625
1759957156872,1058634924,24895,29,0.556640625,-0.03570556640625,-0.85552978515625
1759957156872,1058634924,24895,30,0.5556640625,-0.03472900390625,-0.85382080078125
1759957156872,1058634924,24895,31,0.553955078125,-0.03521728515625,-0.85626220703125
1759957159453,1058637491,24896,0,0.555908203125,-0.03448486328125,-0.85577392578125
1759957159453,1058637491,24896,1,0.558837890625,-0.03594970703125,-0.85430908203125
1759957159453,1058637491,24896,2,0.55322265625,-0.03839111328125,-0.84771728515625
1759957159453,1058637491,24896,3,0.556884765625,-0.03790283203125,-0.85748291015625
1759957159453,1058637491,24896,4,0.55615234375,-0.03741455078125,-0.85528564453125
1759957159453,1058637491,24896,5,0.555419921875,-0.04034423828125,-0.85675048828125
1759957159453,1058637491,24896,6,0.552978515625,-0.04376220703125,-0.85113525390625
1759957159453,1058637491,24896,7,0.5556640625,-0.03912353515625,-0.85748291015625
1759957159453,1058637491,24896,8,0.55517578125,-0.04425048828125,-0.85699462890625
1759957159453,1058637491,24896,9,0.5556640625,-0.04156494140625,-0.85186767578125
1759957159453,1058637491,24896,10,0.5556640625,-0.04132080078125,-0.85406494140625
1759957159453,1058637491,24896,11,0.555419921875,-0.04571533203125,-0.85797119140625
1759957159453,1058637491,24896,12,0.558837890625,-0.04669189453125,-0.85455322265625
1759957159453,1058637491,24896,13,0.555419921875,-0.04473876953125,-0.85601806640625
1759957159453,1058637491,24896,14,0.553955078125,-0.04547119140625,-0.85528564453125
1759957159453,1058637491,24896,15,0.5556640625,-0.04547119140625,-0.85650634765625
1759957159453,1058637491,24896,16,0.5556640625,-0.04766845703125,-0.85577392578125
1759957159453,1058637491,24896,17,0.555908203125,-0.04669189453125,-0.85357666015625
1759957159453,1058637491,24896,18,0.557861328125,-0.04425048828125,-0.85479736328125
1759957159453,1058637491,24896,19,0.556884765625,-0.04449462890625,-0.85162353515625
1759957159453,1058637491,24896,20,0.55712890625,-0.04327392578125,-0.85089111328125
1759957159453,1058637491,24896,21,0.55859375,-0.04376220703125,-0.85406494140625
1759957159453,1058637491,24896,22,0.557373046875,-0.04351806640625,-0.85357666015625
1759957159453,1058637491,24896,23,0.55908203125,-0.04327392578125,-0.85430908203125
1759957159453,1058637491,24896,24,0.559326171875,-0.04400634765625,-0.85284423828125
1759957159453,1058637491,24896,25,0.55517578125,-0.04205322265625,-0.85186767578125
1759957159453,1058637491,24896,26,0.55712890625,-0.04376220703125,-0.85235595703125
1759957159453,1058637491,24896,27,0.560791015625,-0.04522705078125,-0.85552978515625
1759957159453,1058637491,24896,28,0.556884765625,-0.04278564453125,-0.85577392578125
1759957159453,1058637491,24896,29,0.556884765625,-0.04644775390625,-0.85430908203125
1759957159453,1058637491,24896,30,0.55615234375,-0.04571533203125,-0.85650634765625
1759957159453,1058637491,24896,31,0.555908203125,-0.04229736328125,-0.85064697265625
1759957161839,1058640058,24897,0,0.556396484375,-0.04449462890625,-0.85504150390625
1759957161839,1058640058,24897,1,0.553466796875,-0.04571533203125,-0.85699462890625
1759957161839,1058640058,24897,2,0.5546875,-0.04425048828125,-0.85479736328125
1759957161839,1058640058,24897,3,0.556884765625,-0.04595947265625,-0.85357666015625
1759957161839,1058640058,24897,4,0.554443359375,-0.04571533203125,-0.85699462890625
1759957161839,1058640058,24897,5,0.552001953125,-0.04644775390625,-0.85577392578125
1759957161839,1058640058,24897,6,0.555908203125,-0.04449462890625,-0.85699462890625
1759957161839,1058640058,24897,7,0.552734375,-0.04400634765625,-0.85504150390625
1759957161839,1058640058,24897,8,0.552978515625,-0.04571533203125,-0.85552978515625
1759957161839,1058640058,24897,9,0.552001953125,-0.04522705078125,-0.85601806640625
1759957161839,1058640058,24897,10,0.55419921875,-0.04620361328125,-0.85650634765625
1759957161839,1058640058,24897,11,0.551513671875,-0.04473876953125,-0.85260009765625
1759957161839,1058640058,24897,12,0.55322265625,-0.04449462890625,-0.85723876953125
1759957161839,1058640058,24897,13,0.552734375,-0.04571533203125,-0.85772705078125
1759957161839,1058640058,24897,14,0.552001953125,-0.04766845703125,-0.85870361328125
1759957161839,1058640058,24897,15,0.5517578125,-0.04644775390625,-0.85943603515625
1759957161839,1058640058,24897,16,0.55322265625,-0.04766845703125,-0.85821533203125
1759957161839,1058640058,24897,17,0.553466796875,-0.04522705078125,-0.85845947265625
1759957161839,1058640058,24897,18,0.5517578125,-0.04571533203125,-0.85675048828125
1759957161839,1058640058,24897,19,0.551513671875,-0.04522705078125,-0.85748291015625
1759957161839,1058640058,24897,20,0.550537109375,-0.04791259765625,-0.84991455078125
1759957161839,1058640058,24897,21,0.552490234375,-0.04766845703125,-0.85748291015625
1759957161839,1058640058,24897,22,0.554443359375,-0.04620361328125,-0.85723876953125
1759957161839,1058640058,24897,23,0.551513671875,-0.04718017578125,-0.85968017578125
1759957161839,1058640058,24897,24,0.55029296875,-0.04766845703125,-0.85479736328125
1759957161839,1058640058,24897,25,0.54931640625,-0.04669189453125,-0.85601806640625
1759957161839,1058640058,24897,26,0.552978515625,-0.04888916015625,-0.85406494140625
1759957161839,1058640058,24897,27,0.5517578125,-0.04962158203125,-0.85845947265625
1759957161839,1058640058,24897,28,0.552734375,-0.04766845703125,-0.85894775390625
1759957161839,1058640058,24897,29,0.553955078125,-0.04742431640625,-0.85699462890625
1759957161839,1058640058,24897,30,0.5498046875,-0.04693603515625,-0.85601806640625
1759957161839,1058640058,24897,31,0.55419921875,-0.04791259765625,-0.85894775390625
1759957164423,1058642625,24898,0,0.5517578125,-0.04400634765625,-0.85675048828125
1759957164423,1058642625,24898,1,0.552734375,-0.04766845703125,-0.85699462890625
1759957164423,1058642625,24898,2,0.552734375,-0.04718017578125,-0.85845947265625
1759957164423,1058642625,24898,3,0.553466796875,-0.04693603515625,-0.85675048828125
1759957164423,1058642625,24898,4,0.553955078125,-0.04620361328125,-0.85382080078125
1759957164423,1058642625,24898,5,0.55517578125,-0.04595947265625,-0.85601806640625
1759957164423,1058642625,24898,6,0.5517578125,-0.04425048828125,-0.85772705078125
1759957164423,1058642625,24898,7,0.556640625,-0.04400634765625,-0.85577392578125
1759957164423,1058642625,24898,8,0.551513671875,-0.04473876953125,-0.85382080078125
1759957164423,1058642625,24898,9,0.555419921875,-0.04669189453125,-0.85284423828125
1759957164423,1058642625,24898,10,0.552001953125,-0.04595947265625,-0.85382080078125
1759957164423,1058642625,24898,11,0.556396484375,-0.04351806640625,-0.85479736328125
1759957164423,1058642625,24898,12,0.56005859375,-0.04180908203125,-0.85577392578125
1759957164423,1058642625,24898,13,0.552490234375,-0.04278564453125,-0.85284423828125
1759957164423,1058642625,24898,14,0.557373046875,-0.04180908203125,-0.85430908203125
1759957164423,1058642625,24898,15,0.55517578125,-0.04669189453125,-0.85479736328125
1759957164423,1058642625,24898,16,0.556396484375,-0.04669189453125,-0.85626220703125
1759957164423,1058642625,24898,17,0.55712890625,-0.04449462890625,-0.85430908203125
1759957164423,1058642625,24898,18,0.5556640625,-0.04595947265625,-0.85626220703125
1759957164423,1058642625,24898,19,0.555908203125,-0.04522705078125,-0.85626220703125
1759957164423,1058642625,24898,20,0.556884765625,-0.04449462890625,-0.85552978515625
1759957164423,1058642625,24898,21,0.55419921875,-0.04449462890625,-0.85479736328125
1759957164423,1058642625,24898,22,0.55224609375,-0.04473876953125,-0.85699462890625
1759957164423,1058642625,24898,23,0.55322265625,-0.04327392578125,-0.85626220703125
1759957164423,1058642625,24898,24,0.5537109375,-0.04571533203125,-0.85626220703125
1759957164423,1058642625,24898,25,0.55517578125,-0.04473876953125,-0.85723876953125
1759957164423,1058642625,24898,26,0.553955078125,-0.04522705078125,-0.85601806640625
1759957164423,1058642625,24898,27,0.5546875,-0.04449462890625,-0.85870361328125
1759957164423,1058642625,24898,28,0.54736328125,-0.04547119140625,-0.85626220703125
1759957164423,1058642625,24898,29,0.5498046875,-0.04791259765625,-0.85894775390625
1759957164423,1058642625,24898,30,0.551513671875,-0.04571533203125,-0.85479736328125
1759957164423,1058642625,24898,31,0.556396484375,-0.04547119140625,-0.85894775390625
1759957167006,1058645192,24899,0,0.5546875,-0.04571533203125,-0.85601806640625
1759957167006,1058645192,24899,1,0.55224609375,-0.04498291015625,-0.85479736328125
1759957167006,1058645192,24899,2,0.552490234375,-0.04888916015625,-0.85723876953125
1759957167006,1058645192,24899,3,0.551513671875,-0.04766845703125,-0.85723876953125
1759957167006,1058645192,24899,4,0.5537109375,-0.04669189453125,-0.85845947265625
1759957167006,1058645192,24899,5,0.5546875,-0.04864501953125,-0.85650634765625
1759957167006,1058645192,24899,6,0.553955078125,-0.04693603515625,-0.85577392578125
1759957167006,1058645192,24899,7,0.552978515625,-0.04620361328125,-0.85601806640625
1759957167006,1058645192,24899,8,0.5556640625,-0.04498291015625,-0.85992431640625
1759957167006,1058645192,24899,9,0.551513671875,-0.03961181640625,-0.85333251953125
1759957167006,1058645192,24899,10,0.551025390625,-0.03521728515625,-0.85430908203125
1759957167006,1058645192,24899,11,0.554931640625,-0.03375244140625,-0.85601806640625
1759957167006,1058645192,24899,12,0.551025390625,-0.03399658203125,-0.85406494140625
1759957167006,1058645192,24899,13,0.552978515625,-0.03106689453125,-0.85235595703125
1759957167006,1058645192,24899,14,0.55322265625,-0.02447509765625,-0.85772705078125
1759957167006,1058645192,24899,15,0.552490234375,-0.02496337890625,-0.85870361328125
1759957167006,1058645192,24899,16,0.555908203125,-0.01983642578125,-0.85650634765625
1759957167006,1058645192,24899,17,0.54541015625,-0.01812744140625,-0.85308837890625
1759957167006,1058645192,24899,18,0.557373046875,-0.01446533203125,-0.86895751953125
1759957167006,1058645192,24899,19,0.554443359375,-0.01519775390625,-0.85919189453125
1759957167006,1058645192,24899,20,0.55517578125,-0.01275634765625,-0.85870361328125
1759957167006,1058645192,24899,21,0.5556640625,-0.01568603515625,-0.85992431640625
1759957167006,1058645192,24899,22,0.553466796875,-0.01690673828125,-0.85577392578125
1759957167006,1058645192,24899,23,0.548583984375,-0.01910400390625,-0.84967041015625
1759957167006,1058645192,24899,24,0.5556640625,-0.02105712890625,-0.86114501953125
1759957167006,1058645192,24899,25,0.5546875,-0.02398681640625,-0.85552978515625
1759957167006,1058645192,24899,26,0.55224609375,-0.02398681640625,-0.85601806640625
1759957167006,1058645192,24899,27,0.552001953125,-0.02349853515625,-0.85894775390625
1759957167006,1058645192,24899,28,0.551513671875,-0.02447509765625,-0.85919189453125
1759957167006,1058645192,24899,29,0.55126953125,-0.02349853515625,-0.86187744140625
1759957167006,1058645192,24899,30,0.552490234375,-0.02618408203125,-0.85919189453125
1759957167006,1058645192,24899,31,0.54931640625,-0.02886962890625,-0.85260009765625
1759957169591,1058647759,24900,0,0.5498046875,-0.02984619140625,-0.85894775390625
1759957169591,1058647759,24900,1,0.55078125,-0.03033447265625,-0.86114501953125
1759957169591,1058647759,24900,2,0.549072265625,-0.03106689453125,-0.85675048828125
1759957169591,1058647759,24900,3,0.54833984375,-0.03106689453125,-0.85968017578125
1759957169591,1058647759,24900,4,0.5537109375,-0.03204345703125,-0.85992431640625
1759957169591,1058647759,24900,5,0.550048828125,-0.03204345703125,-0.85968017578125
1759957169591,1058647759,24900,6,0.54931640625,-0.03399658203125,-0.85968017578125
1759957169591,1058647759,24900,7,0.546875,-0.03228759765625,-0.85675048828125
1759957169591,1058647759,24900,8,0.5498046875,-0.03057861328125,-0.85748291015625
1759957169591,1058647759,24900,9,0.554443359375,-0.03228759765625,-0.86602783203125
1759957169591,1058647759,24900,10,0.54931640625,-0.03497314453125,-0.86334228515625
1759957169591,1058647759,24900,11,0.54931640625,-0.03350830078125,-0.85357666015625
1759957169591,1058647759,24900,12,0.55224609375,-0.03326416015625,-0.85601806640625
1759957169591,1058647759,24900,13,0.55078125,-0.03326416015625,-0.86041259765625
1759957169591,1058647759,24900,14,0.550048828125,-0.03326416015625,-0.86163330078125
1759957169591,1058647759,24900,15,0.55078125,-0.03350830078125,-0.85748291015625
1759957169591,1058647759,24900,16,0.548583984375,-0.03204345703125,-0.85821533203125
1759957169591,1058647759,24900,17,0.548828125,-0.03253173828125,-0.85601806640625
1759957169591,1058647759,24900,18,0.55029296875,-0.02960205078125,-0.85504150390625
1759957169591,1058647759,24900,19,0.55029296875,-0.03082275390625,-0.85943603515625
1759957169591,1058647759,24900,20,0.54833984375,-0.03204345703125,-0.85479736328125
1759957169591,1058647759,24900,21,0.5517578125,-0.03326416015625,-0.86163330078125
1759957169591,1058647759,24900,22,0.55419921875,-0.03106689453125,-0.86016845703125
1759957169591,1058647759,24900,23,0.547607421875,-0.03302001953125,-0.85723876953125
1759957169591,1058647759,24900,24,0.5517578125,-0.03375244140625,-0.85943603515625
1759957169591,1058647759,24900,25,0.55517578125,-0.03326416015625,-0.86529541015625
1759957169591,1058647759,24900,26,0.548583984375,-0.03594970703125,-0.86285400390625
1759957169591,1058647759,24900,27,0.548095703125,-0.03228759765625,-0.85064697265625
1759957169591,1058647759,24900,28,0.55517578125,-0.03253173828125,-0.85504150390625
1759957169591,1058647759,24900,29,0.552490234375,-0.03082275390625,-0.85528564453125
1759957169591,1058647759,24900,30,0.548583984375,-0.03131103515625,-0.85772705078125
1759957169591,1058647759,24900,31,0.5517578125,-0.03277587890625,-0.85845947265625
1759957172176,1058650326,24901,0,0.547607421875,-0.02935791015625,-0.85113525390625
1759957172176,1058650326,24901,1,0.552978515625,-0.01885986328125,-0.86456298828125
1759957172176,1058650326,24901,2,0.55615234375,-0.01422119140625,-0.86309814453125
1759957172176,1058650326,24901,3,0.552734375,-0.01568603515625,-0.85577392578125
1759957172176,1058650326,24901,4,0.554443359375,-0.01422119140625,-0.85870361328125
1759957172176,1058650326,24901,5,0.556884765625,-0.01348876953125,-0.85357666015625
1759957172176,1058650326,24901,6,0.556396484375,-0.00885009765625,-0.85894775390625
1759957172176,1058650326,24901,7,0.556884765625,-0.00860595703125,-0.85699462890625
1759957172176,1058650326,24901,8,0.55419921875,-0.01007080078125,-0.85357666015625
1759957172176,1058650326,24901,9,0.55224609375,-0.01031494140625,-0.85601806640625
1759957172176,1058650326,24901,10,0.556396484375,-0.01153564453125,-0.85430908203125
1759957172176,1058650326,24901,11,0.5556640625,-0.00958251953125,-0.85479736328125
1759957172176,1058650326,24901,12,0.55712890625,-0.01446533203125,-0.85357666015625
1759957172176,1058650326,24901,13,0.553955078125,-0.01300048828125,-0.85675048828125
1759957172176,1058650326,24901,14,0.559326171875,-0.01422119140625,-0.86212158203125
1759957172176,1058650326,24901,15,0.5537109375,-0.01495361328125,-0.85382080078125
1759957172176,1058650326,24901,16,0.54931640625,-0.01519775390625,-0.85552978515625
1759957172176,1058650326,24901,17,0.554443359375,-0.01739501953125,-0.85870361328125
1759957172176,1058650326,24901,18,0.55517578125,-0.01837158203125,-0.85577392578125
1759957172176,1058650326,24901,19,0.5546875,-0.01959228515625,-0.85626220703125
1759957172176,1058650326,24901,20,0.55078125,-0.01544189453125,-0.85675048828125
1759957172176,1058650326,24901,21,0.550048828125,-0.01715087890625,-0.85577392578125
1759957172176,1058650326,24901,22,0.5537109375,-0.01837158203125,-0.85772705078125
1759957172176,1058650326,24901,23,0.55078125,-0.01788330078125,-0.85552978515625
1759957172176,1058650326,24901,24,0.552490234375,-0.01837158203125,-0.85601806640625
1759957172176,1058650326,24901,25,0.554443359375,-0.01715087890625,-0.85870361328125
1759957172176,1058650326,24901,26,0.552490234375,-0.01641845703125,-0.85577392578125
1759957172176,1058650326,24901,27,0.5537109375,-0.01983642578125,-0.85699462890625
1759957172176,1058650326,24901,28,0.553466796875,-0.01763916015625,-0.85626220703125
1759957172176,1058650326,24901,29,0.55029296875,-0.01837158203125,-0.85577392578125
1759957172176,1058650326,24901,30,0.551513671875,-0.02008056640625,-0.85772705078125
1759957172176,1058650326,24901,31,0.553466796875,-0.01837158203125,-0.85870361328125
1759957174757,1058652894,24902,0,0.551025390625,-0.02081298828125,-0.85528564453125
1759957174757,1058652894,24902,1,0.551513671875,-0.02056884765625,-0.85357666015625
1759957174757,1058652894,24902,2,0.55126953125,-0.01959228515625,-0.85552978515625
1759957174757,1058652894,24902,3,0.552001953125,-0.01861572265625,-0.85601806640625
1759957174757,1058652894,24902,4,0.552001953125,-0.02227783203125,-0.85845947265625
1759957174757,1058652894,24902,5,0.554443359375,-0.02081298828125,-0.85675048828125
1759957174757,1058652894,24902,6,0.5517578125,-0.02203369140625,-0.85723876953125
1759957174757,1058652894,24902,7,0.552978515625,-0.01837158203125,-0.85552978515625
1759957174757,1058652894,24902,8,0.5556640625,-0.01837158203125,-0.85455322265625
1759957174757,1058652894,24902,9,0.552734375,-0.01837158203125,-0.85333251953125
1759957174757,1058652894,24902,10,0.553466796875,-0.01837158203125,-0.85723876953125
1759957174757,1058652894,24902,11,0.555908203125,-0.01983642578125,-0.85723876953125
1759957174757,1058652894,24902,12,0.557373046875,-0.01837158203125,-0.85601806640625
1759957174757,1058652894,24902,13,0.55517578125,-0.01837158203125,-0.85626220703125
1759957174757,1058652894,24902,14,0.554443359375,-0.01690673828125,-0.85308837890625
1759957174757,1058652894,24902,15,0.553466796875,-0.01690673828125,-0.85675048828125
1759957174757,1058652894,24902,16,0.55322265625,-0.01739501953125,-0.85723876953125
1759957174757,1058652894,24902,17,0.55029296875,-0.01690673828125,-0.85528564453125
1759957174757,1058652894,24902,18,0.554443359375,-0.01446533203125,-0.85528564453125
1759957174757,1058652894,24902,19,0.553466796875,-0.01812744140625,-0.85601806640625
1759957174757,1058652894,24902,20,0.55126953125,-0.01763916015625,-0.85504150390625
1759957174757,1058652894,24902,21,0.553466796875,-0.01446533203125,-0.85406494140625
1759957174757,1058652894,24902,22,0.553466796875,-0.01593017578125,-0.85479736328125
1759957174757,1058652894,24902,23,0.555419921875,-0.01544189453125,-0.85333251953125
