receivedPhoneTimestamp,respeckTimestamp,packetSeqNum,sampleSeqNum,accelX,accelY,accelZ
1760019155331,76930688,438,0,-0.141357421875,-0.04278564453125,0.91571044921875
1760019155331,76930688,438,1,-0.141357421875,-0.04132080078125,0.92205810546875
1760019155331,76930688,438,2,-0.14697265625,-0.03863525390625,0.91717529296875
1760019155331,76930688,438,3,-0.142333984375,-0.03741455078125,0.91400146484375
1760019155331,76930688,438,4,-0.145751953125,-0.03985595703125,0.91473388671875
1760019155331,76930688,438,5,-0.144775390625,-0.03619384765625,0.91644287109375
1760019155331,76930688,438,6,-0.1474609375,-0.03643798828125,0.91790771484375
1760019155331,76930688,438,7,-0.145751953125,-0.04058837890625,0.91839599609375
1760019155331,76930688,438,8,-0.14306640625,-0.03619384765625,0.91693115234375
1760019155331,76930688,438,9,-0.14892578125,-0.03717041015625,0.91619873046875
1760019155331,76930688,438,10,-0.144287109375,-0.03887939453125,0.91668701171875
1760019155331,76930688,438,11,-0.146240234375,-0.03887939453125,0.91912841796875
1760019155331,76930688,438,12,-0.145263671875,-0.03692626953125,0.91619873046875
1760019155331,76930688,438,13,-0.145263671875,-0.03692626953125,0.91497802734375
1760019155331,76930688,438,14,-0.14501953125,-0.04351806640625,0.91619873046875
1760019155331,76930688,438,15,-0.1435546875,-0.03985595703125,0.91522216796875
1760019155331,76930688,438,16,-0.145263671875,-0.03765869140625,0.91302490234375
1760019155331,76930688,438,17,-0.143798828125,-0.03985595703125,0.91644287109375
1760019155331,76930688,438,18,-0.14111328125,-0.04718017578125,0.91912841796875
1760019155331,76930688,438,19,-0.14501953125,-0.03521728515625,0.91424560546875
1760019155331,76930688,438,20,-0.144775390625,-0.04058837890625,0.91693115234375
1760019155331,76930688,438,21,-0.142333984375,-0.04254150390625,0.91619873046875
1760019155331,76930688,438,22,-0.143310546875,-0.04376220703125,0.91790771484375
1760019155331,76930688,438,23,-0.141357421875,-0.03985595703125,0.91400146484375
1760019155331,76930688,438,24,-0.142822265625,-0.04376220703125,0.91766357421875
1760019155331,76930688,438,25,-0.14306640625,-0.04644775390625,0.91864013671875
1760019155331,76930688,438,26,-0.14306640625,-0.04205322265625,0.91937255859375
1760019155331,76930688,438,27,-0.141357421875,-0.04327392578125,0.91790771484375
1760019155331,76930688,438,28,-0.14306640625,-0.04913330078125,0.92059326171875
1760019155331,76930688,438,29,-0.142578125,-0.03985595703125,0.91815185546875
1760019155331,76930688,438,30,-0.139892578125,-0.04644775390625,0.91790771484375
1760019155331,76930688,438,31,-0.140625,-0.04620361328125,0.91693115234375
1760019158026,76933261,439,0,-0.138916015625,-0.04669189453125,0.91864013671875
1760019158026,76933261,439,1,-0.139892578125,-0.04254150390625,0.91619873046875
1760019158026,76933261,439,2,-0.138427734375,-0.04888916015625,0.91912841796875
1760019158026,76933261,439,3,-0.140380859375,-0.04644775390625,0.91766357421875
1760019158026,76933261,439,4,-0.142333984375,-0.04693603515625,0.91693115234375
1760019158026,76933261,439,5,-0.14013671875,-0.04693603515625,0.91912841796875
1760019158026,76933261,439,6,-0.142578125,-0.05035400390625,0.92010498046875
1760019158026,76933261,439,7,-0.139404296875,-0.04742431640625,0.91815185546875
1760019158026,76933261,439,8,-0.140869140625,-0.05084228515625,0.91888427734375
1760019158026,76933261,439,9,-0.14013671875,-0.04498291015625,0.91912841796875
1760019158026,76933261,439,10,-0.140625,-0.04522705078125,0.91986083984375
1760019158026,76933261,439,11,-0.138671875,-0.05279541015625,0.91815185546875
1760019158026,76933261,439,12,-0.135986328125,-0.04937744140625,0.92083740234375
1760019158026,76933261,439,13,-0.13818359375,-0.04791259765625,0.92034912109375
1760019158026,76933261,439,14,-0.1435546875,-0.04058837890625,0.91668701171875
1760019158026,76933261,439,15,-0.142333984375,-0.05059814453125,0.91717529296875
1760019158026,76933261,439,16,-0.135498046875,-0.04254150390625,0.91741943359375
1760019158026,76933261,439,17,-0.13671875,-0.03765869140625,0.91790771484375
1760019158026,76933261,439,18,-0.143798828125,-0.04962158203125,0.91326904296875
1760019158026,76933261,439,19,-0.143798828125,-0.04864501953125,0.91937255859375
1760019158026,76933261,439,20,-0.137939453125,-0.03790283203125,0.91375732421875
1760019158026,76933261,439,21,-0.137939453125,-0.04132080078125,0.91497802734375
1760019158026,76933261,439,22,-0.13671875,-0.04449462890625,0.91644287109375
1760019158026,76933261,439,23,-0.1337890625,-0.04644775390625,0.91912841796875
1760019158026,76933261,439,24,-0.141357421875,-0.04449462890625,0.92108154296875
1760019158026,76933261,439,25,-0.13330078125,-0.04180908203125,0.91522216796875
1760019158026,76933261,439,26,-0.13818359375,-0.05499267578125,0.91888427734375
1760019158026,76933261,439,27,-0.136474609375,-0.04718017578125,0.92156982421875
1760019158026,76933261,439,28,-0.134033203125,-0.04986572265625,0.91546630859375
1760019158026,76933261,439,29,-0.135498046875,-0.05010986328125,0.91961669921875
1760019158026,76933261,439,30,-0.137939453125,-0.05718994140625,0.92205810546875
1760019158026,76933261,439,31,-0.135009765625,-0.04595947265625,0.91912841796875
1760019160578,76935834,440,0,-0.13427734375,-0.04693603515625,0.92059326171875
1760019160578,76935834,440,1,-0.1318359375,-0.04864501953125,0.91912841796875
1760019160578,76935834,440,2,-0.140869140625,-0.05596923828125,0.91986083984375
1760019160578,76935834,440,3,-0.137451171875,-0.05010986328125,0.91668701171875
1760019160578,76935834,440,4,-0.138427734375,-0.04522705078125,0.91912841796875
1760019160578,76935834,440,5,-0.13720703125,-0.04571533203125,0.91717529296875
1760019160578,76935834,440,6,-0.13671875,-0.04815673828125,0.91766357421875
1760019160578,76935834,440,7,-0.137939453125,-0.04473876953125,0.91937255859375
1760019160578,76935834,440,8,-0.139404296875,-0.04156494140625,0.91571044921875
1760019160578,76935834,440,9,-0.137939453125,-0.04669189453125,0.92034912109375
1760019160578,76935834,440,10,-0.136474609375,-0.03887939453125,0.91888427734375
1760019160578,76935834,440,11,-0.144775390625,-0.04718017578125,0.92132568359375
1760019160578,76935834,440,12,-0.139892578125,-0.04229736328125,0.91473388671875
1760019160578,76935834,440,13,-0.13525390625,-0.04254150390625,0.91815185546875
1760019160578,76935834,440,14,-0.13720703125,-0.03985595703125,0.91815185546875
1760019160578,76935834,440,15,-0.141845703125,-0.03961181640625,0.91571044921875
1760019160578,76935834,440,16,-0.14306640625,-0.04302978515625,0.91839599609375
1760019160578,76935834,440,17,-0.138916015625,-0.04180908203125,0.91522216796875
1760019160578,76935834,440,18,-0.140380859375,-0.03887939453125,0.91717529296875
1760019160578,76935834,440,19,-0.141357421875,-0.03912353515625,0.91766357421875
1760019160578,76935834,440,20,-0.1416015625,-0.04693603515625,0.91986083984375
1760019160578,76935834,440,21,-0.142822265625,-0.03887939453125,0.91717529296875
1760019160578,76935834,440,22,-0.14208984375,-0.03863525390625,0.91912841796875
1760019160578,76935834,440,23,-0.138916015625,-0.05010986328125,0.91961669921875
1760019160578,76935834,440,24,-0.139404296875,-0.04571533203125,0.92181396484375
1760019160578,76935834,440,25,-0.14111328125,-0.04229736328125,0.91741943359375
1760019160578,76935834,440,26,-0.140380859375,-0.04620361328125,0.91766357421875
1760019160578,76935834,440,27,-0.14013671875,-0.04547119140625,0.91815185546875
1760019160578,76935834,440,28,-0.141357421875,-0.04180908203125,0.91790771484375
1760019160578,76935834,440,29,-0.135498046875,-0.04840087890625,0.91644287109375
1760019160578,76935834,440,30,-0.144287109375,-0.04669189453125,0.91741943359375
1760019160578,76935834,440,31,-0.138671875,-0.04864501953125,0.92205810546875
1760019163133,76938407,441,0,-0.140625,-0.04278564453125,0.91571044921875
1760019163133,76938407,441,1,-0.145263671875,-0.04449462890625,0.91815185546875
1760019163133,76938407,441,2,-0.13818359375,-0.04595947265625,0.91668701171875
1760019163133,76938407,441,3,-0.13720703125,-0.04693603515625,0.92059326171875
1760019163133,76938407,441,4,-0.14501953125,-0.04010009765625,0.91693115234375
1760019163133,76938407,441,5,-0.141357421875,-0.04620361328125,0.91766357421875
1760019163133,76938407,441,6,-0.14013671875,-0.04571533203125,0.91986083984375
1760019163133,76938407,441,7,-0.140869140625,-0.04425048828125,0.91839599609375
1760019163133,76938407,441,8,-0.141357421875,-0.04132080078125,0.91693115234375
1760019163133,76938407,441,9,-0.139892578125,-0.04302978515625,0.91302490234375
1760019163133,76938407,441,10,-0.140625,-0.04693603515625,0.91644287109375
1760019163133,76938407,441,11,-0.141845703125,-0.03961181640625,0.91864013671875
1760019163133,76938407,441,12,-0.140380859375,-0.04083251953125,0.91888427734375
1760019163133,76938407,441,13,-0.1435546875,-0.04302978515625,0.91766357421875
1760019163133,76938407,441,14,-0.141357421875,-0.04254150390625,0.91888427734375
1760019163133,76938407,441,15,-0.144775390625,-0.03887939453125,0.91986083984375
1760019163133,76938407,441,16,-0.14501953125,-0.03887939453125,0.91571044921875
1760019163133,76938407,441,17,-0.1455078125,-0.04327392578125,0.91888427734375
1760019163133,76938407,441,18,-0.144287109375,-0.03985595703125,0.91546630859375
1760019163133,76938407,441,19,-0.1435546875,-0.03741455078125,0.91693115234375
1760019163133,76938407,441,20,-0.147216796875,-0.04058837890625,0.91644287109375
1760019163133,76938407,441,21,-0.14404296875,-0.04327392578125,0.91619873046875
1760019163133,76938407,441,22,-0.148193359375,-0.03350830078125,0.91717529296875
1760019163133,76938407,441,23,-0.146240234375,-0.04107666015625,0.91522216796875
1760019163133,76938407,441,24,-0.142333984375,-0.03985595703125,0.91619873046875
1760019163133,76938407,441,25,-0.14501953125,-0.04083251953125,0.91668701171875
1760019163133,76938407,441,26,-0.145263671875,-0.03692626953125,0.91326904296875
1760019163133,76938407,441,27,-0.146240234375,-0.04595947265625,0.91741943359375
1760019163133,76938407,441,28,-0.1416015625,-0.04522705078125,0.91644287109375
1760019163133,76938407,441,29,-0.14208984375,-0.04132080078125,0.91595458984375
1760019163133,76938407,441,30,-0.14599609375,-0.04473876953125,0.91741943359375
1760019163133,76938407,441,31,-0.14306640625,-0.05133056640625,0.91815185546875
1760019165675,76940980,442,0,-0.143310546875,-0.04156494140625,0.91766357421875
1760019165675,76940980,442,1,-0.14111328125,-0.04620361328125,0.91522216796875
1760019165675,76940980,442,2,-0.14306640625,-0.04547119140625,0.91571044921875
1760019165675,76940980,442,3,-0.142333984375,-0.04693603515625,0.92156982421875
1760019165675,76940980,442,4,-0.1416015625,-0.04351806640625,0.91668701171875
1760019165675,76940980,442,5,-0.142333984375,-0.04766845703125,0.91571044921875
1760019165675,76940980,442,6,-0.14404296875,-0.05035400390625,0.92010498046875
1760019165675,76940980,442,7,-0.141357421875,-0.04815673828125,0.91571044921875
1760019165675,76940980,442,8,-0.138427734375,-0.04595947265625,0.91864013671875
1760019165675,76940980,442,9,-0.14404296875,-0.05279541015625,0.91937255859375
1760019165675,76940980,442,10,-0.143310546875,-0.04400634765625,0.91864013671875
1760019165675,76940980,442,11,-0.142578125,-0.04449462890625,0.91790771484375
1760019165675,76940980,442,12,-0.139892578125,-0.04815673828125,0.91668701171875
1760019165675,76940980,442,13,-0.14306640625,-0.04571533203125,0.91986083984375
1760019165675,76940980,442,14,-0.14111328125,-0.05084228515625,0.91864013671875
1760019165675,76940980,442,15,-0.140380859375,-0.04791259765625,0.91668701171875
1760019165675,76940980,442,16,-0.139892578125,-0.04791259765625,0.91912841796875
1760019165675,76940980,442,17,-0.138916015625,-0.04718017578125,0.91424560546875
1760019165675,76940980,442,18,-0.143310546875,-0.04986572265625,0.91717529296875
1760019165675,76940980,442,19,-0.140625,-0.04571533203125,0.91864013671875
1760019165675,76940980,442,20,-0.141845703125,-0.05206298828125,0.91571044921875
1760019165675,76940980,442,21,-0.13916015625,-0.04473876953125,0.91741943359375
1760019165675,76940980,442,22,-0.14208984375,-0.04376220703125,0.91790771484375
1760019165675,76940980,442,23,-0.14013671875,-0.04840087890625,0.91668701171875
1760019165675,76940980,442,24,-0.142333984375,-0.04766845703125,0.92132568359375
1760019165675,76940980,442,25,-0.14111328125,-0.04766845703125,0.91766357421875
1760019165675,76940980,442,26,-0.138916015625,-0.04522705078125,0.91766357421875
1760019165675,76940980,442,27,-0.140625,-0.04693603515625,0.91912841796875
1760019165675,76940980,442,28,-0.139404296875,-0.04620361328125,0.91693115234375
1760019165675,76940980,442,29,-0.14013671875,-0.04742431640625,0.91644287109375
1760019165675,76940980,442,30,-0.13916015625,-0.04571533203125,0.92132568359375
1760019165675,76940980,442,31,-0.140625,-0.04986572265625,0.91937255859375
1760019168224,76943553,443,0,-0.14013671875,-0.04498291015625,0.91864013671875
1760019168224,76943553,443,1,-0.14208984375,-0.04327392578125,0.91888427734375
1760019168224,76943553,443,2,-0.13720703125,-0.05352783203125,0.92010498046875
1760019168224,76943553,443,3,-0.139892578125,-0.04376220703125,0.91741943359375
1760019168224,76943553,443,4,-0.137939453125,-0.04620361328125,0.92034912109375
1760019168224,76943553,443,5,-0.140869140625,-0.04351806640625,0.91815185546875
1760019168224,76943553,443,6,-0.1416015625,-0.05108642578125,0.91790771484375
1760019168224,76943553,443,7,-0.138427734375,-0.04595947265625,0.91864013671875
1760019168224,76943553,443,8,-0.139892578125,-0.04449462890625,0.91937255859375
1760019168224,76943553,443,9,-0.144287109375,-0.04718017578125,0.91741943359375
1760019168224,76943553,443,10,-0.137939453125,-0.04791259765625,0.91693115234375
1760019168224,76943553,443,11,-0.142333984375,-0.04425048828125,0.91888427734375
1760019168224,76943553,443,12,-0.139404296875,-0.04864501953125,0.91839599609375
1760019168224,76943553,443,13,-0.137451171875,-0.04718017578125,0.91571044921875
1760019168224,76943553,443,14,-0.139404296875,-0.04693603515625,0.91766357421875
1760019168224,76943553,443,15,-0.1435546875,-0.04083251953125,0.91644287109375
1760019168224,76943553,443,16,-0.14208984375,-0.04498291015625,0.91864013671875
1760019168224,76943553,443,17,-0.140869140625,-0.04547119140625,0.91986083984375
1760019168224,76943553,443,18,-0.141845703125,-0.04229736328125,0.91375732421875
1760019168224,76943553,443,19,-0.14111328125,-0.04864501953125,0.91595458984375
1760019168224,76943553,443,20,-0.14794921875,-0.04132080078125,0.91790771484375
1760019168224,76943553,443,21,-0.142578125,-0.04351806640625,0.91571044921875
1760019168224,76943553,443,22,-0.142578125,-0.04669189453125,0.91717529296875
1760019168224,76943553,443,23,-0.1435546875,-0.04840087890625,0.91864013671875
1760019168224,76943553,443,24,-0.146240234375,-0.04034423828125,0.91644287109375
1760019168224,76943553,443,25,-0.144287109375,-0.04791259765625,0.91766357421875
1760019168224,76943553,443,26,-0.143310546875,-0.04986572265625,0.91937255859375
1760019168224,76943553,443,27,-0.14306640625,-0.04620361328125,0.91717529296875
1760019168224,76943553,443,28,-0.142822265625,-0.04742431640625,0.91668701171875
1760019168224,76943553,443,29,-0.139892578125,-0.05133056640625,0.91790771484375
1760019168224,76943553,443,30,-0.142333984375,-0.04376220703125,0.91644287109375
1760019168224,76943553,443,31,-0.142822265625,-0.05133056640625,0.91864013671875
1760019170778,76946127,444,0,-0.14013671875,-0.04669189453125,0.91375732421875
1760019170778,76946127,444,1,-0.1416015625,-0.05157470703125,0.91790771484375
1760019170778,76946127,444,2,-0.144775390625,-0.04522705078125,0.91644287109375
1760019170778,76946127,444,3,-0.140625,-0.04937744140625,0.91644287109375
1760019170778,76946127,444,4,-0.142822265625,-0.04937744140625,0.91912841796875
1760019170778,76946127,444,5,-0.142333984375,-0.04791259765625,0.91644287109375
1760019170778,76946127,444,6,-0.142578125,-0.04473876953125,0.91741943359375
1760019170778,76946127,444,7,-0.14306640625,-0.04498291015625,0.91644287109375
1760019170778,76946127,444,8,-0.140869140625,-0.05157470703125,0.91937255859375
1760019170778,76946127,444,9,-0.142333984375,-0.04376220703125,0.91741943359375
1760019170778,76946127,444,10,-0.141357421875,-0.04742431640625,0.91864013671875
1760019170778,76946127,444,11,-0.141357421875,-0.04449462890625,0.91790771484375
1760019170778,76946127,444,12,-0.13916015625,-0.04766845703125,0.91912841796875
1760019170778,76946127,444,13,-0.142822265625,-0.04473876953125,0.92010498046875
1760019170778,76946127,444,14,-0.139404296875,-0.05133056640625,0.91864013671875
1760019170778,76946127,444,15,-0.139404296875,-0.04693603515625,0.91888427734375
1760019170778,76946127,444,16,-0.1435546875,-0.04547119140625,0.91717529296875
1760019170778,76946127,444,17,-0.13916015625,-0.04498291015625,0.91668701171875
1760019170778,76946127,444,18,-0.141845703125,-0.04815673828125,0.91571044921875
1760019170778,76946127,444,19,-0.13818359375,-0.04718017578125,0.91741943359375
1760019170778,76946127,444,20,-0.14501953125,-0.04205322265625,0.91912841796875
1760019170778,76946127,444,21,-0.139404296875,-0.04962158203125,0.91571044921875
1760019170778,76946127,444,22,-0.14013671875,-0.04669189453125,0.91815185546875
1760019170778,76946127,444,23,-0.138427734375,-0.05010986328125,0.91717529296875
1760019170778,76946127,444,24,-0.1435546875,-0.04351806640625,0.91839599609375
1760019170778,76946127,444,25,-0.14013671875,-0.05035400390625,0.91790771484375
1760019170778,76946127,444,26,-0.14111328125,-0.04840087890625,0.91546630859375
1760019170778,76946127,444,27,-0.140625,-0.04351806640625,0.91693115234375
1760019170778,76946127,444,28,-0.140625,-0.05108642578125,0.91937255859375
1760019170778,76946127,444,29,-0.140869140625,-0.04400634765625,0.91693115234375
1760019170778,76946127,444,30,-0.1416015625,-0.04254150390625,0.91790771484375
1760019170778,76946127,444,31,-0.140380859375,-0.04620361328125,0.91888427734375
1760019173325,76948700,445,0,-0.1376953125,-0.04937744140625,0.91815185546875
1760019173325,76948700,445,1,-0.14501953125,-0.04058837890625,0.91668701171875
1760019173325,76948700,445,2,-0.13916015625,-0.04254150390625,0.91571044921875
1760019173325,76948700,445,3,-0.141845703125,-0.04766845703125,0.91790771484375
1760019173325,76948700,445,4,-0.140869140625,-0.04351806640625,0.91644287109375
1760019173325,76948700,445,5,-0.1435546875,-0.04400634765625,0.91400146484375
1760019173325,76948700,445,6,-0.138671875,-0.04473876953125,0.91888427734375
1760019173325,76948700,445,7,-0.144775390625,-0.04278564453125,0.91717529296875
1760019173325,76948700,445,8,-0.143310546875,-0.04669189453125,0.91619873046875
1760019173325,76948700,445,9,-0.14306640625,-0.04449462890625,0.91717529296875
1760019173325,76948700,445,10,-0.143310546875,-0.04400634765625,0.91766357421875
1760019173325,76948700,445,11,-0.144287109375,-0.04010009765625,0.91595458984375
1760019173325,76948700,445,12,-0.143310546875,-0.04742431640625,0.91839599609375
1760019173325,76948700,445,13,-0.143798828125,-0.04522705078125,0.91717529296875
1760019173325,76948700,445,14,-0.142822265625,-0.03985595703125,0.91571044921875
1760019173325,76948700,445,15,-0.14013671875,-0.04815673828125,0.91986083984375
1760019173325,76948700,445,16,-0.1435546875,-0.04107666015625,0.91888427734375
1760019173325,76948700,445,17,-0.142578125,-0.04400634765625,0.91864013671875
1760019173325,76948700,445,18,-0.140380859375,-0.04864501953125,0.91595458984375
1760019173325,76948700,445,19,-0.142333984375,-0.05133056640625,0.91864013671875
1760019173325,76948700,445,20,-0.1435546875,-0.04351806640625,0.91546630859375
1760019173325,76948700,445,21,-0.139892578125,-0.04962158203125,0.91864013671875
1760019173325,76948700,445,22,-0.141357421875,-0.05279541015625,0.91937255859375
1760019173325,76948700,445,23,-0.140625,-0.04937744140625,0.91864013671875
1760019173325,76948700,445,24,-0.141845703125,-0.04815673828125,0.91497802734375
1760019173325,76948700,445,25,-0.137939453125,-0.05377197265625,0.91937255859375
1760019173325,76948700,445,26,-0.1435546875,-0.04254150390625,0.91790771484375
1760019173325,76948700,445,27,-0.14111328125,-0.05133056640625,0.91766357421875
1760019173325,76948700,445,28,-0.13818359375,-0.04986572265625,0.91815185546875
1760019173325,76948700,445,29,-0.1376953125,-0.05328369140625,0.92230224609375
1760019173325,76948700,445,30,-0.140625,-0.05181884765625,0.91741943359375
1760019173325,76948700,445,31,-0.1396484375,-0.05377197265625,0.92010498046875
1760019176028,76951273,446,0,-0.139892578125,-0.05206298828125,0.92010498046875
1760019176028,76951273,446,1,-0.140380859375,-0.04815673828125,0.91766357421875
1760019176028,76951273,446,2,-0.139892578125,-0.05181884765625,0.91961669921875
1760019176028,76951273,446,3,-0.138671875,-0.04888916015625,0.91668701171875
1760019176028,76951273,446,4,-0.137451171875,-0.05059814453125,0.92108154296875
1760019176028,76951273,446,5,-0.141357421875,-0.04766845703125,0.91741943359375
1760019176028,76951273,446,6,-0.138427734375,-0.05084228515625,0.91741943359375
1760019176028,76951273,446,7,-0.138427734375,-0.04498291015625,0.91717529296875
1760019176028,76951273,446,8,-0.138671875,-0.04693603515625,0.91619873046875
1760019176028,76951273,446,9,-0.139404296875,-0.04571533203125,0.91815185546875
1760019176028,76951273,446,10,-0.13818359375,-0.05108642578125,0.91864013671875
1760019176028,76951273,446,11,-0.1396484375,-0.05035400390625,0.91717529296875
1760019176028,76951273,446,12,-0.141845703125,-0.04913330078125,0.91717529296875
1760019176028,76951273,446,13,-0.13916015625,-0.04595947265625,0.91986083984375
1760019176028,76951273,446,14,-0.139404296875,-0.05035400390625,0.91595458984375
1760019176028,76951273,446,15,-0.136962890625,-0.04840087890625,0.91595458984375
1760019176028,76951273,446,16,-0.142333984375,-0.04425048828125,0.91644287109375
1760019176028,76951273,446,17,-0.137451171875,-0.05010986328125,0.91766357421875
1760019176028,76951273,446,18,-0.1396484375,-0.04669189453125,0.91595458984375
1760019176028,76951273,446,19,-0.138916015625,-0.04888916015625,0.92083740234375
1760019176028,76951273,446,20,-0.140625,-0.04620361328125,0.91497802734375
1760019176028,76951273,446,21,-0.140869140625,-0.04718017578125,0.92010498046875
1760019176028,76951273,446,22,-0.138916015625,-0.04913330078125,0.91815185546875
1760019176028,76951273,446,23,-0.143798828125,-0.04937744140625,0.91815185546875
1760019176028,76951273,446,24,-0.13916015625,-0.04718017578125,0.91839599609375
1760019176028,76951273,446,25,-0.14208984375,-0.05157470703125,0.91790771484375
1760019176028,76951273,446,26,-0.136962890625,-0.04791259765625,0.91864013671875
1760019176028,76951273,446,27,-0.142333984375,-0.04351806640625,0.91766357421875
1760019176028,76951273,446,28,-0.1396484375,-0.04962158203125,0.91766357421875
1760019176028,76951273,446,29,-0.138916015625,-0.04888916015625,0.91766357421875
1760019176028,76951273,446,30,-0.138671875,-0.04791259765625,0.91595458984375
1760019176028,76951273,446,31,-0.142822265625,-0.04351806640625,0.91644287109375
1760019178581,76953840,447,0,-0.140869140625,-0.04669189453125,0.91839599609375
1760019178581,76953840,447,1,-0.138916015625,-0.04791259765625,0.91766357421875
1760019178581,76953840,447,2,-0.142333984375,-0.04302978515625,0.91473388671875
1760019178581,76953840,447,3,-0.142333984375,-0.05133056640625,0.91912841796875
1760019178581,76953840,447,4,-0.14404296875,-0.04083251953125,0.91741943359375
1760019178581,76953840,447,5,-0.143798828125,-0.03814697265625,0.91693115234375
1760019178581,76953840,447,6,-0.142822265625,-0.04718017578125,0.91595458984375
1760019178581,76953840,447,7,-0.142578125,-0.04376220703125,0.91839599609375
1760019178581,76953840,447,8,-0.145751953125,-0.04156494140625,0.91693115234375
1760019178581,76953840,447,9,-0.143798828125,-0.04327392578125,0.91717529296875
1760019178581,76953840,447,10,-0.1435546875,-0.04644775390625,0.91546630859375
1760019178581,76953840,447,11,-0.14306640625,-0.04205322265625,0.91546630859375
1760019178581,76953840,447,12,-0.14599609375,-0.04278564453125,0.92034912109375
1760019178581,76953840,447,13,-0.141845703125,-0.05426025390625,0.91815185546875
1760019178581,76953840,447,14,-0.1455078125,-0.04425048828125,0.91888427734375
1760019178581,76953840,447,15,-0.14013671875,-0.04718017578125,0.91693115234375
1760019178581,76953840,447,16,-0.14306640625,-0.04693603515625,0.91815185546875
1760019178581,76953840,447,17,-0.141845703125,-0.04986572265625,0.91839599609375
1760019178581,76953840,447,18,-0.13916015625,-0.04229736328125,0.91644287109375
1760019178581,76953840,447,19,-0.14111328125,-0.05059814453125,0.91766357421875
1760019178581,76953840,447,20,-0.140380859375,-0.05157470703125,0.91619873046875
1760019178581,76953840,447,21,-0.14013671875,-0.05108642578125,0.91644287109375
1760019178581,76953840,447,22,-0.141357421875,-0.04742431640625,0.91351318359375
1760019178581,76953840,447,23,-0.142333984375,-0.05621337890625,0.91668701171875
1760019178581,76953840,447,24,-0.14111328125,-0.04620361328125,0.91815185546875
1760019178581,76953840,447,25,-0.140625,-0.04718017578125,0.91961669921875
1760019178581,76953840,447,26,-0.138916015625,-0.05572509765625,0.91790771484375
1760019178581,76953840,447,27,-0.1396484375,-0.05230712890625,0.92059326171875
1760019178581,76953840,447,28,-0.141845703125,-0.04937744140625,0.91815185546875
1760019178581,76953840,447,29,-0.138427734375,-0.05352783203125,0.91546630859375
1760019178581,76953840,447,30,-0.13818359375,-0.05548095703125,0.91717529296875
1760019178581,76953840,447,31,-0.138916015625,-0.05450439453125,0.91766357421875
1760019181126,76956413,448,0,-0.138427734375,-0.05206298828125,0.91986083984375
1760019181126,76956413,448,1,-0.139892578125,-0.05059814453125,0.91839599609375
1760019181126,76956413,448,2,-0.13818359375,-0.05670166015625,0.91766357421875
1760019181126,76956413,448,3,-0.14208984375,-0.04937744140625,0.91815185546875
1760019181126,76956413,448,4,-0.136962890625,-0.05279541015625,0.91522216796875
1760019181126,76956413,448,5,-0.139404296875,-0.05352783203125,0.91619873046875
1760019181126,76956413,448,6,-0.135498046875,-0.05303955078125,0.91864013671875
1760019181126,76956413,448,7,-0.14111328125,-0.04937744140625,0.91473388671875
1760019181126,76956413,448,8,-0.138427734375,-0.05230712890625,0.91790771484375
1760019181126,76956413,448,9,-0.13671875,-0.04986572265625,0.91912841796875
1760019181126,76956413,448,10,-0.138671875,-0.04620361328125,0.91790771484375
1760019181126,76956413,448,11,-0.138671875,-0.04718017578125,0.92010498046875
1760019181126,76956413,448,12,-0.138916015625,-0.05426025390625,0.91937255859375
1760019181126,76956413,448,13,-0.138427734375,-0.04913330078125,0.91790771484375
1760019181126,76956413,448,14,-0.1396484375,-0.04718017578125,0.91546630859375
1760019181126,76956413,448,15,-0.139892578125,-0.04864501953125,0.91668701171875
1760019181126,76956413,448,16,-0.13818359375,-0.04718017578125,0.92010498046875
1760019181126,76956413,448,17,-0.139404296875,-0.04669189453125,0.91888427734375
1760019181126,76956413,448,18,-0.13916015625,-0.04498291015625,0.91937255859375
1760019181126,76956413,448,19,-0.137939453125,-0.04742431640625,0.91790771484375
1760019181126,76956413,448,20,-0.139404296875,-0.04205322265625,0.91644287109375
1760019181126,76956413,448,21,-0.13818359375,-0.04766845703125,0.91839599609375
1760019181126,76956413,448,22,-0.138427734375,-0.04449462890625,0.91815185546875
1760019181126,76956413,448,23,-0.13671875,-0.05157470703125,0.92034912109375
1760019181126,76956413,448,24,-0.1376953125,-0.04083251953125,0.91546630859375
1760019181126,76956413,448,25,-0.138671875,-0.04986572265625,0.91693115234375
1760019181126,76956413,448,26,-0.138427734375,-0.04644775390625,0.91668701171875
1760019181126,76956413,448,27,-0.139892578125,-0.04693603515625,0.91839599609375
1760019181126,76956413,448,28,-0.140380859375,-0.04718017578125,0.91571044921875
1760019181126,76956413,448,29,-0.138427734375,-0.04913330078125,0.92010498046875
1760019181126,76956413,448,30,-0.14111328125,-0.04718017578125,0.91400146484375
1760019181126,76956413,448,31,-0.13916015625,-0.04742431640625,0.91668701171875
1760019183677,76958986,449,0,-0.139404296875,-0.04693603515625,0.91546630859375
1760019183677,76958986,449,1,-0.140625,-0.05645751953125,0.91400146484375
1760019183677,76958986,449,2,-0.140380859375,-0.04620361328125,0.91986083984375
1760019183677,76958986,449,3,-0.140869140625,-0.04888916015625,0.91815185546875
1760019183677,76958986,449,4,-0.136474609375,-0.05328369140625,0.91815185546875
1760019183677,76958986,449,5,-0.138671875,-0.04888916015625,0.91815185546875
1760019183677,76958986,449,6,-0.1396484375,-0.04888916015625,0.91522216796875
1760019183677,76958986,449,7,-0.143310546875,-0.04571533203125,0.91961669921875
1760019183677,76958986,449,8,-0.14013671875,-0.04888916015625,0.91766357421875
1760019183677,76958986,449,9,-0.138671875,-0.05010986328125,0.92205810546875
1760019183677,76958986,449,10,-0.140625,-0.04815673828125,0.92572021484375
1760019183677,76958986,449,11,-0.1435546875,-0.04888916015625,0.91473388671875
1760019183677,76958986,449,12,-0.1416015625,-0.04864501953125,0.92327880859375
1760019183677,76958986,449,13,-0.141357421875,-0.04351806640625,0.91400146484375
1760019183677,76958986,449,14,-0.142578125,-0.05010986328125,0.91815185546875
1760019183677,76958986,449,15,-0.13671875,-0.05157470703125,0.92547607421875
1760019183677,76958986,449,16,-0.14013671875,-0.04986572265625,0.92254638671875
1760019183677,76958986,449,17,-0.142333984375,-0.04644775390625,0.91156005859375
1760019183677,76958986,449,18,-0.1416015625,-0.05426025390625,0.91815185546875
1760019183677,76958986,449,19,-0.13720703125,-0.05206298828125,0.92572021484375
1760019183677,76958986,449,20,-0.140625,-0.05157470703125,0.91204833984375
1760019183677,76958986,449,21,-0.136962890625,-0.05743408203125,0.93328857421875
1760019183677,76958986,449,22,-0.139404296875,-0.05499267578125,0.91839599609375
1760019183677,76958986,449,23,-0.136962890625,-0.05230712890625,0.91229248046875
1760019183677,76958986,449,24,-0.138671875,-0.05328369140625,0.91937255859375
1760019183677,76958986,449,25,-0.13818359375,-0.05523681640625,0.91302490234375
1760019183677,76958986,449,26,-0.13671875,-0.05084228515625,0.91912841796875
1760019183677,76958986,449,27,-0.139892578125,-0.05084228515625,0.91619873046875
1760019183677,76958986,449,28,-0.139892578125,-0.05035400390625,0.91131591796875
1760019183677,76958986,449,29,-0.13916015625,-0.05401611328125,0.91668701171875
1760019183677,76958986,449,30,-0.137939453125,-0.05352783203125,0.92279052734375
1760019183677,76958986,449,31,-0.138427734375,-0.05181884765625,0.91790771484375
