receivedPhoneTimestamp,respeckTimestamp,packetSeqNum,sampleSeqNum,accelX,accelY,accelZ
1759845454272,1033245899,31168,0,0.80615234375,-0.12921142578125,0.55340576171875
1759845454272,1033245899,31168,1,0.73876953125,-0.16021728515625,0.54974365234375
1759845454272,1033245899,31168,2,0.760986328125,-0.18804931640625,0.56683349609375
1759845454272,1033245899,31168,3,0.74462890625,-0.15655517578125,0.56341552734375
1759845454272,1033245899,31168,4,0.739501953125,-0.15655517578125,0.55877685546875
1759845454272,1033245899,31168,5,0.736328125,-0.15948486328125,0.56536865234375
1759845454272,1033245899,31168,6,0.750244140625,-0.16510009765625,0.55560302734375
1759845454272,1033245899,31168,7,0.7509765625,-0.17144775390625,0.55120849609375
1759845454272,1033245899,31168,8,0.76513671875,-0.16876220703125,0.54119873046875
1759845454272,1033245899,31168,9,0.75244140625,-0.17120361328125,0.55389404296875
1759845454272,1033245899,31168,10,0.749267578125,-0.16119384765625,0.54388427734375
1759845454272,1033245899,31168,11,0.75048828125,-0.16387939453125,0.55218505859375
1759845454272,1033245899,31168,12,0.745361328125,-0.16900634765625,0.55609130859375
1759845454272,1033245899,31168,13,0.741455078125,-0.16802978515625,0.56365966796875
1759845454272,1033245899,31168,14,0.7431640625,-0.16387939453125,0.56268310546875
1759845454272,1033245899,31168,15,0.741455078125,-0.16021728515625,0.56585693359375
1759845454272,1033245899,31168,16,0.736328125,-0.16534423828125,0.56610107421875
1759845454272,1033245899,31168,17,0.739013671875,-0.16485595703125,0.57196044921875
1759845454272,1033245899,31168,18,0.734375,-0.16046142578125,0.57464599609375
1759845454272,1033245899,31168,19,0.73291015625,-0.15362548828125,0.57122802734375
1759845454272,1033245899,31168,20,0.731201171875,-0.16265869140625,0.58123779296875
1759845454272,1033245899,31168,21,0.72998046875,-0.15606689453125,0.58319091796875
1759845454272,1033245899,31168,22,0.722900390625,-0.15118408203125,0.58221435546875
1759845454272,1033245899,31168,23,0.725830078125,-0.15264892578125,0.59320068359375
1759845454272,1033245899,31168,24,0.713623046875,-0.15460205078125,0.59246826171875
1759845454272,1033245899,31168,25,0.718505859375,-0.14923095703125,0.59173583984375
1759845454272,1033245899,31168,26,0.71875,-0.14849853515625,0.59808349609375
1759845454272,1033245899,31168,27,0.7109375,-0.14630126953125,0.59490966796875
1759845454272,1033245899,31168,28,0.712646484375,-0.14532470703125,0.59906005859375
1759845454272,1033245899,31168,29,0.71142578125,-0.14239501953125,0.60101318359375
1759845454272,1033245899,31168,30,0.70947265625,-0.14288330078125,0.60198974609375
1759845454272,1033245899,31168,31,0.711181640625,-0.14581298828125,0.60369873046875
1759845456972,1033248479,31169,0,0.708251953125,-0.14727783203125,0.60198974609375
1759845456972,1033248479,31169,1,0.708984375,-0.14434814453125,0.59979248046875
1759845456972,1033248479,31169,2,0.707763671875,-0.14141845703125,0.60076904296875
1759845456972,1033248479,31169,3,0.70654296875,-0.14434814453125,0.60565185546875
1759845456972,1033248479,31169,4,0.706298828125,-0.14215087890625,0.60443115234375
1759845456972,1033248479,31169,5,0.708251953125,-0.14556884765625,0.60540771484375
1759845456972,1033248479,31169,6,0.706298828125,-0.14239501953125,0.60247802734375
1759845456972,1033248479,31169,7,0.706787109375,-0.14605712890625,0.60443115234375
1759845456972,1033248479,31169,8,0.70849609375,-0.14923095703125,0.60174560546875
1759845456972,1033248479,31169,9,0.70703125,-0.14874267578125,0.60223388671875
1759845456972,1033248479,31169,10,0.7109375,-0.15289306640625,0.60052490234375
1759845456972,1033248479,31169,11,0.711669921875,-0.15386962890625,0.59417724609375
1759845456972,1033248479,31169,12,0.71923828125,-0.16119384765625,0.59686279296875
1759845456972,1033248479,31169,13,0.716064453125,-0.15533447265625,0.58709716796875
1759845456972,1033248479,31169,14,0.718505859375,-0.16143798828125,0.58685302734375
1759845456972,1033248479,31169,15,0.72314453125,-0.16754150390625,0.58416748046875
1759845456972,1033248479,31169,16,0.731201171875,-0.16998291015625,0.57879638671875
1759845456972,1033248479,31169,17,0.730224609375,-0.17535400390625,0.57489013671875
1759845456972,1033248479,31169,18,0.736328125,-0.17462158203125,0.57342529296875
1759845456972,1033248479,31169,19,0.732666015625,-0.17974853515625,0.57220458984375
1759845456972,1033248479,31169,20,0.736083984375,-0.18194580078125,0.56658935546875
1759845456972,1033248479,31169,21,0.73828125,-0.18756103515625,0.56561279296875
1759845456972,1033248479,31169,22,0.740966796875,-0.18145751953125,0.56243896484375
1759845456972,1033248479,31169,23,0.738037109375,-0.18218994140625,0.55535888671875
1759845456972,1033248479,31169,24,0.7421875,-0.18365478515625,0.56097412109375
1759845456972,1033248479,31169,25,0.74609375,-0.18511962890625,0.55657958984375
1759845456972,1033248479,31169,26,0.74462890625,-0.18634033203125,0.54901123046875
1759845456972,1033248479,31169,27,0.7470703125,-0.19122314453125,0.54705810546875
1759845456972,1033248479,31169,28,0.755615234375,-0.18804931640625,0.54364013671875
1759845456972,1033248479,31169,29,0.74560546875,-0.19561767578125,0.54119873046875
1759845456972,1033248479,31169,30,0.76171875,-0.19659423828125,0.54559326171875
1759845456972,1033248479,31169,31,0.748291015625,-0.18829345703125,0.55047607421875
1759845459525,1033251058,31170,0,0.74560546875,-0.18707275390625,0.54681396484375
1759845459525,1033251058,31170,1,0.743408203125,-0.18829345703125,0.55267333984375
1759845459525,1033251058,31170,2,0.7421875,-0.18511962890625,0.55853271484375
1759845459525,1033251058,31170,3,0.736328125,-0.18511962890625,0.56268310546875
1759845459525,1033251058,31170,4,0.736572265625,-0.18243408203125,0.56512451171875
1759845459525,1033251058,31170,5,0.73486328125,-0.18096923828125,0.57806396484375
1759845459525,1033251058,31170,6,0.730224609375,-0.17803955078125,0.57342529296875
1759845459525,1033251058,31170,7,0.72998046875,-0.17706298828125,0.57611083984375
1759845459525,1033251058,31170,8,0.72607421875,-0.17193603515625,0.58026123046875
1759845459525,1033251058,31170,9,0.7236328125,-0.16900634765625,0.58563232421875
1759845459525,1033251058,31170,10,0.71728515625,-0.16436767578125,0.59075927734375
1759845459525,1033251058,31170,11,0.716796875,-0.16192626953125,0.58734130859375
1759845459525,1033251058,31170,12,0.71240234375,-0.16387939453125,0.58905029296875
1759845459525,1033251058,31170,13,0.7138671875,-0.16168212890625,0.59588623046875
1759845459525,1033251058,31170,14,0.7109375,-0.15875244140625,0.60150146484375
1759845459525,1033251058,31170,15,0.709228515625,-0.15826416015625,0.59393310546875
1759845459525,1033251058,31170,16,0.712158203125,-0.16314697265625,0.59954833984375
1759845459525,1033251058,31170,17,0.71337890625,-0.15753173828125,0.60125732421875
1759845459525,1033251058,31170,18,0.70556640625,-0.15753173828125,0.59393310546875
1759845459525,1033251058,31170,19,0.71044921875,-0.16314697265625,0.59808349609375
1759845459525,1033251058,31170,20,0.71630859375,-0.16656494140625,0.59857177734375
1759845459525,1033251058,31170,21,0.712158203125,-0.16778564453125,0.59075927734375
1759845459525,1033251058,31170,22,0.717041015625,-0.16998291015625,0.59295654296875
1759845459525,1033251058,31170,23,0.715087890625,-0.17120361328125,0.59344482421875
1759845459525,1033251058,31170,24,0.71728515625,-0.17535400390625,0.58319091796875
1759845459525,1033251058,31170,25,0.723388671875,-0.18121337890625,0.58758544921875
1759845459525,1033251058,31170,26,0.721435546875,-0.17803955078125,0.58148193359375
1759845459525,1033251058,31170,27,0.7265625,-0.17852783203125,0.57855224609375
1759845459525,1033251058,31170,28,0.73193359375,-0.18194580078125,0.57391357421875
1759845459525,1033251058,31170,29,0.7353515625,-0.18536376953125,0.57025146484375
1759845459525,1033251058,31170,30,0.732177734375,-0.18634033203125,0.55926513671875
1759845459525,1033251058,31170,31,0.739501953125,-0.19317626953125,0.56390380859375
1759845462074,1033253637,31171,0,0.74658203125,-0.19903564453125,0.55487060546875
1759845462074,1033253637,31171,1,0.748046875,-0.19879150390625,0.53607177734375
1759845462074,1033253637,31171,2,0.763671875,-0.20538330078125,0.53704833984375
1759845462074,1033253637,31171,3,0.75830078125,-0.20367431640625,0.52996826171875
1759845462074,1033253637,31171,4,0.76416015625,-0.20806884765625,0.52947998046875
1759845462074,1033253637,31171,5,0.764892578125,-0.21099853515625,0.52581787109375
1759845462074,1033253637,31171,6,0.76806640625,-0.21075439453125,0.52117919921875
1759845462074,1033253637,31171,7,0.76611328125,-0.20782470703125,0.51239013671875
1759845462074,1033253637,31171,8,0.773681640625,-0.22052001953125,0.51800537109375
1759845462074,1033253637,31171,9,0.7705078125,-0.21392822265625,0.51702880859375
1759845462074,1033253637,31171,10,0.758544921875,-0.21710205078125,0.51824951171875
1759845462074,1033253637,31171,11,0.7646484375,-0.21832275390625,0.52337646484375
1759845462074,1033253637,31171,12,0.76025390625,-0.21173095703125,0.53240966796875
1759845462074,1033253637,31171,13,0.75,-0.21246337890625,0.53802490234375
1759845462074,1033253637,31171,14,0.74365234375,-0.21099853515625,0.54827880859375
1759845462074,1033253637,31171,15,0.74072265625,-0.20172119140625,0.54656982421875
1759845462074,1033253637,31171,16,0.74169921875,-0.20782470703125,0.56170654296875
1759845462074,1033253637,31171,17,0.731201171875,-0.19464111328125,0.56097412109375
1759845462074,1033253637,31171,18,0.72900390625,-0.19439697265625,0.57318115234375
1759845462074,1033253637,31171,19,0.7216796875,-0.19732666015625,0.57684326171875
1759845462074,1033253637,31171,20,0.724853515625,-0.18780517578125,0.57757568359375
1759845462074,1033253637,31171,21,0.718017578125,-0.18585205078125,0.58587646484375
1759845462074,1033253637,31171,22,0.715576171875,-0.18072509765625,0.58856201171875
1759845462074,1033253637,31171,23,0.7138671875,-0.17926025390625,0.59539794921875
1759845462074,1033253637,31171,24,0.711181640625,-0.17926025390625,0.59222412109375
1759845462074,1033253637,31171,25,0.7099609375,-0.17779541015625,0.59173583984375
1759845462074,1033253637,31171,26,0.711181640625,-0.17413330078125,0.59295654296875
1759845462074,1033253637,31171,27,0.707275390625,-0.18194580078125,0.59588623046875
1759845462074,1033253637,31171,28,0.711181640625,-0.17828369140625,0.59466552734375
1759845462074,1033253637,31171,29,0.709228515625,-0.18194580078125,0.60028076171875
1759845462074,1033253637,31171,30,0.70947265625,-0.18145751953125,0.59124755859375
1759845462074,1033253637,31171,31,0.71630859375,-0.18463134765625,0.59490966796875
1759845464619,1033256216,31172,0,0.711181640625,-0.18658447265625,0.58343505859375
1759845464619,1033256216,31172,1,0.716552734375,-0.19293212890625,0.59368896484375
1759845464619,1033256216,31172,2,0.71484375,-0.18414306640625,0.58489990234375
1759845464619,1033256216,31172,3,0.717529296875,-0.18731689453125,0.58026123046875
1759845464619,1033256216,31172,4,0.72119140625,-0.19390869140625,0.58489990234375
1759845464619,1033256216,31172,5,0.720703125,-0.19122314453125,0.57708740234375
1759845464619,1033256216,31172,6,0.72265625,-0.19512939453125,0.58026123046875
1759845464619,1033256216,31172,7,0.728759765625,-0.19952392578125,0.57757568359375
1759845464619,1033256216,31172,8,0.7294921875,-0.20025634765625,0.57025146484375
1759845464619,1033256216,31172,9,0.73291015625,-0.20538330078125,0.57611083984375
1759845464619,1033256216,31172,10,0.733642578125,-0.19635009765625,0.56658935546875
1759845464619,1033256216,31172,11,0.733642578125,-0.19879150390625,0.56561279296875
1759845464619,1033256216,31172,12,0.734375,-0.20587158203125,0.56341552734375
1759845464619,1033256216,31172,13,0.734619140625,-0.20489501953125,0.55950927734375
1759845464619,1033256216,31172,14,0.736572265625,-0.20416259765625,0.56195068359375
1759845464619,1033256216,31172,15,0.73876953125,-0.20513916015625,0.56024169921875
1759845464619,1033256216,31172,16,0.73974609375,-0.20880126953125,0.56292724609375
1759845464619,1033256216,31172,17,0.735107421875,-0.20245361328125,0.55267333984375
1759845464619,1033256216,31172,18,0.737548828125,-0.21075439453125,0.56707763671875
1759845464619,1033256216,31172,19,0.7333984375,-0.19244384765625,0.56463623046875
1759845464619,1033256216,31172,20,0.7314453125,-0.19464111328125,0.56414794921875
1759845464619,1033256216,31172,21,0.732177734375,-0.19683837890625,0.57562255859375
1759845464619,1033256216,31172,22,0.72705078125,-0.19024658203125,0.57440185546875
1759845464619,1033256216,31172,23,0.724365234375,-0.18707275390625,0.58050537109375
1759845464619,1033256216,31172,24,0.720947265625,-0.18438720703125,0.58172607421875
1759845464619,1033256216,31172,25,0.724365234375,-0.18365478515625,0.58099365234375
1759845464619,1033256216,31172,26,0.72265625,-0.19097900390625,0.58880615234375
1759845464619,1033256216,31172,27,0.720947265625,-0.17999267578125,0.58343505859375
1759845464619,1033256216,31172,28,0.714599609375,-0.17706298828125,0.59271240234375
1759845464619,1033256216,31172,29,0.71142578125,-0.18048095703125,0.59246826171875
1759845464619,1033256216,31172,30,0.711669921875,-0.17755126953125,0.59002685546875
1759845464619,1033256216,31172,31,0.709716796875,-0.17633056640625,0.59661865234375
1759845467323,1033258789,31173,0,0.70703125,-0.17388916015625,0.59710693359375
1759845467323,1033258789,31173,1,0.70947265625,-0.17315673828125,0.59735107421875
1759845467323,1033258789,31173,2,0.7080078125,-0.17388916015625,0.59539794921875
1759845467323,1033258789,31173,3,0.708984375,-0.18218994140625,0.60198974609375
1759845467323,1033258789,31173,4,0.706298828125,-0.17120361328125,0.59613037109375
1759845467323,1033258789,31173,5,0.708251953125,-0.17486572265625,0.59222412109375
1759845467323,1033258789,31173,6,0.710693359375,-0.18707275390625,0.60028076171875
1759845467323,1033258789,31173,7,0.709716796875,-0.18072509765625,0.59075927734375
1759845467323,1033258789,31173,8,0.709716796875,-0.18463134765625,0.59564208984375
1759845467323,1033258789,31173,9,0.71240234375,-0.18756103515625,0.59149169921875
1759845467323,1033258789,31173,10,0.7216796875,-0.19000244140625,0.58441162109375
1759845467323,1033258789,31173,11,0.717041015625,-0.19073486328125,0.57781982421875
1759845467323,1033258789,31173,12,0.72509765625,-0.20001220703125,0.58563232421875
1759845467323,1033258789,31173,13,0.72265625,-0.19464111328125,0.57830810546875
1759845467323,1033258789,31173,14,0.7265625,-0.19293212890625,0.57171630859375
1759845467323,1033258789,31173,15,0.7314453125,-0.20367431640625,0.57342529296875
1759845467323,1033258789,31173,16,0.73291015625,-0.20123291015625,0.56561279296875
1759845467323,1033258789,31173,17,0.73291015625,-0.20318603515625,0.56439208984375
1759845467323,1033258789,31173,18,0.73583984375,-0.20416259765625,0.56072998046875
1759845467323,1033258789,31173,19,0.73828125,-0.21051025390625,0.55877685546875
1759845467323,1033258789,31173,20,0.740234375,-0.20758056640625,0.54608154296875
1759845467323,1033258789,31173,21,0.748779296875,-0.21588134765625,0.55462646484375
1759845467323,1033258789,31173,22,0.74658203125,-0.20880126953125,0.54364013671875
1759845467323,1033258789,31173,23,0.74658203125,-0.21295166015625,0.53729248046875
1759845467323,1033258789,31173,24,0.751220703125,-0.21759033203125,0.54534912109375
1759845467323,1033258789,31173,25,0.74951171875,-0.21270751953125,0.53851318359375
1759845467323,1033258789,31173,26,0.75048828125,-0.21490478515625,0.54437255859375
1759845467323,1033258789,31173,27,0.74560546875,-0.21417236328125,0.54266357421875
1759845467323,1033258789,31173,28,0.7451171875,-0.21124267578125,0.54681396484375
1759845467323,1033258789,31173,29,0.73779296875,-0.20733642578125,0.54388427734375
1759845467323,1033258789,31173,30,0.737060546875,-0.21710205078125,0.57586669921875
1759845467323,1033258789,31173,31,0.72705078125,-0.20172119140625,0.56463623046875
1759845469874,1033261368,31174,0,0.722412109375,-0.20367431640625,0.57098388671875
1759845469874,1033261368,31174,1,0.724853515625,-0.20904541015625,0.57781982421875
1759845469874,1033261368,31174,2,0.720947265625,-0.20269775390625,0.58026123046875
1759845469874,1033261368,31174,3,0.72119140625,-0.20123291015625,0.58489990234375
1759845469874,1033261368,31174,4,0.706787109375,-0.20220947265625,0.59393310546875
1759845469874,1033261368,31174,5,0.714111328125,-0.19659423828125,0.58441162109375
1759845469874,1033261368,31174,6,0.71044921875,-0.19659423828125,0.59002685546875
1759845469874,1033261368,31174,7,0.714599609375,-0.19610595703125,0.58953857421875
1759845469874,1033261368,31174,8,0.708251953125,-0.18975830078125,0.59417724609375
1759845469874,1033261368,31174,9,0.70458984375,-0.18951416015625,0.59051513671875
1759845469874,1033261368,31174,10,0.710693359375,-0.19293212890625,0.59173583984375
1759845469874,1033261368,31174,11,0.706787109375,-0.18804931640625,0.59149169921875
1759845469874,1033261368,31174,12,0.707275390625,-0.19219970703125,0.59539794921875
1759845469874,1033261368,31174,13,0.710205078125,-0.20098876953125,0.59686279296875
1759845469874,1033261368,31174,14,0.710205078125,-0.19390869140625,0.58929443359375
1759845469874,1033261368,31174,15,0.71533203125,-0.20709228515625,0.59246826171875
1759845469874,1033261368,31174,16,0.713623046875,-0.20001220703125,0.58148193359375
1759845469874,1033261368,31174,17,0.71630859375,-0.20147705078125,0.58074951171875
1759845469874,1033261368,31174,18,0.72314453125,-0.21026611328125,0.58367919921875
1759845469874,1033261368,31174,19,0.724365234375,-0.20733642578125,0.57684326171875
1759845469874,1033261368,31174,20,0.72509765625,-0.20440673828125,0.57318115234375
1759845469874,1033261368,31174,21,0.728759765625,-0.20977783203125,0.57806396484375
1759845469874,1033261368,31174,22,0.730712890625,-0.21075439453125,0.57073974609375
1759845469874,1033261368,31174,23,0.7294921875,-0.20806884765625,0.56195068359375
1759845469874,1033261368,31174,24,0.73291015625,-0.21539306640625,0.56781005859375
1759845469874,1033261368,31174,25,0.734619140625,-0.21173095703125,0.56146240234375
1759845469874,1033261368,31174,26,0.734619140625,-0.21588134765625,0.55706787109375
1759845469874,1033261368,31174,27,0.73974609375,-0.21685791015625,0.56195068359375
1759845469874,1033261368,31174,28,0.739990234375,-0.21270751953125,0.55023193359375
1759845469874,1033261368,31174,29,0.740234375,-0.21612548828125,0.55096435546875
1759845469874,1033261368,31174,30,0.741455078125,-0.21832275390625,0.54437255859375
1759845469874,1033261368,31174,31,0.74560546875,-0.21661376953125,0.54583740234375
1759845472425,1033263947,31175,0,0.7421875,-0.21954345703125,0.54534912109375
1759845472425,1033263947,31175,1,0.742431640625,-0.21588134765625,0.55535888671875
1759845472425,1033263947,31175,2,0.739501953125,-0.21417236328125,0.55633544921875
1759845472425,1033263947,31175,3,0.736083984375,-0.21612548828125,0.55535888671875
1759845472425,1033263947,31175,4,0.731689453125,-0.21319580078125,0.56195068359375
1759845472425,1033263947,31175,5,0.73046875,-0.20635986328125,0.56707763671875
1759845472425,1033263947,31175,6,0.726318359375,-0.20635986328125,0.57269287109375
1759845472425,1033263947,31175,7,0.723388671875,-0.20758056640625,0.58050537109375
1759845472425,1033263947,31175,8,0.720703125,-0.20098876953125,0.57415771484375
1759845472425,1033263947,31175,9,0.71533203125,-0.20513916015625,0.58465576171875
1759845472425,1033263947,31175,10,0.715576171875,-0.19219970703125,0.58612060546875
1759845472425,1033263947,31175,11,0.710693359375,-0.19317626953125,0.59295654296875
1759845472425,1033263947,31175,12,0.708984375,-0.19244384765625,0.59881591796875
1759845472425,1033263947,31175,13,0.7080078125,-0.18804931640625,0.59515380859375
1759845472425,1033263947,31175,14,0.70361328125,-0.18853759765625,0.60443115234375
1759845472425,1033263947,31175,15,0.69970703125,-0.18341064453125,0.60052490234375
1759845472425,1033263947,31175,16,0.702392578125,-0.18365478515625,0.60516357421875
1759845472425,1033263947,31175,17,0.698486328125,-0.18341064453125,0.60150146484375
1759845472425,1033263947,31175,18,0.699462890625,-0.18316650390625,0.60076904296875
1759845472425,1033263947,31175,19,0.70068359375,-0.18194580078125,0.60955810546875
1759845472425,1033263947,31175,20,0.7001953125,-0.18780517578125,0.60369873046875
1759845472425,1033263947,31175,21,0.70166015625,-0.19610595703125,0.60467529296875
1759845472425,1033263947,31175,22,0.70654296875,-0.19293212890625,0.59783935546875
1759845472425,1033263947,31175,23,0.704833984375,-0.20147705078125,0.59661865234375
1759845472425,1033263947,31175,24,0.708740234375,-0.20147705078125,0.59490966796875
1759845472425,1033263947,31175,25,0.712890625,-0.19854736328125,0.58807373046875
1759845472425,1033263947,31175,26,0.711669921875,-0.20538330078125,0.58782958984375
1759845472425,1033263947,31175,27,0.7177734375,-0.20147705078125,0.58050537109375
1759845472425,1033263947,31175,28,0.716796875,-0.20782470703125,0.58367919921875
1759845472425,1033263947,31175,29,0.71923828125,-0.20953369140625,0.57635498046875
1759845472425,1033263947,31175,30,0.724365234375,-0.21075439453125,0.57269287109375
1759845472425,1033263947,31175,31,0.728515625,-0.20831298828125,0.57440185546875
1759845474974,1033266527,31176,0,0.731689453125,-0.21197509765625,0.57025146484375
1759845474974,1033266527,31176,1,0.732421875,-0.21514892578125,0.56610107421875
1759845474974,1033266527,31176,2,0.734375,-0.21148681640625,0.55682373046875
1759845474974,1033266527,31176,3,0.736572265625,-0.21905517578125,0.56341552734375
1759845474974,1033266527,31176,4,0.738525390625,-0.21026611328125,0.54461669921875
1759845474974,1033266527,31176,5,0.7412109375,-0.22003173828125,0.54949951171875
1759845474974,1033266527,31176,6,0.746826171875,-0.22125244140625,0.54461669921875
1759845474974,1033266527,31176,7,0.75,-0.21856689453125,0.53851318359375
1759845474974,1033266527,31176,8,0.749267578125,-0.21661376953125,0.53411865234375
1759845474974,1033266527,31176,9,0.751953125,-0.21685791015625,0.53387451171875
1759845474974,1033266527,31176,10,0.7587890625,-0.21783447265625,0.53582763671875
1759845474974,1033266527,31176,11,0.7607421875,-0.21807861328125,0.53460693359375
1759845474974,1033266527,31176,12,0.75048828125,-0.21905517578125,0.53924560546875
1759845474974,1033266527,31176,13,0.7451171875,-0.21343994140625,0.54193115234375
1759845474974,1033266527,31176,14,0.74267578125,-0.21588134765625,0.54779052734375
1759845474974,1033266527,31176,15,0.738525390625,-0.21612548828125,0.55950927734375
1759845474974,1033266527,31176,16,0.730712890625,-0.20977783203125,0.56317138671875
1759845474974,1033266527,31176,17,0.726318359375,-0.20880126953125,0.57293701171875
1759845474974,1033266527,31176,18,0.724365234375,-0.20538330078125,0.57489013671875
1759845474974,1033266527,31176,19,0.721435546875,-0.20343017578125,0.57781982421875
1759845474974,1033266527,31176,20,0.716796875,-0.19903564453125,0.58074951171875
1759845474974,1033266527,31176,21,0.71337890625,-0.19805908203125,0.58905029296875
1759845474974,1033266527,31176,22,0.710205078125,-0.18975830078125,0.59075927734375
1759845474974,1033266527,31176,23,0.706298828125,-0.19171142578125,0.59027099609375
1759845474974,1033266527,31176,24,0.710693359375,-0.19830322265625,0.59051513671875
1759845474974,1033266527,31176,25,0.707275390625,-0.20001220703125,0.60784912109375
1759845474974,1033266527,31176,26,0.70263671875,-0.18536376953125,0.60858154296875
1759845474974,1033266527,31176,27,0.696533203125,-0.16802978515625,0.58489990234375
1759845474974,1033266527,31176,28,0.705078125,-0.18902587890625,0.60174560546875
1759845474974,1033266527,31176,29,0.70556640625,-0.19952392578125,0.61077880859375
1759845474974,1033266527,31176,30,0.702880859375,-0.17681884765625,0.60174560546875
1759845474974,1033266527,31176,31,0.6982421875,-0.18145751953125,0.60321044921875
1759845477524,1033269106,31177,0,0.703857421875,-0.20025634765625,0.60736083984375
1759845477524,1033269106,31177,1,0.704345703125,-0.18853759765625,0.59857177734375
1759845477524,1033269106,31177,2,0.70166015625,-0.18511962890625,0.60076904296875
1759845477524,1033269106,31177,3,0.701416015625,-0.19293212890625,0.59954833984375
1759845477524,1033269106,31177,4,0.7099609375,-0.20123291015625,0.59930419921875
1759845477524,1033269106,31177,5,0.709228515625,-0.20318603515625,0.59271240234375
1759845477524,1033269106,31177,6,0.708984375,-0.19805908203125,0.58953857421875
1759845477524,1033269106,31177,7,0.71044921875,-0.19879150390625,0.59149169921875
1759845477524,1033269106,31177,8,0.714599609375,-0.20489501953125,0.58319091796875
1759845477524,1033269106,31177,9,0.718994140625,-0.20538330078125,0.58123779296875
1759845477524,1033269106,31177,10,0.722900390625,-0.20318603515625,0.57733154296875
1759845477524,1033269106,31177,11,0.71923828125,-0.20635986328125,0.57611083984375
1759845477524,1033269106,31177,12,0.72509765625,-0.21075439453125,0.57684326171875
1759845477524,1033269106,31177,13,0.728759765625,-0.20928955078125,0.56390380859375
1759845477524,1033269106,31177,14,0.732421875,-0.21856689453125,0.57171630859375
1759845477524,1033269106,31177,15,0.734130859375,-0.21441650390625,0.56365966796875
1759845477524,1033269106,31177,16,0.735107421875,-0.21392822265625,0.55438232421875
1759845477524,1033269106,31177,17,0.738037109375,-0.21807861328125,0.55853271484375
1759845477524,1033269106,31177,18,0.739501953125,-0.21612548828125,0.54949951171875
1759845477524,1033269106,31177,19,0.74169921875,-0.21710205078125,0.54925537109375
1759845477524,1033269106,31177,20,0.740234375,-0.21954345703125,0.55950927734375
1759845477524,1033269106,31177,21,0.73828125,-0.21441650390625,0.55120849609375
1759845477524,1033269106,31177,22,0.735595703125,-0.21759033203125,0.55926513671875
1759845477524,1033269106,31177,23,0.734130859375,-0.21368408203125,0.56292724609375
1759845477524,1033269106,31177,24,0.73193359375,-0.20709228515625,0.56683349609375
1759845477524,1033269106,31177,25,0.73046875,-0.21026611328125,0.56756591796875
1759845477524,1033269106,31177,26,0.72998046875,-0.21295166015625,0.57318115234375
1759845477524,1033269106,31177,27,0.72119140625,-0.20367431640625,0.57684326171875
1759845477524,1033269106,31177,28,0.718994140625,-0.20245361328125,0.57806396484375
1759845477524,1033269106,31177,29,0.716552734375,-0.20635986328125,0.58636474609375
1759845477524,1033269106,31177,30,0.716064453125,-0.20123291015625,0.57977294921875
1759845477524,1033269106,31177,31,0.7158203125,-0.20391845703125,0.59490966796875
1759845480223,1033271685,31178,0,0.71142578125,-0.19097900390625,0.58929443359375
1759845480223,1033271685,31178,1,0.708251953125,-0.19293212890625,0.59173583984375
1759845480223,1033271685,31178,2,0.71240234375,-0.19683837890625,0.59466552734375
1759845480223,1033271685,31178,3,0.706298828125,-0.18756103515625,0.59197998046875
1759845480223,1033271685,31178,4,0.704833984375,-0.18756103515625,0.59344482421875
1759845480223,1033271685,31178,5,0.705322265625,-0.18975830078125,0.59857177734375
1759845480223,1033271685,31178,6,0.7060546875,-0.19024658203125,0.59442138671875
1759845480223,1033271685,31178,7,0.704833984375,-0.19708251953125,0.60223388671875
1759845480223,1033271685,31178,8,0.7060546875,-0.18804931640625,0.59271240234375
1759845480223,1033271685,31178,9,0.7060546875,-0.19195556640625,0.59759521484375
1759845480223,1033271685,31178,10,0.709228515625,-0.20343017578125,0.59320068359375
1759845480223,1033271685,31178,11,0.708984375,-0.19757080078125,0.58929443359375
1759845480223,1033271685,31178,12,0.708740234375,-0.19683837890625,0.59197998046875
1759845480223,1033271685,31178,13,0.71142578125,-0.20391845703125,0.58685302734375
1759845480223,1033271685,31178,14,0.714599609375,-0.20733642578125,0.58929443359375
1759845480223,1033271685,31178,15,0.71337890625,-0.20538330078125,0.57611083984375
1759845480223,1033271685,31178,16,0.722412109375,-0.21075439453125,0.58416748046875
1759845480223,1033271685,31178,17,0.7177734375,-0.20489501953125,0.57684326171875
1759845480223,1033271685,31178,18,0.721435546875,-0.20806884765625,0.57171630859375
1759845480223,1033271685,31178,19,0.728515625,-0.21514892578125,0.57659912109375
1759845480223,1033271685,31178,20,0.7265625,-0.20953369140625,0.56610107421875
1759845480223,1033271685,31178,21,0.7294921875,-0.21173095703125,0.57025146484375
1759845480223,1033271685,31178,22,0.730224609375,-0.21392822265625,0.56878662109375
1759845480223,1033271685,31178,23,0.734130859375,-0.21539306640625,0.56463623046875
1759845480223,1033271685,31178,24,0.732421875,-0.21563720703125,0.56585693359375
1759845480223,1033271685,31178,25,0.732177734375,-0.21368408203125,0.56854248046875
1759845480223,1033271685,31178,26,0.732666015625,-0.21075439453125,0.56707763671875
1759845480223,1033271685,31178,27,0.73388671875,-0.21514892578125,0.56488037109375
1759845480223,1033271685,31178,28,0.733154296875,-0.21539306640625,0.56658935546875
1759845480223,1033271685,31178,29,0.72998046875,-0.21173095703125,0.56219482421875
1759845480223,1033271685,31178,30,0.733154296875,-0.21295166015625,0.56512451171875
1759845480223,1033271685,31178,31,0.72900390625,-0.21807861328125,0.57000732421875
1759845482775,1033274264,31179,0,0.72900390625,-0.20709228515625,0.56072998046875
1759845482775,1033274264,31179,1,0.73291015625,-0.21514892578125,0.57318115234375
1759845482775,1033274264,31179,2,0.73193359375,-0.20806884765625,0.56829833984375
1759845482775,1033274264,31179,3,0.727294921875,-0.20953369140625,0.56732177734375
1759845482775,1033274264,31179,4,0.729736328125,-0.21563720703125,0.56976318359375
1759845482775,1033274264,31179,5,0.728515625,-0.20928955078125,0.56732177734375
1759845482775,1033274264,31179,6,0.729248046875,-0.21075439453125,0.56927490234375
1759845482775,1033274264,31179,7,0.72900390625,-0.21270751953125,0.57391357421875
1759845482775,1033274264,31179,8,0.730224609375,-0.20977783203125,0.56219482421875
1759845482775,1033274264,31179,9,0.730224609375,-0.21514892578125,0.57171630859375
1759845482775,1033274264,31179,10,0.728271484375,-0.21075439453125,0.56951904296875
1759845482775,1033274264,31179,11,0.72900390625,-0.20782470703125,0.56439208984375
1759845482775,1033274264,31179,12,0.73193359375,-0.21710205078125,0.57977294921875
