receivedPhoneTimestamp,respeckTimestamp,packetSeqNum,sampleSeqNum,accelX,accelY,accelZ
1760208737140,1332321905,40102,16,-0.541748046875,-0.30474853515625,0.74578857421875
1760208737140,1332321905,40102,17,-0.543701171875,-0.30889892578125,0.74676513671875
1760208737140,1332321905,40102,18,-0.53857421875,-0.30474853515625,0.74822998046875
1760208737140,1332321905,40102,19,-0.533935546875,-0.30792236328125,0.74798583984375
1760208737140,1332321905,40102,20,-0.537841796875,-0.31280517578125,0.74847412109375
1760208737140,1332321905,40102,21,-0.529052734375,-0.31158447265625,0.74969482421875
1760208737140,1332321905,40102,22,-0.537841796875,-0.31915283203125,0.74945068359375
1760208737140,1332321905,40102,23,-0.528564453125,-0.31085205078125,0.75408935546875
1760208737140,1332321905,40102,24,-0.524658203125,-0.32598876953125,0.75628662109375
1760208737140,1332321905,40102,25,-0.525146484375,-0.32989501953125,0.74725341796875
1760208737140,1332321905,40102,26,-0.52490234375,-0.32916259765625,0.75262451171875
1760208737140,1332321905,40102,27,-0.5302734375,-0.33062744140625,0.74359130859375
1760208737140,1332321905,40102,28,-0.532470703125,-0.32574462890625,0.74774169921875
1760208737140,1332321905,40102,29,-0.53564453125,-0.32550048828125,0.74896240234375
1760208737140,1332321905,40102,30,-0.535888671875,-0.31207275390625,0.74432373046875
1760208737140,1332321905,40102,31,-0.542236328125,-0.31988525390625,0.74530029296875
1760208739675,1332324448,40103,0,-0.5458984375,-0.30352783203125,0.74407958984375
1760208739675,1332324448,40103,1,-0.546875,-0.30572509765625,0.74285888671875
1760208739675,1332324448,40103,2,-0.54638671875,-0.30401611328125,0.74505615234375
1760208739675,1332324448,40103,3,-0.554443359375,-0.29473876953125,0.74237060546875
1760208739675,1332324448,40103,4,-0.554443359375,-0.29180908203125,0.73968505859375
1760208739675,1332324448,40103,5,-0.558837890625,-0.28448486328125,0.74334716796875
1760208739675,1332324448,40103,6,-0.562744140625,-0.28179931640625,0.74285888671875
1760208739675,1332324448,40103,7,-0.5703125,-0.27764892578125,0.73822021484375
1760208739675,1332324448,40103,8,-0.565673828125,-0.27008056640625,0.73577880859375
1760208739675,1332324448,40103,9,-0.57373046875,-0.27130126953125,0.73895263671875
1760208739675,1332324448,40103,10,-0.57080078125,-0.26104736328125,0.74212646484375
1760208739675,1332324448,40103,11,-0.577392578125,-0.26397705078125,0.73797607421875
1760208739675,1332324448,40103,12,-0.580810546875,-0.25860595703125,0.73553466796875
1760208739675,1332324448,40103,13,-0.569580078125,-0.26129150390625,0.74041748046875
1760208739675,1332324448,40103,14,-0.570556640625,-0.26617431640625,0.74090576171875
1760208739675,1332324448,40103,15,-0.568359375,-0.26568603515625,0.74090576171875
1760208739675,1332324448,40103,16,-0.57177734375,-0.27618408203125,0.74163818359375
1760208739675,1332324448,40103,17,-0.56201171875,-0.26812744140625,0.73724365234375
1760208739675,1332324448,40103,18,-0.562255859375,-0.27838134765625,0.74212646484375
1760208739675,1332324448,40103,19,-0.5576171875,-0.28521728515625,0.74359130859375
1760208739675,1332324448,40103,20,-0.55615234375,-0.28546142578125,0.74578857421875
1760208739675,1332324448,40103,21,-0.556640625,-0.28839111328125,0.74163818359375
1760208739675,1332324448,40103,22,-0.548095703125,-0.29180908203125,0.74505615234375
1760208739675,1332324448,40103,23,-0.5498046875,-0.29864501953125,0.74407958984375
1760208739675,1332324448,40103,24,-0.54248046875,-0.29888916015625,0.74627685546875
1760208739675,1332324448,40103,25,-0.550537109375,-0.30426025390625,0.74505615234375
1760208739675,1332324448,40103,26,-0.541748046875,-0.29937744140625,0.74749755859375
1760208739675,1332324448,40103,27,-0.53759765625,-0.31402587890625,0.74993896484375
1760208739675,1332324448,40103,28,-0.531982421875,-0.31549072265625,0.75018310546875
1760208739675,1332324448,40103,29,-0.535400390625,-0.31817626953125,0.75335693359375
1760208739675,1332324448,40103,30,-0.525146484375,-0.32183837890625,0.74725341796875
1760208739675,1332324448,40103,31,-0.524169921875,-0.32598876953125,0.75018310546875
1760208742207,1332326991,40104,0,-0.5234375,-0.32501220703125,0.75042724609375
1760208742207,1332326991,40104,1,-0.52099609375,-0.33233642578125,0.75286865234375
1760208742207,1332326991,40104,2,-0.519287109375,-0.33282470703125,0.75433349609375
1760208742207,1332326991,40104,3,-0.52001953125,-0.33868408203125,0.75408935546875
1760208742207,1332326991,40104,4,-0.523681640625,-0.33502197265625,0.74896240234375
1760208742207,1332326991,40104,5,-0.52099609375,-0.34307861328125,0.74530029296875
1760208742207,1332326991,40104,6,-0.5322265625,-0.33673095703125,0.74774169921875
1760208742207,1332326991,40104,7,-0.5283203125,-0.32818603515625,0.74432373046875
1760208742207,1332326991,40104,8,-0.533935546875,-0.33062744140625,0.74359130859375
1760208742207,1332326991,40104,9,-0.538818359375,-0.32232666015625,0.74578857421875
1760208742207,1332326991,40104,10,-0.544677734375,-0.31646728515625,0.74603271484375
1760208742207,1332326991,40104,11,-0.54296875,-0.30474853515625,0.74237060546875
1760208742207,1332326991,40104,12,-0.5537109375,-0.31036376953125,0.74334716796875
1760208742207,1332326991,40104,13,-0.560546875,-0.29034423828125,0.73748779296875
1760208742207,1332326991,40104,14,-0.55126953125,-0.29644775390625,0.74066162109375
1760208742207,1332326991,40104,15,-0.552734375,-0.29180908203125,0.74700927734375
1760208742207,1332326991,40104,16,-0.56103515625,-0.28326416015625,0.74383544921875
1760208742207,1332326991,40104,17,-0.563232421875,-0.28253173828125,0.74114990234375
1760208742207,1332326991,40104,18,-0.5615234375,-0.27911376953125,0.73895263671875
1760208742207,1332326991,40104,19,-0.567626953125,-0.28179931640625,0.74163818359375
1760208742207,1332326991,40104,20,-0.56787109375,-0.26153564453125,0.73480224609375
1760208742207,1332326991,40104,21,-0.57666015625,-0.27203369140625,0.73919677734375
1760208742207,1332326991,40104,22,-0.583251953125,-0.25885009765625,0.73309326171875
1760208742207,1332326991,40104,23,-0.56689453125,-0.26641845703125,0.73626708984375
1760208742207,1332326991,40104,24,-0.571044921875,-0.27496337890625,0.74359130859375
1760208742207,1332326991,40104,25,-0.562744140625,-0.27276611328125,0.74261474609375
1760208742207,1332326991,40104,26,-0.56591796875,-0.28082275390625,0.73773193359375
1760208742207,1332326991,40104,27,-0.55859375,-0.28472900390625,0.74334716796875
1760208742207,1332326991,40104,28,-0.5595703125,-0.28961181640625,0.74627685546875
1760208742207,1332326991,40104,29,-0.55322265625,-0.28765869140625,0.73895263671875
1760208742207,1332326991,40104,30,-0.552001953125,-0.29669189453125,0.74359130859375
1760208742207,1332326991,40104,31,-0.553955078125,-0.29254150390625,0.74481201171875
1760208744741,1332329534,40105,0,-0.542236328125,-0.30035400390625,0.73944091796875
1760208744741,1332329534,40105,1,-0.541015625,-0.30914306640625,0.75384521484375
1760208744741,1332329534,40105,2,-0.544677734375,-0.30133056640625,0.74530029296875
1760208744741,1332329534,40105,3,-0.541015625,-0.31182861328125,0.74505615234375
1760208744741,1332329534,40105,4,-0.533203125,-0.31353759765625,0.74554443359375
1760208744741,1332329534,40105,5,-0.530517578125,-0.31744384765625,0.74871826171875
1760208744741,1332329534,40105,6,-0.522216796875,-0.31915283203125,0.75604248046875
1760208744741,1332329534,40105,7,-0.535888671875,-0.32940673828125,0.75213623046875
1760208744741,1332329534,40105,8,-0.529296875,-0.31768798828125,0.74774169921875
1760208744741,1332329534,40105,9,-0.527099609375,-0.33258056640625,0.75067138671875
1760208744741,1332329534,40105,10,-0.52294921875,-0.33380126953125,0.75433349609375
1760208744741,1332329534,40105,11,-0.525146484375,-0.33282470703125,0.75091552734375
1760208744741,1332329534,40105,12,-0.528076171875,-0.33209228515625,0.74310302734375
1760208744741,1332329534,40105,13,-0.53271484375,-0.33209228515625,0.74896240234375
1760208744741,1332329534,40105,14,-0.5390625,-0.32843017578125,0.74749755859375
1760208744741,1332329534,40105,15,-0.533203125,-0.31231689453125,0.74383544921875
1760208744741,1332329534,40105,16,-0.547607421875,-0.32012939453125,0.74774169921875
1760208744741,1332329534,40105,17,-0.544677734375,-0.30279541015625,0.74285888671875
1760208744741,1332329534,40105,18,-0.549072265625,-0.30621337890625,0.74188232421875
1760208744741,1332329534,40105,19,-0.55126953125,-0.30157470703125,0.74139404296875
1760208744741,1332329534,40105,20,-0.55419921875,-0.29376220703125,0.74261474609375
1760208744741,1332329534,40105,21,-0.558837890625,-0.28912353515625,0.74066162109375
1760208744741,1332329534,40105,22,-0.56005859375,-0.28961181640625,0.73797607421875
1760208744741,1332329534,40105,23,-0.5654296875,-0.28790283203125,0.74285888671875
1760208744741,1332329534,40105,24,-0.56298828125,-0.27423095703125,0.73553466796875
1760208744741,1332329534,40105,25,-0.56591796875,-0.28350830078125,0.74066162109375
1760208744741,1332329534,40105,26,-0.572998046875,-0.27325439453125,0.73919677734375
1760208744741,1332329534,40105,27,-0.5595703125,-0.27935791015625,0.73748779296875
1760208744741,1332329534,40105,28,-0.56201171875,-0.28326416015625,0.74383544921875
1760208744741,1332329534,40105,29,-0.557373046875,-0.28179931640625,0.74432373046875
1760208744741,1332329534,40105,30,-0.55908203125,-0.29107666015625,0.74090576171875
1760208744741,1332329534,40105,31,-0.5517578125,-0.29449462890625,0.74285888671875
1760208747277,1332332077,40106,0,-0.552490234375,-0.30035400390625,0.74749755859375
1760208747277,1332332077,40106,1,-0.543701171875,-0.30010986328125,0.74505615234375
1760208747277,1332332077,40106,2,-0.54443359375,-0.30450439453125,0.74896240234375
1760208747277,1332332077,40106,3,-0.547119140625,-0.30157470703125,0.74407958984375
1760208747277,1332332077,40106,4,-0.5380859375,-0.31182861328125,0.74652099609375
1760208747277,1332332077,40106,5,-0.536376953125,-0.31134033203125,0.74896240234375
1760208747277,1332332077,40106,6,-0.534912109375,-0.31207275390625,0.74920654296875
1760208747277,1332332077,40106,7,-0.535400390625,-0.31622314453125,0.74969482421875
1760208747277,1332332077,40106,8,-0.53271484375,-0.30548095703125,0.74676513671875
1760208747277,1332332077,40106,9,-0.531982421875,-0.31280517578125,0.75726318359375
1760208747277,1332332077,40106,10,-0.527099609375,-0.30523681640625,0.75115966796875
1760208747277,1332332077,40106,11,-0.538818359375,-0.30865478515625,0.75164794921875
1760208747277,1332332077,40106,12,-0.533447265625,-0.30474853515625,0.75262451171875
1760208747277,1332332077,40106,13,-0.53466796875,-0.31036376953125,0.75604248046875
1760208747277,1332332077,40106,14,-0.52978515625,-0.31231689453125,0.75213623046875
1760208747277,1332332077,40106,15,-0.53515625,-0.31475830078125,0.75091552734375
1760208747277,1332332077,40106,16,-0.53857421875,-0.31744384765625,0.74627685546875
1760208747277,1332332077,40106,17,-0.539794921875,-0.31329345703125,0.74652099609375
1760208747277,1332332077,40106,18,-0.540771484375,-0.31011962890625,0.74627685546875
1760208747277,1332332077,40106,19,-0.544189453125,-0.31231689453125,0.74383544921875
1760208747277,1332332077,40106,20,-0.54736328125,-0.30523681640625,0.74407958984375
1760208747277,1332332077,40106,21,-0.54541015625,-0.30401611328125,0.74285888671875
1760208747277,1332332077,40106,22,-0.552734375,-0.29986572265625,0.74261474609375
1760208747277,1332332077,40106,23,-0.54931640625,-0.29888916015625,0.74310302734375
1760208747277,1332332077,40106,24,-0.557861328125,-0.29571533203125,0.74188232421875
1760208747277,1332332077,40106,25,-0.55712890625,-0.28594970703125,0.74066162109375
1760208747277,1332332077,40106,26,-0.5595703125,-0.27789306640625,0.73797607421875
1760208747277,1332332077,40106,27,-0.562744140625,-0.27862548828125,0.74017333984375
1760208747277,1332332077,40106,28,-0.569580078125,-0.27593994140625,0.73748779296875
1760208747277,1332332077,40106,29,-0.56982421875,-0.27081298828125,0.73699951171875
1760208747277,1332332077,40106,30,-0.56201171875,-0.27203369140625,0.73846435546875
1760208747277,1332332077,40106,31,-0.56689453125,-0.27667236328125,0.74481201171875
1760208750008,1332334621,40107,0,-0.56005859375,-0.28302001953125,0.74359130859375
1760208750008,1332334621,40107,1,-0.5576171875,-0.28765869140625,0.74407958984375
1760208750008,1332334621,40107,2,-0.555419921875,-0.28375244140625,0.74261474609375
1760208750008,1332334621,40107,3,-0.552001953125,-0.28961181640625,0.74407958984375
1760208750008,1332334621,40107,4,-0.55078125,-0.29034423828125,0.74285888671875
1760208750008,1332334621,40107,5,-0.552001953125,-0.29278564453125,0.74456787109375
1760208750008,1332334621,40107,6,-0.551025390625,-0.29888916015625,0.74261474609375
1760208750008,1332334621,40107,7,-0.54833984375,-0.29254150390625,0.74627685546875
1760208750008,1332334621,40107,8,-0.547607421875,-0.29669189453125,0.74627685546875
1760208750008,1332334621,40107,9,-0.5361328125,-0.30303955078125,0.74749755859375
1760208750008,1332334621,40107,10,-0.5458984375,-0.30474853515625,0.74896240234375
1760208750008,1332334621,40107,11,-0.543701171875,-0.29913330078125,0.74774169921875
1760208750008,1332334621,40107,12,-0.54296875,-0.30108642578125,0.74383544921875
1760208750008,1332334621,40107,13,-0.536865234375,-0.30303955078125,0.74871826171875
1760208750008,1332334621,40107,14,-0.54052734375,-0.30914306640625,0.75335693359375
1760208750008,1332334621,40107,15,-0.53759765625,-0.30303955078125,0.74920654296875
1760208750008,1332334621,40107,16,-0.54150390625,-0.31304931640625,0.75213623046875
1760208750008,1332334621,40107,17,-0.54150390625,-0.30303955078125,0.74530029296875
1760208750008,1332334621,40107,18,-0.5390625,-0.31109619140625,0.74578857421875
1760208750008,1332334621,40107,19,-0.540283203125,-0.31304931640625,0.74725341796875
1760208750008,1332334621,40107,20,-0.540283203125,-0.30523681640625,0.74749755859375
1760208750008,1332334621,40107,21,-0.54443359375,-0.30963134765625,0.74285888671875
1760208750008,1332334621,40107,22,-0.546630859375,-0.30377197265625,0.74407958984375
1760208750008,1332334621,40107,23,-0.5517578125,-0.29937744140625,0.74456787109375
1760208750008,1332334621,40107,24,-0.55224609375,-0.29840087890625,0.74261474609375
1760208750008,1332334621,40107,25,-0.554931640625,-0.29644775390625,0.74212646484375
1760208750008,1332334621,40107,26,-0.55419921875,-0.28790283203125,0.74163818359375
1760208750008,1332334621,40107,27,-0.565673828125,-0.28057861328125,0.73968505859375
1760208750008,1332334621,40107,28,-0.556396484375,-0.28643798828125,0.73944091796875
1760208750008,1332334621,40107,29,-0.562255859375,-0.28009033203125,0.74114990234375
1760208750008,1332334621,40107,30,-0.564697265625,-0.27520751953125,0.73236083984375
1760208750008,1332334621,40107,31,-0.56396484375,-0.28277587890625,0.74066162109375
1760208752543,1332337164,40108,0,-0.55859375,-0.28106689453125,0.74114990234375
1760208752543,1332337164,40108,1,-0.5673828125,-0.28765869140625,0.74237060546875
1760208752543,1332337164,40108,2,-0.556640625,-0.28179931640625,0.74359130859375
1760208752543,1332337164,40108,3,-0.5634765625,-0.29351806640625,0.74285888671875
1760208752543,1332337164,40108,4,-0.564453125,-0.28472900390625,0.73992919921875
1760208752543,1332337164,40108,5,-0.55517578125,-0.29571533203125,0.74041748046875
1760208752543,1332337164,40108,6,-0.554931640625,-0.29620361328125,0.74334716796875
1760208752543,1332337164,40108,7,-0.552734375,-0.29205322265625,0.74432373046875
1760208752543,1332337164,40108,8,-0.551513671875,-0.29498291015625,0.74334716796875
1760208752543,1332337164,40108,9,-0.549560546875,-0.29644775390625,0.74310302734375
1760208752543,1332337164,40108,10,-0.5478515625,-0.29669189453125,0.74237060546875
1760208752543,1332337164,40108,11,-0.549560546875,-0.29986572265625,0.74798583984375
1760208752543,1332337164,40108,12,-0.544921875,-0.29571533203125,0.74578857421875
1760208752543,1332337164,40108,13,-0.54638671875,-0.30474853515625,0.74676513671875
1760208752543,1332337164,40108,14,-0.543701171875,-0.30010986328125,0.74676513671875
1760208752543,1332337164,40108,15,-0.539794921875,-0.30938720703125,0.74603271484375
1760208752543,1332337164,40108,16,-0.53515625,-0.31280517578125,0.75848388671875
1760208752543,1332337164,40108,17,-0.53076171875,-0.31378173828125,0.75897216796875
1760208752543,1332337164,40108,18,-0.5361328125,-0.31549072265625,0.75164794921875
1760208752543,1332337164,40108,19,-0.536376953125,-0.31451416015625,0.75140380859375
1760208752543,1332337164,40108,20,-0.5400390625,-0.31329345703125,0.74676513671875
1760208752543,1332337164,40108,21,-0.54296875,-0.31402587890625,0.74627685546875
1760208752543,1332337164,40108,22,-0.542724609375,-0.30572509765625,0.74407958984375
1760208752543,1332337164,40108,23,-0.54931640625,-0.30572509765625,0.74310302734375
1760208752543,1332337164,40108,24,-0.554931640625,-0.29180908203125,0.74090576171875
1760208752543,1332337164,40108,25,-0.55126953125,-0.29302978515625,0.73626708984375
1760208752543,1332337164,40108,26,-0.564208984375,-0.29205322265625,0.74896240234375
1760208752543,1332337164,40108,27,-0.560302734375,-0.27838134765625,0.74114990234375
1760208752543,1332337164,40108,28,-0.572265625,-0.27984619140625,0.73992919921875
1760208752543,1332337164,40108,29,-0.56494140625,-0.27447509765625,0.73748779296875
1760208752543,1332337164,40108,30,-0.575927734375,-0.27471923828125,0.74017333984375
1760208752543,1332337164,40108,31,-0.571044921875,-0.26275634765625,0.73822021484375
1760208755077,1332339707,40109,0,-0.575439453125,-0.27569580078125,0.73773193359375
1760208755077,1332339707,40109,1,-0.575927734375,-0.26202392578125,0.73406982421875
1760208755077,1332339707,40109,2,-0.5673828125,-0.27081298828125,0.73870849609375
1760208755077,1332339707,40109,3,-0.572998046875,-0.27984619140625,0.74041748046875
1760208755077,1332339707,40109,4,-0.5751953125,-0.26739501953125,0.73822021484375
1760208755077,1332339707,40109,5,-0.5712890625,-0.26885986328125,0.74212646484375
1760208755077,1332339707,40109,6,-0.56787109375,-0.27423095703125,0.74212646484375
1760208755077,1332339707,40109,7,-0.567138671875,-0.27691650390625,0.74407958984375
1760208755077,1332339707,40109,8,-0.5615234375,-0.27447509765625,0.74432373046875
1760208755077,1332339707,40109,9,-0.562255859375,-0.28741455078125,0.74310302734375
1760208755077,1332339707,40109,10,-0.5576171875,-0.28228759765625,0.74578857421875
1760208755077,1332339707,40109,11,-0.557861328125,-0.28961181640625,0.74066162109375
1760208755077,1332339707,40109,12,-0.554443359375,-0.29132080078125,0.74383544921875
1760208755077,1332339707,40109,13,-0.555908203125,-0.29058837890625,0.74237060546875
1760208755077,1332339707,40109,14,-0.5546875,-0.28985595703125,0.74505615234375
1760208755077,1332339707,40109,15,-0.549560546875,-0.29156494140625,0.74578857421875
1760208755077,1332339707,40109,16,-0.550048828125,-0.28912353515625,0.74407958984375
1760208755077,1332339707,40109,17,-0.5546875,-0.29327392578125,0.74554443359375
1760208755077,1332339707,40109,18,-0.5498046875,-0.28717041015625,0.74700927734375
1760208755077,1332339707,40109,19,-0.55078125,-0.29425048828125,0.75189208984375
1760208755077,1332339707,40109,20,-0.552978515625,-0.28863525390625,0.74725341796875
1760208755077,1332339707,40109,21,-0.546875,-0.29913330078125,0.74676513671875
1760208755077,1332339707,40109,22,-0.548828125,-0.30059814453125,0.74920654296875
1760208755077,1332339707,40109,23,-0.550048828125,-0.29376220703125,0.74505615234375
1760208755077,1332339707,40109,24,-0.553466796875,-0.29962158203125,0.73626708984375
1760208755077,1332339707,40109,25,-0.552978515625,-0.29937744140625,0.74212646484375
1760208755077,1332339707,40109,26,-0.556396484375,-0.28985595703125,0.74261474609375
1760208755077,1332339707,40109,27,-0.557861328125,-0.29180908203125,0.74017333984375
1760208755077,1332339707,40109,28,-0.5625,-0.29010009765625,0.74334716796875
1760208755077,1332339707,40109,29,-0.56201171875,-0.28228759765625,0.74114990234375
1760208755077,1332339707,40109,30,-0.5712890625,-0.27813720703125,0.73773193359375
1760208755077,1332339707,40109,31,-0.565185546875,-0.28155517578125,0.74114990234375
1760208757611,1332342250,40110,0,-0.57373046875,-0.27349853515625,0.73797607421875
1760208757611,1332342250,40110,1,-0.570556640625,-0.26715087890625,0.73406982421875
1760208757611,1332342250,40110,2,-0.57666015625,-0.26788330078125,0.73822021484375
1760208757611,1332342250,40110,3,-0.576171875,-0.26763916015625,0.73822021484375
1760208757611,1332342250,40110,4,-0.576171875,-0.26788330078125,0.73797607421875
1760208757611,1332342250,40110,5,-0.568603515625,-0.26470947265625,0.73822021484375
1760208757611,1332342250,40110,6,-0.57373046875,-0.27325439453125,0.73699951171875
1760208757611,1332342250,40110,7,-0.566162109375,-0.26617431640625,0.74114990234375
1760208757611,1332342250,40110,8,-0.56591796875,-0.27398681640625,0.74237060546875
1760208757611,1332342250,40110,9,-0.5625,-0.27716064453125,0.74749755859375
1760208757611,1332342250,40110,10,-0.5615234375,-0.27618408203125,0.74359130859375
1760208757611,1332342250,40110,11,-0.557861328125,-0.27984619140625,0.74359130859375
1760208757611,1332342250,40110,12,-0.5556640625,-0.28155517578125,0.74432373046875
1760208757611,1332342250,40110,13,-0.549072265625,-0.28717041015625,0.74822998046875
1760208757611,1332342250,40110,14,-0.552001953125,-0.28326416015625,0.74700927734375
1760208757611,1332342250,40110,15,-0.54931640625,-0.28570556640625,0.74725341796875
1760208757611,1332342250,40110,16,-0.550048828125,-0.28155517578125,0.75018310546875
1760208757611,1332342250,40110,17,-0.549560546875,-0.28863525390625,0.74481201171875
1760208757611,1332342250,40110,18,-0.548583984375,-0.29132080078125,0.74603271484375
1760208757611,1332342250,40110,19,-0.548095703125,-0.30108642578125,0.74798583984375
1760208757611,1332342250,40110,20,-0.544189453125,-0.30279541015625,0.75067138671875
1760208757611,1332342250,40110,21,-0.550048828125,-0.30426025390625,0.74749755859375
1760208757611,1332342250,40110,22,-0.55224609375,-0.29547119140625,0.74432373046875
1760208757611,1332342250,40110,23,-0.5517578125,-0.29620361328125,0.74090576171875
1760208757611,1332342250,40110,24,-0.55322265625,-0.29327392578125,0.74359130859375
1760208757611,1332342250,40110,25,-0.557373046875,-0.28912353515625,0.73919677734375
1760208757611,1332342250,40110,26,-0.560546875,-0.28863525390625,0.74334716796875
1760208757611,1332342250,40110,27,-0.5595703125,-0.28277587890625,0.73870849609375
1760208757611,1332342250,40110,28,-0.572021484375,-0.28277587890625,0.73797607421875
1760208757611,1332342250,40110,29,-0.5673828125,-0.27105712890625,0.73553466796875
1760208757611,1332342250,40110,30,-0.580810546875,-0.27178955078125,0.73797607421875
1760208757611,1332342250,40110,31,-0.57275390625,-0.27032470703125,0.73626708984375
1760208760149,1332344793,40111,0,-0.58203125,-0.26544189453125,0.73724365234375
1760208760149,1332344793,40111,1,-0.58056640625,-0.25567626953125,0.73284912109375
1760208760149,1332344793,40111,2,-0.582763671875,-0.25274658203125,0.73309326171875
1760208760149,1332344793,40111,3,-0.581787109375,-0.25372314453125,0.73553466796875
1760208760149,1332344793,40111,4,-0.584716796875,-0.25738525390625,0.73699951171875
1760208760149,1332344793,40111,5,-0.572265625,-0.26055908203125,0.73992919921875
1760208760149,1332344793,40111,6,-0.58203125,-0.27105712890625,0.73553466796875
1760208760149,1332344793,40111,7,-0.573486328125,-0.26251220703125,0.73651123046875
1760208760149,1332344793,40111,8,-0.574462890625,-0.27056884765625,0.74114990234375
1760208760149,1332344793,40111,9,-0.565673828125,-0.27276611328125,0.74334716796875
1760208760149,1332344793,40111,10,-0.562255859375,-0.27423095703125,0.74554443359375
1760208760149,1332344793,40111,11,-0.560791015625,-0.27569580078125,0.74432373046875
1760208760149,1332344793,40111,12,-0.559814453125,-0.28009033203125,0.74407958984375
1760208760149,1332344793,40111,13,-0.552734375,-0.27960205078125,0.74652099609375
1760208760149,1332344793,40111,14,-0.5537109375,-0.28472900390625,0.74920654296875
1760208760149,1332344793,40111,15,-0.544921875,-0.28546142578125,0.75067138671875
1760208760149,1332344793,40111,16,-0.5478515625,-0.28887939453125,0.74871826171875
1760208760149,1332344793,40111,17,-0.54638671875,-0.28790283203125,0.75140380859375
1760208760149,1332344793,40111,18,-0.548583984375,-0.28619384765625,0.75067138671875
1760208760149,1332344793,40111,19,-0.54296875,-0.29327392578125,0.74847412109375
1760208760149,1332344793,40111,20,-0.543212890625,-0.29400634765625,0.75506591796875
1760208760149,1332344793,40111,21,-0.5419921875,-0.29376220703125,0.75042724609375
1760208760149,1332344793,40111,22,-0.544677734375,-0.29669189453125,0.74432373046875
1760208760149,1332344793,40111,23,-0.54150390625,-0.29888916015625,0.74554443359375
1760208760149,1332344793,40111,24,-0.549072265625,-0.29962158203125,0.74725341796875
1760208760149,1332344793,40111,25,-0.54345703125,-0.30596923828125,0.74432373046875
1760208760149,1332344793,40111,26,-0.549072265625,-0.30303955078125,0.74407958984375
1760208760149,1332344793,40111,27,-0.54833984375,-0.30035400390625,0.74481201171875
1760208760149,1332344793,40111,28,-0.5556640625,-0.29840087890625,0.73992919921875
1760208760149,1332344793,40111,29,-0.551513671875,-0.30035400390625,0.73870849609375
1760208760149,1332344793,40111,30,-0.5576171875,-0.29571533203125,0.74310302734375
1760208760149,1332344793,40111,31,-0.5556640625,-0.29083251953125,0.74066162109375
1760208762683,1332347336,40112,0,-0.55908203125,-0.29034423828125,0.74017333984375
1760208762683,1332347336,40112,1,-0.559814453125,-0.28839111328125,0.74041748046875
1760208762683,1332347336,40112,2,-0.56787109375,-0.28619384765625,0.73822021484375
1760208762683,1332347336,40112,3,-0.560791015625,-0.27447509765625,0.73919677734375
1760208762683,1332347336,40112,4,-0.564453125,-0.28521728515625,0.73773193359375
1760208762683,1332347336,40112,5,-0.5693359375,-0.27447509765625,0.74163818359375
1760208762683,1332347336,40112,6,-0.56396484375,-0.28106689453125,0.73822021484375
1760208762683,1332347336,40112,7,-0.564453125,-0.28228759765625,0.74237060546875
1760208762683,1332347336,40112,8,-0.56298828125,-0.28082275390625,0.74114990234375
1760208762683,1332347336,40112,9,-0.5625,-0.28302001953125,0.73992919921875
1760208762683,1332347336,40112,10,-0.560546875,-0.28472900390625,0.74359130859375
1760208762683,1332347336,40112,11,-0.5576171875,-0.27813720703125,0.74017333984375
1760208762683,1332347336,40112,12,-0.5693359375,-0.27984619140625,0.74237060546875
1760208762683,1332347336,40112,13,-0.561767578125,-0.28106689453125,0.74237060546875
1760208762683,1332347336,40112,14,-0.553466796875,-0.28912353515625,0.74505615234375
1760208762683,1332347336,40112,15,-0.5537109375,-0.28326416015625,0.74359130859375
1760208762683,1332347336,40112,16,-0.562255859375,-0.29156494140625,0.74798583984375
1760208762683,1332347336,40112,17,-0.550537109375,-0.29400634765625,0.74627685546875
1760208762683,1332347336,40112,18,-0.546875,-0.29302978515625,0.74871826171875
1760208762683,1332347336,40112,19,-0.539306640625,-0.29498291015625,0.75042724609375
1760208762683,1332347336,40112,20,-0.5390625,-0.29742431640625,0.74920654296875
1760208762683,1332347336,40112,21,-0.5380859375,-0.29937744140625,0.75262451171875
1760208762683,1332347336,40112,22,-0.533203125,-0.30377197265625,0.75115966796875
1760208762683,1332347336,40112,23,-0.537353515625,-0.30230712890625,0.75311279296875
1760208762683,1332347336,40112,24,-0.53759765625,-0.30767822265625,0.75140380859375
1760208762683,1332347336,40112,25,-0.544921875,-0.30133056640625,0.74945068359375
1760208762683,1332347336,40112,26,-0.548828125,-0.30645751953125,0.74090576171875
1760208762683,1332347336,40112,27,-0.55126953125,-0.30133056640625,0.74700927734375
1760208762683,1332347336,40112,28,-0.544189453125,-0.28912353515625,0.74554443359375
1760208762683,1332347336,40112,29,-0.562744140625,-0.29254150390625,0.73919677734375
1760208762683,1332347336,40112,30,-0.552490234375,-0.29522705078125,0.74407958984375
1760208762683,1332347336,40112,31,-0.555419921875,-0.28936767578125,0.74139404296875
1760208765219,1332349879,40113,0,-0.561279296875,-0.29400634765625,0.73870849609375
1760208765219,1332349879,40113,1,-0.561767578125,-0.28594970703125,0.74237060546875
1760208765219,1332349879,40113,2,-0.564453125,-0.28594970703125,0.74139404296875
1760208765219,1332349879,40113,3,-0.572998046875,-0.27740478515625,0.73651123046875
1760208765219,1332349879,40113,4,-0.566650390625,-0.28179931640625,0.73699951171875
1760208765219,1332349879,40113,5,-0.57373046875,-0.27398681640625,0.73773193359375
1760208765219,1332349879,40113,6,-0.5693359375,-0.26983642578125,0.73577880859375
1760208765219,1332349879,40113,7,-0.572265625,-0.27447509765625,0.73358154296875
1760208765219,1332349879,40113,8,-0.572021484375,-0.27081298828125,0.73968505859375
1760208765219,1332349879,40113,9,-0.569580078125,-0.27374267578125,0.73675537109375
1760208765219,1332349879,40113,10,-0.566650390625,-0.27716064453125,0.74017333984375
1760208765219,1332349879,40113,11,-0.567626953125,-0.28057861328125,0.74237060546875
1760208765219,1332349879,40113,12,-0.563232421875,-0.28009033203125,0.74334716796875
1760208765219,1332349879,40113,13,-0.568359375,-0.27764892578125,0.74383544921875
1760208765219,1332349879,40113,14,-0.557373046875,-0.28668212890625,0.74139404296875
1760208765219,1332349879,40113,15,-0.556884765625,-0.28472900390625,0.74432373046875
1760208765219,1332349879,40113,16,-0.553955078125,-0.28472900390625,0.74212646484375
1760208765219,1332349879,40113,17,-0.5556640625,-0.28643798828125,0.74505615234375
1760208765219,1332349879,40113,18,-0.552001953125,-0.28643798828125,0.74578857421875
1760208765219,1332349879,40113,19,-0.552978515625,-0.28839111328125,0.74578857421875
1760208765219,1332349879,40113,20,-0.552734375,-0.28887939453125,0.74822998046875
1760208765219,1332349879,40113,21,-0.546142578125,-0.28643798828125,0.75140380859375
1760208765219,1332349879,40113,22,-0.549560546875,-0.29376220703125,0.74603271484375
1760208765219,1332349879,40113,23,-0.546875,-0.28887939453125,0.74871826171875
1760208765219,1332349879,40113,24,-0.550048828125,-0.28887939453125,0.74652099609375
1760208765219,1332349879,40113,25,-0.546875,-0.29132080078125,0.74652099609375
1760208765219,1332349879,40113,26,-0.552978515625,-0.29205322265625,0.74896240234375
1760208765219,1332349879,40113,27,-0.546875,-0.29180908203125,0.74774169921875
1760208765219,1332349879,40113,28,-0.54931640625,-0.29278564453125,0.74700927734375
1760208765219,1332349879,40113,29,-0.548828125,-0.29498291015625,0.74774169921875
1760208765219,1332349879,40113,30,-0.552490234375,-0.29693603515625,0.74163818359375
1760208765219,1332349879,40113,31,-0.55517578125,-0.29644775390625,0.73968505859375
1760208767754,1332352422,40114,0,-0.560546875,-0.29400634765625,0.74359130859375
1760208767754,1332352422,40114,1,-0.56201171875,-0.28741455078125,0.73797607421875
