receivedPhoneTimestamp,respeckTimestamp,packetSeqNum,sampleSeqNum,accelX,accelY,accelZ
1759870559131,966030273,6038,31,-0.161376953125,-1.02569580078125,-0.03179931640625
1759870561474,966032810,6039,0,-0.16455078125,-1.03106689453125,-0.02301025390625
1759870561474,966032810,6039,1,-0.16650390625,-1.03082275390625,-0.02325439453125
1759870561474,966032810,6039,2,-0.16650390625,-1.02886962890625,-0.01544189453125
1759870561474,966032810,6039,3,-0.162841796875,-1.02813720703125,-0.00396728515625
1759870561474,966032810,6039,4,-0.158203125,-1.03033447265625,-0.00933837890625
1759870561474,966032810,6039,5,-0.151123046875,-1.02545166015625,-0.00225830078125
1759870561474,966032810,6039,6,-0.15771484375,-1.03326416015625,0.00115966796875
1759870561474,966032810,6039,7,-0.158203125,-1.03057861328125,0.01092529296875
1759870561474,966032810,6039,8,-0.160888671875,-1.02667236328125,0.00775146484375
1759870561474,966032810,6039,9,-0.162841796875,-1.02935791015625,0.00531005859375
1759870561474,966032810,6039,10,-0.1611328125,-1.02886962890625,0.00750732421875
1759870561474,966032810,6039,11,-0.167724609375,-1.03009033203125,0.00653076171875
1759870561474,966032810,6039,12,-0.166015625,-1.02764892578125,0.01141357421875
1759870561474,966032810,6039,13,-0.166259765625,-1.03033447265625,0.00433349609375
1759870561474,966032810,6039,14,-0.163330078125,-1.03082275390625,0.00457763671875
1759870561474,966032810,6039,15,-0.167724609375,-1.02935791015625,0.00482177734375
1759870561474,966032810,6039,16,-0.167236328125,-1.03155517578125,0.00189208984375
1759870561474,966032810,6039,17,-0.168212890625,-1.02862548828125,0.00042724609375
1759870561474,966032810,6039,18,-0.163330078125,-1.02886962890625,-0.00225830078125
1759870561474,966032810,6039,19,-0.167724609375,-1.03106689453125,-0.00421142578125
1759870561474,966032810,6039,20,-0.166748046875,-1.02740478515625,-0.00323486328125
1759870561474,966032810,6039,21,-0.16845703125,-1.02862548828125,-0.00933837890625
1759870561474,966032810,6039,22,-0.1689453125,-1.02935791015625,-0.01422119140625
1759870561474,966032810,6039,23,-0.169677734375,-1.02740478515625,-0.01568603515625
1759870561474,966032810,6039,24,-0.168212890625,-1.03131103515625,-0.01983642578125
1759870561474,966032810,6039,25,-0.174560546875,-1.02838134765625,-0.01300048828125
1759870561474,966032810,6039,26,-0.17529296875,-1.02935791015625,-0.02032470703125
1759870561474,966032810,6039,27,-0.171875,-1.02227783203125,-0.02423095703125
1759870561474,966032810,6039,28,-0.16796875,-1.03057861328125,-0.02398681640625
1759870561474,966032810,6039,29,-0.171142578125,-1.02545166015625,-0.02471923828125
1759870561474,966032810,6039,30,-0.171630859375,-1.02618408203125,-0.02569580078125
1759870561474,966032810,6039,31,-0.169921875,-1.02667236328125,-0.02593994140625
1759870563996,966035347,6040,0,-0.171142578125,-1.02740478515625,-0.02789306640625
1759870563996,966035347,6040,1,-0.17431640625,-1.02496337890625,-0.02862548828125
1759870563996,966035347,6040,2,-0.17724609375,-1.03009033203125,-0.03033447265625
1759870563996,966035347,6040,3,-0.17724609375,-1.02593994140625,-0.01983642578125
1759870563996,966035347,6040,4,-0.177001953125,-1.03009033203125,-0.01934814453125
1759870563996,966035347,6040,5,-0.17724609375,-1.03009033203125,-0.02276611328125
1759870563996,966035347,6040,6,-0.1767578125,-1.02545166015625,-0.01983642578125
1759870563996,966035347,6040,7,-0.178955078125,-1.02984619140625,-0.01080322265625
1759870563996,966035347,6040,8,-0.178466796875,-1.02838134765625,-0.00933837890625
1759870563996,966035347,6040,9,-0.179931640625,-1.02813720703125,-0.00738525390625
1759870563996,966035347,6040,10,-0.18701171875,-1.02740478515625,-0.01177978515625
1759870563996,966035347,6040,11,-0.182861328125,-1.02691650390625,-0.00421142578125
1759870563996,966035347,6040,12,-0.18310546875,-1.02691650390625,-0.00177001953125
1759870563996,966035347,6040,13,-0.185546875,-1.02618408203125,0.00042724609375
1759870563996,966035347,6040,14,-0.18798828125,-1.02716064453125,0.00482177734375
1759870563996,966035347,6040,15,-0.185791015625,-1.02691650390625,0.00433349609375
1759870563996,966035347,6040,16,-0.18359375,-1.02545166015625,0.01116943359375
1759870563996,966035347,6040,17,-0.1826171875,-1.02349853515625,0.00701904296875
1759870563996,966035347,6040,18,-0.187255859375,-1.02325439453125,0.00408935546875
1759870563996,966035347,6040,19,-0.191162109375,-1.02618408203125,0.01019287109375
1759870563996,966035347,6040,20,-0.1875,-1.02691650390625,0.01312255859375
1759870563996,966035347,6040,21,-0.189697265625,-1.02691650390625,0.00775146484375
1759870563996,966035347,6040,22,-0.187255859375,-1.02911376953125,0.00848388671875
1759870563996,966035347,6040,23,-0.18603515625,-1.02545166015625,0.00335693359375
1759870563996,966035347,6040,24,-0.184326171875,-1.02423095703125,0.00115966796875
1759870563996,966035347,6040,25,-0.185302734375,-1.02716064453125,0.00140380859375
1759870563996,966035347,6040,26,-0.181640625,-1.02838134765625,0.00384521484375
1759870563996,966035347,6040,27,-0.183837890625,-1.02618408203125,0.00628662109375
1759870563996,966035347,6040,28,-0.17919921875,-1.02838134765625,0.00604248046875
1759870563996,966035347,6040,29,-0.17919921875,-1.02813720703125,0.00701904296875
1759870563996,966035347,6040,30,-0.1796875,-1.02740478515625,0.00140380859375
1759870563996,966035347,6040,31,-0.173828125,-1.02838134765625,0.00360107421875
1759870566503,966037884,6041,0,-0.177001953125,-1.02716064453125,0.00579833984375
1759870566503,966037884,6041,1,-0.173583984375,-1.02716064453125,0.00311279296875
1759870566503,966037884,6041,2,-0.177978515625,-1.02593994140625,0.00848388671875
1759870566503,966037884,6041,3,-0.17822265625,-1.03179931640625,0.00042724609375
1759870566503,966037884,6041,4,-0.173095703125,-1.02886962890625,0.01361083984375
1759870566503,966037884,6041,5,-0.1650390625,-1.02813720703125,0.01190185546875
1759870566503,966037884,6041,6,-0.171875,-1.02276611328125,0.00921630859375
1759870566503,966037884,6041,7,-0.177734375,-1.02593994140625,0.00799560546875
1759870566503,966037884,6041,8,-0.173583984375,-1.02667236328125,0.00408935546875
1759870566503,966037884,6041,9,-0.16943359375,-1.02862548828125,0.01165771484375
1759870566503,966037884,6041,10,-0.16748046875,-1.02935791015625,0.00701904296875
1759870566503,966037884,6041,11,-0.166748046875,-1.02862548828125,0.00408935546875
1759870566503,966037884,6041,12,-0.166259765625,-1.03082275390625,-0.00152587890625
1759870566503,966037884,6041,13,-0.167724609375,-1.02911376953125,0.00115966796875
1759870566503,966037884,6041,14,-0.163818359375,-1.02960205078125,0.00067138671875
1759870566503,966037884,6041,15,-0.166748046875,-1.02764892578125,-0.00323486328125
1759870566503,966037884,6041,16,-0.1689453125,-1.02911376953125,-0.00201416015625
1759870566503,966037884,6041,17,-0.174560546875,-1.02496337890625,0.00067138671875
1759870566503,966037884,6041,18,-0.167724609375,-1.02862548828125,0.00311279296875
1759870566503,966037884,6041,19,-0.173583984375,-1.02813720703125,0.00042724609375
1759870566503,966037884,6041,20,-0.170654296875,-1.02838134765625,0.00067138671875
1759870566503,966037884,6041,21,-0.1708984375,-1.02984619140625,0.00457763671875
1759870566503,966037884,6041,22,-0.17333984375,-1.03033447265625,0.01312255859375
1759870566503,966037884,6041,23,-0.17578125,-1.02838134765625,0.01922607421875
1759870566503,966037884,6041,24,-0.181884765625,-1.02667236328125,0.01702880859375
1759870566503,966037884,6041,25,-0.184814453125,-1.02349853515625,0.02899169921875
1759870566503,966037884,6041,26,-0.184814453125,-1.01715087890625,0.03338623046875
1759870566503,966037884,6041,27,-0.182861328125,-1.02618408203125,0.03094482421875
1759870566503,966037884,6041,28,-0.180419921875,-1.02398681640625,0.03240966796875
1759870566503,966037884,6041,29,-0.182861328125,-1.02740478515625,0.02972412109375
1759870566503,966037884,6041,30,-0.180419921875,-1.02691650390625,0.02923583984375
1759870566503,966037884,6041,31,-0.183837890625,-1.02740478515625,0.02703857421875
1759870569031,966040421,6042,0,-0.18115234375,-1.02618408203125,0.02947998046875
1759870569031,966040421,6042,1,-0.18310546875,-1.02496337890625,0.02874755859375
1759870569031,966040421,6042,2,-0.184814453125,-1.02618408203125,0.02679443359375
1759870569031,966040421,6042,3,-0.179443359375,-1.02764892578125,0.02655029296875
1759870569031,966040421,6042,4,-0.179443359375,-1.02740478515625,0.02532958984375
1759870569031,966040421,6042,5,-0.179443359375,-1.02569580078125,0.02679443359375
1759870569031,966040421,6042,6,-0.181884765625,-1.02691650390625,0.02484130859375
1759870569031,966040421,6042,7,-0.180908203125,-1.02618408203125,0.02581787109375
1759870569031,966040421,6042,8,-0.179931640625,-1.02838134765625,0.02166748046875
1759870569031,966040421,6042,9,-0.17919921875,-1.02593994140625,0.02337646484375
1759870569031,966040421,6042,10,-0.18408203125,-1.02593994140625,0.02532958984375
1759870569031,966040421,6042,11,-0.183349609375,-1.02667236328125,0.02752685546875
1759870569031,966040421,6042,12,-0.178955078125,-1.02618408203125,0.02166748046875
1759870569031,966040421,6042,13,-0.180908203125,-1.02618408203125,0.02459716796875
1759870569031,966040421,6042,14,-0.178466796875,-1.02862548828125,0.01971435546875
1759870569031,966040421,6042,15,-0.1796875,-1.02716064453125,0.01531982421875
1759870569031,966040421,6042,16,-0.177001953125,-1.02813720703125,0.01678466796875
1759870569031,966040421,6042,17,-0.17529296875,-1.02545166015625,0.01605224609375
1759870569031,966040421,6042,18,-0.18505859375,-1.02593994140625,0.01361083984375
1759870569031,966040421,6042,19,-0.178466796875,-1.03228759765625,0.00897216796875
1759870569031,966040421,6042,20,-0.179443359375,-1.02618408203125,0.00823974609375
1759870569031,966040421,6042,21,-0.180419921875,-1.02764892578125,0.00823974609375
1759870569031,966040421,6042,22,-0.181884765625,-1.02398681640625,0.00848388671875
1759870569031,966040421,6042,23,-0.17822265625,-1.02520751953125,0.00457763671875
1759870569031,966040421,6042,24,-0.1767578125,-1.02716064453125,0.00262451171875
1759870569031,966040421,6042,25,-0.178955078125,-1.02789306640625,-6.103515625e-05
1759870569031,966040421,6042,26,-0.177734375,-1.02276611328125,0.00067138671875
1759870569031,966040421,6042,27,-0.174072265625,-1.02618408203125,-0.00152587890625
1759870569031,966040421,6042,28,-0.177734375,-1.03009033203125,-0.00128173828125
1759870569031,966040421,6042,29,-0.17724609375,-1.02789306640625,-0.00103759765625
1759870569031,966040421,6042,30,-0.18115234375,-1.02911376953125,0.00018310546875
1759870569031,966040421,6042,31,-0.178466796875,-1.02740478515625,-6.103515625e-05
1759870571734,966042952,6043,0,-0.176025390625,-1.02886962890625,0.00018310546875
1759870571734,966042952,6043,1,-0.177734375,-1.02886962890625,0.00213623046875
1759870571734,966042952,6043,2,-0.175537109375,-1.02667236328125,-6.103515625e-05
1759870571734,966042952,6043,3,-0.17236328125,-1.02862548828125,0.00067138671875
1759870571734,966042952,6043,4,-0.17529296875,-1.02691650390625,0.00115966796875
1759870571734,966042952,6043,5,-0.1748046875,-1.02691650390625,0.00018310546875
1759870571734,966042952,6043,6,-0.170166015625,-1.03009033203125,0.00213623046875
1759870571734,966042952,6043,7,-0.171630859375,-1.02935791015625,0.00531005859375
1759870571734,966042952,6043,8,-0.169677734375,-1.02642822265625,0.00848388671875
1759870571734,966042952,6043,9,-0.17529296875,-1.02862548828125,0.00604248046875
1759870571734,966042952,6043,10,-0.171630859375,-1.02911376953125,0.00799560546875
1759870571734,966042952,6043,11,-0.174072265625,-1.02691650390625,0.00555419921875
1759870571734,966042952,6043,12,-0.171875,-1.02642822265625,0.00408935546875
1759870571734,966042952,6043,13,-0.176025390625,-1.02691650390625,0.00726318359375
1759870571734,966042952,6043,14,-0.178466796875,-1.03033447265625,0.01385498046875
1759870571734,966042952,6043,15,-0.177490234375,-1.02886962890625,0.01043701171875
1759870571734,966042952,6043,16,-0.17236328125,-1.02789306640625,0.00579833984375
1759870571734,966042952,6043,17,-0.17529296875,-1.02960205078125,0.00042724609375
1759870571734,966042952,6043,18,-0.17041015625,-1.02838134765625,0.00555419921875
1759870571734,966042952,6043,19,-0.173583984375,-1.02813720703125,0.00213623046875
1759870571734,966042952,6043,20,-0.172607421875,-1.02911376953125,-6.103515625e-05
1759870571734,966042952,6043,21,-0.175048828125,-1.02716064453125,-6.103515625e-05
1759870571734,966042952,6043,22,-0.1748046875,-1.02764892578125,0.00579833984375
1759870571734,966042952,6043,23,-0.174072265625,-1.02862548828125,0.00433349609375
1759870571734,966042952,6043,24,-0.1728515625,-1.02618408203125,0.00115966796875
1759870571734,966042952,6043,25,-0.173095703125,-1.02862548828125,0.00262451171875
1759870571734,966042952,6043,26,-0.17529296875,-1.03033447265625,0.00408935546875
1759870571734,966042952,6043,27,-0.177001953125,-1.02838134765625,0.00482177734375
1759870571734,966042952,6043,28,-0.175048828125,-1.02886962890625,0.00531005859375
1759870571734,966042952,6043,29,-0.177734375,-1.02789306640625,0.00579833984375
1759870571734,966042952,6043,30,-0.17626953125,-1.02545166015625,0.01263427734375
1759870571734,966042952,6043,31,-0.1728515625,-1.02764892578125,0.01165771484375
1759870574073,966045489,6044,0,-0.180908203125,-1.03106689453125,0.00677490234375
1759870574073,966045489,6044,1,-0.176025390625,-1.02667236328125,0.00970458984375
1759870574073,966045489,6044,2,-0.17529296875,-1.02618408203125,0.00799560546875
1759870574073,966045489,6044,3,-0.177490234375,-1.02691650390625,0.00482177734375
1759870574073,966045489,6044,4,-0.17822265625,-1.02838134765625,0.00262451171875
1759870574073,966045489,6044,5,-0.177490234375,-1.02886962890625,0.00433349609375
1759870574073,966045489,6044,6,-0.17919921875,-1.02838134765625,0.00091552734375
1759870574073,966045489,6044,7,-0.17431640625,-1.02642822265625,-6.103515625e-05
1759870574073,966045489,6044,8,-0.177734375,-1.02667236328125,-0.00079345703125
1759870574073,966045489,6044,9,-0.176513671875,-1.02838134765625,-6.103515625e-05
1759870574073,966045489,6044,10,-0.177490234375,-1.02813720703125,-0.00152587890625
1759870574073,966045489,6044,11,-0.173583984375,-1.02911376953125,-0.00103759765625
1759870574073,966045489,6044,12,-0.175537109375,-1.02813720703125,0.00115966796875
1759870574073,966045489,6044,13,-0.17578125,-1.02813720703125,-0.00347900390625
1759870574073,966045489,6044,14,-0.177490234375,-1.02642822265625,-0.00201416015625
1759870574073,966045489,6044,15,-0.176513671875,-1.02813720703125,-0.00177001953125
1759870574073,966045489,6044,16,-0.17919921875,-1.02569580078125,0.00213623046875
1759870574073,966045489,6044,17,-0.171630859375,-1.03155517578125,-0.00201416015625
1759870574073,966045489,6044,18,-0.175048828125,-1.02593994140625,0.00335693359375
1759870574073,966045489,6044,19,-0.175537109375,-1.02740478515625,0.00238037109375
1759870574073,966045489,6044,20,-0.174072265625,-1.02862548828125,0.00091552734375
1759870574073,966045489,6044,21,-0.171875,-1.02667236328125,0.00555419921875
1759870574073,966045489,6044,22,-0.174072265625,-1.02764892578125,0.00677490234375
1759870574073,966045489,6044,23,-0.1748046875,-1.02520751953125,0.00604248046875
1759870574073,966045489,6044,24,-0.176025390625,-1.02740478515625,0.01165771484375
1759870574073,966045489,6044,25,-0.1728515625,-1.02911376953125,0.01629638671875
1759870574073,966045489,6044,26,-0.179931640625,-1.02667236328125,0.01531982421875
1759870574073,966045489,6044,27,-0.177734375,-1.02716064453125,0.01531982421875
1759870574073,966045489,6044,28,-0.177978515625,-1.02593994140625,0.01702880859375
1759870574073,966045489,6044,29,-0.17822265625,-1.02935791015625,0.01824951171875
1759870574073,966045489,6044,30,-0.175537109375,-1.02886962890625,0.01824951171875
1759870574073,966045489,6044,31,-0.1826171875,-1.02764892578125,0.01580810546875
1759870576595,966048026,6045,0,-0.181396484375,-1.02862548828125,0.01922607421875
1759870576595,966048026,6045,1,-0.177734375,-1.02716064453125,0.01654052734375
1759870576595,966048026,6045,2,-0.1787109375,-1.02789306640625,0.01702880859375
1759870576595,966048026,6045,3,-0.179931640625,-1.02642822265625,0.01556396484375
1759870576595,966048026,6045,4,-0.17724609375,-1.02740478515625,0.02093505859375
1759870576595,966048026,6045,5,-0.17919921875,-1.02740478515625,0.01776123046875
1759870576595,966048026,6045,6,-0.177734375,-1.02593994140625,0.01971435546875
1759870576595,966048026,6045,7,-0.179443359375,-1.02838134765625,0.01678466796875
1759870576595,966048026,6045,8,-0.17529296875,-1.02960205078125,0.01776123046875
1759870576595,966048026,6045,9,-0.175048828125,-1.02838134765625,0.01678466796875
1759870576595,966048026,6045,10,-0.180419921875,-1.02789306640625,0.01605224609375
1759870576595,966048026,6045,11,-0.17626953125,-1.02862548828125,0.01605224609375
1759870576595,966048026,6045,12,-0.177734375,-1.02716064453125,0.01531982421875
1759870576595,966048026,6045,13,-0.178955078125,-1.02813720703125,0.01556396484375
1759870576595,966048026,6045,14,-0.173583984375,-1.02545166015625,0.00799560546875
1759870576595,966048026,6045,15,-0.1787109375,-1.02569580078125,0.01043701171875
1759870576595,966048026,6045,16,-0.177490234375,-1.03179931640625,0.00921630859375
1759870576595,966048026,6045,17,-0.177734375,-1.02667236328125,0.00872802734375
1759870576595,966048026,6045,18,-0.181640625,-1.02691650390625,0.00604248046875
1759870576595,966048026,6045,19,-0.1806640625,-1.02545166015625,0.00238037109375
1759870576595,966048026,6045,20,-0.177490234375,-1.02716064453125,0.00091552734375
1759870576595,966048026,6045,21,-0.18017578125,-1.02593994140625,0.00262451171875
1759870576595,966048026,6045,22,-0.1796875,-1.02960205078125,0.00018310546875
1759870576595,966048026,6045,23,-0.177978515625,-1.02569580078125,-0.00274658203125
1759870576595,966048026,6045,24,-0.17578125,-1.02545166015625,-0.00250244140625
1759870576595,966048026,6045,25,-0.177978515625,-1.02618408203125,-0.00225830078125
1759870576595,966048026,6045,26,-0.177734375,-1.02789306640625,-0.00714111328125
1759870576595,966048026,6045,27,-0.17724609375,-1.02716064453125,-0.00445556640625
1759870576595,966048026,6045,28,-0.180419921875,-1.02789306640625,-0.00274658203125
1759870576595,966048026,6045,29,-0.18017578125,-1.02642822265625,-0.00421142578125
1759870576595,966048026,6045,30,-0.180908203125,-1.02618408203125,-0.00347900390625
1759870576595,966048026,6045,31,-0.1767578125,-1.02789306640625,-0.00201416015625
1759870579114,966050563,6046,0,-0.1806640625,-1.02740478515625,-0.00079345703125
1759870579114,966050563,6046,1,-0.17822265625,-1.02545166015625,0.00189208984375
1759870579114,966050563,6046,2,-0.183837890625,-1.02691650390625,0.00360107421875
1759870579114,966050563,6046,3,-0.181884765625,-1.02496337890625,0.00115966796875
1759870579114,966050563,6046,4,-0.179931640625,-1.02813720703125,0.00482177734375
1759870579114,966050563,6046,5,-0.183349609375,-1.02716064453125,0.00823974609375
1759870579114,966050563,6046,6,-0.181396484375,-1.02764892578125,0.01556396484375
1759870579114,966050563,6046,7,-0.17822265625,-1.02740478515625,0.01409912109375
1759870579114,966050563,6046,8,-0.18017578125,-1.02691650390625,0.01556396484375
1759870579114,966050563,6046,9,-0.179931640625,-1.02838134765625,0.01483154296875
1759870579114,966050563,6046,10,-0.181640625,-1.02569580078125,0.01629638671875
1759870579114,966050563,6046,11,-0.18408203125,-1.02398681640625,0.01922607421875
1759870579114,966050563,6046,12,-0.18359375,-1.02227783203125,0.01922607421875
1759870579114,966050563,6046,13,-0.1845703125,-1.02764892578125,0.01776123046875
1759870579114,966050563,6046,14,-0.18017578125,-1.02496337890625,0.01995849609375
1759870579114,966050563,6046,15,-0.181396484375,-1.02447509765625,0.01824951171875
1759870579114,966050563,6046,16,-0.181396484375,-1.02935791015625,0.02093505859375
1759870579114,966050563,6046,17,-0.181884765625,-1.02642822265625,0.02191162109375
1759870579114,966050563,6046,18,-0.180908203125,-1.02593994140625,0.02459716796875
1759870579114,966050563,6046,19,-0.180419921875,-1.02691650390625,0.02337646484375
1759870579114,966050563,6046,20,-0.179443359375,-1.02764892578125,0.02166748046875
1759870579114,966050563,6046,21,-0.182861328125,-1.02642822265625,0.02166748046875
1759870579114,966050563,6046,22,-0.182373046875,-1.02789306640625,0.01971435546875
1759870579114,966050563,6046,23,-0.17919921875,-1.02325439453125,0.02215576171875
1759870579114,966050563,6046,24,-0.180908203125,-1.02447509765625,0.02215576171875
1759870579114,966050563,6046,25,-0.180419921875,-1.02642822265625,0.01776123046875
1759870579114,966050563,6046,26,-0.178466796875,-1.02447509765625,0.01922607421875
1759870579114,966050563,6046,27,-0.18017578125,-1.02667236328125,0.01898193359375
1759870579114,966050563,6046,28,-0.17724609375,-1.02593994140625,0.01971435546875
1759870579114,966050563,6046,29,-0.181640625,-1.02569580078125,0.01824951171875
1759870579114,966050563,6046,30,-0.17626953125,-1.02935791015625,0.01654052734375
1759870579114,966050563,6046,31,-0.179931640625,-1.02593994140625,0.01190185546875
1759870581631,966053100,6047,0,-0.18212890625,-1.02520751953125,0.01580810546875
1759870581631,966053100,6047,1,-0.178955078125,-1.02520751953125,0.01239013671875
1759870581631,966053100,6047,2,-0.181396484375,-1.02667236328125,0.01312255859375
1759870581631,966053100,6047,3,-0.1806640625,-1.02935791015625,0.00823974609375
1759870581631,966053100,6047,4,-0.184814453125,-1.02593994140625,0.01092529296875
1759870581631,966053100,6047,5,-0.182373046875,-1.02764892578125,0.00604248046875
1759870581631,966053100,6047,6,-0.17724609375,-1.02886962890625,0.00482177734375
1759870581631,966053100,6047,7,-0.180419921875,-1.02349853515625,0.00115966796875
1759870581631,966053100,6047,8,-0.18115234375,-1.02618408203125,0.00262451171875
1759870581631,966053100,6047,9,-0.181884765625,-1.02496337890625,0.00408935546875
1759870581631,966053100,6047,10,-0.182373046875,-1.02862548828125,0.00213623046875
1759870581631,966053100,6047,11,-0.181884765625,-1.02471923828125,-0.00054931640625
1759870581631,966053100,6047,12,-0.183837890625,-1.02716064453125,0.00042724609375
1759870581631,966053100,6047,13,-0.184814453125,-1.02496337890625,0.00701904296875
1759870581631,966053100,6047,14,-0.182861328125,-1.02667236328125,0.00579833984375
1759870581631,966053100,6047,15,-0.18212890625,-1.02740478515625,0.00579833984375
1759870581631,966053100,6047,16,-0.17919921875,-1.02716064453125,0.00701904296875
1759870581631,966053100,6047,17,-0.1728515625,-1.02764892578125,0.00750732421875
1759870581631,966053100,6047,18,-0.173828125,-1.02813720703125,0.00579833984375
1759870581631,966053100,6047,19,-0.177001953125,-1.02667236328125,0.00946044921875
1759870581631,966053100,6047,20,-0.17578125,-1.02667236328125,0.01654052734375
1759870581631,966053100,6047,21,-0.181396484375,-1.02716064453125,0.01287841796875
1759870581631,966053100,6047,22,-0.18798828125,-1.02789306640625,0.02508544921875
1759870581631,966053100,6047,23,-0.18115234375,-1.02813720703125,0.01971435546875
1759870581631,966053100,6047,24,-0.178466796875,-1.02593994140625,0.02655029296875
1759870581631,966053100,6047,25,-0.178955078125,-1.02716064453125,0.02484130859375
1759870581631,966053100,6047,26,-0.17431640625,-1.02618408203125,0.02435302734375
1759870581631,966053100,6047,27,-0.173583984375,-1.02716064453125,0.02386474609375
1759870581631,966053100,6047,28,-0.174560546875,-1.03082275390625,0.02557373046875
1759870581631,966053100,6047,29,-0.17724609375,-1.02349853515625,0.02435302734375
1759870581631,966053100,6047,30,-0.18017578125,-1.02618408203125,0.02655029296875
1759870581631,966053100,6047,31,-0.184326171875,-1.02667236328125,0.02825927734375
1759870584327,966055637,6048,0,-0.181640625,-1.02764892578125,0.03289794921875
1759870584327,966055637,6048,1,-0.166748046875,-1.03228759765625,0.03704833984375
1759870584327,966055637,6048,2,-0.171630859375,-1.02203369140625,0.03607177734375
1759870584327,966055637,6048,3,-0.186279296875,-1.02496337890625,0.03485107421875
1759870584327,966055637,6048,4,-0.180908203125,-1.02325439453125,0.03021240234375
1759870584327,966055637,6048,5,-0.1787109375,-1.02252197265625,0.03216552734375
1759870584327,966055637,6048,6,-0.18017578125,-1.02520751953125,0.03314208984375
1759870584327,966055637,6048,7,-0.18408203125,-1.02545166015625,0.03070068359375
1759870584327,966055637,6048,8,-0.182373046875,-1.02764892578125,0.03118896484375
1759870584327,966055637,6048,9,-0.18017578125,-1.02642822265625,0.02239990234375
1759870584327,966055637,6048,10,-0.178955078125,-1.02960205078125,0.02264404296875
1759870584327,966055637,6048,11,-0.17578125,-1.02691650390625,0.02337646484375
1759870584327,966055637,6048,12,-0.17333984375,-1.02764892578125,0.02020263671875
1759870584327,966055637,6048,13,-0.17431640625,-1.02911376953125,0.01507568359375
1759870584327,966055637,6048,14,-0.1708984375,-1.02960205078125,0.02044677734375
1759870584327,966055637,6048,15,-0.181884765625,-1.02569580078125,0.01800537109375
1759870584327,966055637,6048,16,-0.180419921875,-1.02520751953125,0.00994873046875
1759870584327,966055637,6048,17,-0.180419921875,-1.02423095703125,0.01043701171875
1759870584327,966055637,6048,18,-0.18701171875,-1.02471923828125,0.01361083984375
1759870584327,966055637,6048,19,-0.189208984375,-1.02593994140625,0.01458740234375
1759870584327,966055637,6048,20,-0.19287109375,-1.02398681640625,0.01605224609375
1759870584327,966055637,6048,21,-0.1982421875,-1.02471923828125,0.01824951171875
1759870584327,966055637,6048,22,-0.189697265625,-1.02471923828125,0.01507568359375
1759870584327,966055637,6048,23,-0.189208984375,-1.02789306640625,0.01678466796875
1759870584327,966055637,6048,24,-0.185791015625,-1.02593994140625,0.01800537109375
1759870584327,966055637,6048,25,-0.189208984375,-1.02764892578125,0.01483154296875
1759870584327,966055637,6048,26,-0.18603515625,-1.02569580078125,0.01507568359375
1759870584327,966055637,6048,27,-0.18408203125,-1.02618408203125,0.01873779296875
1759870584327,966055637,6048,28,-0.189453125,-1.02374267578125,0.02191162109375
1759870584327,966055637,6048,29,-0.19140625,-1.02520751953125,0.02142333984375
1759870584327,966055637,6048,30,-0.19580078125,-1.02423095703125,0.02386474609375
1759870584327,966055637,6048,31,-0.19580078125,-1.02447509765625,0.02606201171875
1759870586854,966058174,6049,0,-0.195068359375,-1.02325439453125,0.02728271484375
1759870586854,966058174,6049,1,-0.1953125,-1.02447509765625,0.02093505859375
1759870586854,966058174,6049,2,-0.189697265625,-1.02398681640625,0.02484130859375
1759870586854,966058174,6049,3,-0.19287109375,-1.02276611328125,0.02581787109375
1759870586854,966058174,6049,4,-0.193115234375,-1.02642822265625,0.02606201171875
1759870586854,966058174,6049,5,-0.189697265625,-1.02520751953125,0.02337646484375
1759870586854,966058174,6049,6,-0.18994140625,-1.02716064453125,0.02655029296875
1759870586854,966058174,6049,7,-0.193603515625,-1.02618408203125,0.02752685546875
1759870586854,966058174,6049,8,-0.192138671875,-1.02545166015625,0.02899169921875
1759870586854,966058174,6049,9,-0.1904296875,-1.02447509765625,0.02801513671875
1759870586854,966058174,6049,10,-0.19091796875,-1.02935791015625,0.02679443359375
1759870586854,966058174,6049,11,-0.192138671875,-1.02398681640625,0.02679443359375
1759870586854,966058174,6049,12,-0.190673828125,-1.02642822265625,0.02484130859375
1759870586854,966058174,6049,13,-0.194091796875,-1.02325439453125,0.02655029296875
1759870586854,966058174,6049,14,-0.1904296875,-1.02496337890625,0.02410888671875
1759870586854,966058174,6049,15,-0.187255859375,-1.02447509765625,0.02410888671875
1759870586854,966058174,6049,16,-0.1904296875,-1.02423095703125,0.02020263671875
1759870586854,966058174,6049,17,-0.1884765625,-1.02252197265625,0.01849365234375
1759870586854,966058174,6049,18,-0.1875,-1.02276611328125,0.01971435546875
1759870586854,966058174,6049,19,-0.192626953125,-1.02349853515625,0.01458740234375
1759870586854,966058174,6049,20,-0.190185546875,-1.02593994140625,0.01165771484375
1759870586854,966058174,6049,21,-0.189697265625,-1.02349853515625,0.01727294921875
1759870586854,966058174,6049,22,-0.189453125,-1.02447509765625,0.01043701171875
1759870586854,966058174,6049,23,-0.1875,-1.02642822265625,0.00726318359375
1759870586854,966058174,6049,24,-0.18701171875,-1.02593994140625,0.00921630859375
1759870586854,966058174,6049,25,-0.1884765625,-1.02545166015625,0.00946044921875
1759870586854,966058174,6049,26,-0.191162109375,-1.02325439453125,0.00677490234375
1759870586854,966058174,6049,27,-0.194580078125,-1.02203369140625,0.00433349609375
1759870586854,966058174,6049,28,-0.19873046875,-1.02545166015625,0.00262451171875
1759870586854,966058174,6049,29,-0.195068359375,-1.02838134765625,-0.00079345703125
1759870586854,966058174,6049,30,-0.19189453125,-1.02740478515625,0.00677490234375
1759870586854,966058174,6049,31,-0.197021484375,-1.02813720703125,0.00653076171875
1759870589380,966060711,6050,0,-0.189697265625,-1.02667236328125,0.00311279296875
1759870589380,966060711,6050,1,-0.182373046875,-1.02984619140625,0.01287841796875
1759870589380,966060711,6050,2,-0.193603515625,-1.02520751953125,0.01361083984375
1759870589380,966060711,6050,3,-0.19775390625,-1.02252197265625,0.01165771484375
1759870589380,966060711,6050,4,-0.200927734375,-1.02276611328125,0.02117919921875
1759870589380,966060711,6050,5,-0.204833984375,-1.01983642578125,0.02362060546875
1759870599455,966070859,6054,14,-0.20166015625,-1.02618408203125,-0.02325439453125
1759870599455,966070859,6054,15,-0.19384765625,-1.02911376953125,-0.02471923828125
1759870599455,966070859,6054,16,-0.197021484375,-1.02154541015625,-0.02276611328125
1759870599455,966070859,6054,17,-0.201171875,-1.02154541015625,-0.01373291015625
1759870599455,966070859,6054,18,-0.209716796875,-1.02789306640625,-0.00885009765625
1759870599455,966070859,6054,19,-0.223388671875,-1.02960205078125,-0.00030517578125
1759870599455,966070859,6054,20,-0.219482421875,-1.02252197265625,-6.103515625e-05
1759870599455,966070859,6054,21,-0.201416015625,-1.01690673828125,-0.01080322265625
1759870599455,966070859,6054,22,-0.201416015625,-1.02056884765625,-0.00640869140625
1759870599455,966070859,6054,23,-0.199462890625,-1.01910400390625,-0.00396728515625
1759870599455,966070859,6054,24,-0.201904296875,-1.02349853515625,0.00091552734375
1759870599455,966070859,6054,25,-0.203125,-1.02838134765625,0.00213623046875
1759870599455,966070859,6054,26,-0.202392578125,-1.02618408203125,0.00115966796875
1759870599455,966070859,6054,27,-0.20263671875,-1.02471923828125,0.00067138671875
1759870599455,966070859,6054,28,-0.2021484375,-1.02545166015625,-0.00323486328125
1759870599455,966070859,6054,29,-0.21044921875,-1.02496337890625,-0.00201416015625
