receivedPhoneTimestamp,respeckTimestamp,packetSeqNum,sampleSeqNum,accelX,accelY,accelZ
1759749036198,936334555,29984,0,-0.06201171875,-1.00201416015625,-0.02056884765625
1759749036198,936334555,29984,1,-0.0595703125,-1.00347900390625,-0.02349853515625
1759749036198,936334555,29984,2,-0.059814453125,-1.00201416015625,-0.02423095703125
1759749036198,936334555,29984,3,-0.0625,-1.00299072265625,-0.02276611328125
1759749036198,936334555,29984,4,-0.06005859375,-1.00421142578125,-0.02935791015625
1759749036198,936334555,29984,5,-0.061279296875,-1.00177001953125,-0.02911376953125
1759749036198,936334555,29984,6,-0.06201171875,-0.99713134765625,-0.02618408203125
1759749036198,936334555,29984,7,-0.0595703125,-1.00128173828125,-0.02740478515625
1759749036198,936334555,29984,8,-0.0615234375,-1.00421142578125,-0.03033447265625
1759749036198,936334555,29984,9,-0.06103515625,-1.00250244140625,-0.02813720703125
1759749036198,936334555,29984,10,-0.064208984375,-0.99932861328125,-0.03009033203125
1759749036198,936334555,29984,11,-0.063232421875,-1.00128173828125,-0.02862548828125
1759749036198,936334555,29984,12,-0.06298828125,-1.00006103515625,-0.02740478515625
1759749036198,936334555,29984,13,-0.0634765625,-1.00299072265625,-0.02618408203125
1759749036198,936334555,29984,14,-0.062255859375,-1.00152587890625,-0.02740478515625
1759749036198,936334555,29984,15,-0.069091796875,-1.00128173828125,-0.02227783203125
1759749036198,936334555,29984,16,-0.068115234375,-1.00152587890625,-0.02569580078125
1759749036198,936334555,29984,17,-0.0673828125,-1.00323486328125,-0.02252197265625
1759749036198,936334555,29984,18,-0.0654296875,-1.00103759765625,-0.02301025390625
1759749036198,936334555,29984,19,-0.06640625,-1.00079345703125,-0.02740478515625
1759749036198,936334555,29984,20,-0.06787109375,-1.00225830078125,-0.02325439453125
1759749036198,936334555,29984,21,-0.066650390625,-1.00006103515625,-0.01959228515625
1759749036198,936334555,29984,22,-0.064208984375,-1.00250244140625,-0.02325439453125
1759749036198,936334555,29984,23,-0.063720703125,-1.00103759765625,-0.02227783203125
1759749036198,936334555,29984,24,-0.06640625,-0.99932861328125,-0.02008056640625
1759749036198,936334555,29984,25,-0.067626953125,-1.00274658203125,-0.01959228515625
1759749036198,936334555,29984,26,-0.065673828125,-1.00469970703125,-0.02056884765625
1759749036198,936334555,29984,27,-0.067626953125,-1.00128173828125,-0.02081298828125
1759749036198,936334555,29984,28,-0.068603515625,-1.00396728515625,-0.02569580078125
1759749036198,936334555,29984,29,-0.0693359375,-1.00079345703125,-0.02105712890625
1759749036198,936334555,29984,30,-0.0654296875,-1.00006103515625,-0.01812744140625
1759749036198,936334555,29984,31,-0.067626953125,-1.00250244140625,-0.02227783203125
1759749038345,936337098,29985,0,-0.066162109375,-1.00616455078125,-0.02398681640625
1759749038345,936337098,29985,1,-0.071044921875,-0.99835205078125,-0.02203369140625
1759749038345,936337098,29985,2,-0.067626953125,-0.99908447265625,-0.01959228515625
1759749038345,936337098,29985,3,-0.0693359375,-1.00152587890625,-0.02227783203125
1759749038345,936337098,29985,4,-0.067626953125,-1.00152587890625,-0.02398681640625
1759749038345,936337098,29985,5,-0.06884765625,-1.00250244140625,-0.02545166015625
1759749038345,936337098,29985,6,-0.0654296875,-1.00152587890625,-0.02740478515625
1759749038345,936337098,29985,7,-0.06640625,-1.00323486328125,-0.03155517578125
1759749038345,936337098,29985,8,-0.067626953125,-1.00299072265625,-0.03326416015625
1759749038345,936337098,29985,9,-0.062744140625,-1.00225830078125,-0.03106689453125
1759749038345,936337098,29985,10,-0.063720703125,-0.99884033203125,-0.03399658203125
1759749038345,936337098,29985,11,-0.061279296875,-1.00225830078125,-0.03302001953125
1759749038345,936337098,29985,12,-0.060791015625,-1.00372314453125,-0.03106689453125
1759749038345,936337098,29985,13,-0.05859375,-1.00054931640625,-0.03448486328125
1759749038345,936337098,29985,14,-0.056396484375,-1.00177001953125,-0.03302001953125
1759749038345,936337098,29985,15,-0.056640625,-1.00201416015625,-0.03302001953125
1759749038345,936337098,29985,16,-0.06005859375,-1.00030517578125,-0.02935791015625
1759749038345,936337098,29985,17,-0.058349609375,-1.00299072265625,-0.02520751953125
1759749038345,936337098,29985,18,-0.05908203125,-1.00445556640625,-0.02325439453125
1759749038345,936337098,29985,19,-0.06298828125,-1.00225830078125,-0.02178955078125
1759749038345,936337098,29985,20,-0.05908203125,-1.00201416015625,-0.02130126953125
1759749038345,936337098,29985,21,-0.063232421875,-0.99908447265625,-0.01641845703125
1759749038345,936337098,29985,22,-0.063232421875,-1.00152587890625,-0.01641845703125
1759749038345,936337098,29985,23,-0.06640625,-1.00616455078125,-0.01617431640625
1759749038345,936337098,29985,24,-0.0634765625,-1.00054931640625,-0.01593017578125
1759749038345,936337098,29985,25,-0.0625,-0.99859619140625,-0.01055908203125
1759749038345,936337098,29985,26,-0.06396484375,-0.99957275390625,-0.01324462890625
1759749038345,936337098,29985,27,-0.063232421875,-1.00665283203125,-0.01226806640625
1759749038345,936337098,29985,28,-0.067138671875,-1.00006103515625,-0.00860595703125
1759749038345,936337098,29985,29,-0.06640625,-1.00201416015625,-0.00396728515625
1759749038345,936337098,29985,30,-0.0654296875,-1.00030517578125,-0.00836181640625
1759749038345,936337098,29985,31,-0.067138671875,-1.00347900390625,-0.00909423828125
1759749040880,936339641,29986,0,-0.0693359375,-1.00201416015625,-0.01031494140625
1759749040880,936339641,29986,1,-0.064208984375,-1.00299072265625,-0.01300048828125
1759749040880,936339641,29986,2,-0.067138671875,-1.00445556640625,-0.01177978515625
1759749040880,936339641,29986,3,-0.067626953125,-1.00323486328125,-0.00982666015625
1759749040880,936339641,29986,4,-0.0673828125,-1.00421142578125,-0.00933837890625
1759749040880,936339641,29986,5,-0.0654296875,-1.00201416015625,-0.01275634765625
1759749040880,936339641,29986,6,-0.06884765625,-1.00103759765625,-0.01422119140625
1759749040880,936339641,29986,7,-0.0693359375,-1.00543212890625,-0.00982666015625
1759749040880,936339641,29986,8,-0.066650390625,-1.00469970703125,-0.01226806640625
1759749040880,936339641,29986,9,-0.065673828125,-1.00274658203125,-0.01251220703125
1759749040880,936339641,29986,10,-0.0654296875,-1.00152587890625,-0.01715087890625
1759749040880,936339641,29986,11,-0.063720703125,-1.00225830078125,-0.01885986328125
1759749040880,936339641,29986,12,-0.06396484375,-1.00128173828125,-0.02227783203125
1759749040880,936339641,29986,13,-0.0634765625,-0.99981689453125,-0.02667236328125
1759749040880,936339641,29986,14,-0.06005859375,-1.00177001953125,-0.02984619140625
1759749040880,936339641,29986,15,-0.06005859375,-1.00054931640625,-0.03155517578125
1759749040880,936339641,29986,16,-0.05859375,-1.00201416015625,-0.03668212890625
1759749040880,936339641,29986,17,-0.0576171875,-1.00518798828125,-0.03619384765625
1759749040880,936339641,29986,18,-0.061279296875,-1.00225830078125,-0.03814697265625
1759749040880,936339641,29986,19,-0.059814453125,-1.00299072265625,-0.03887939453125
1759749040880,936339641,29986,20,-0.060302734375,-1.00006103515625,-0.03790283203125
1759749040880,936339641,29986,21,-0.05810546875,-1.00225830078125,-0.03643798828125
1759749040880,936339641,29986,22,-0.0615234375,-1.00421142578125,-0.04058837890625
1759749040880,936339641,29986,23,-0.06201171875,-1.00347900390625,-0.03985595703125
1759749040880,936339641,29986,24,-0.0634765625,-1.00225830078125,-0.03131103515625
1759749040880,936339641,29986,25,-0.05908203125,-1.00445556640625,-0.03033447265625
1759749040880,936339641,29986,26,-0.062255859375,-1.00201416015625,-0.02984619140625
1759749040880,936339641,29986,27,-0.06591796875,-0.99957275390625,-0.02862548828125
1759749040880,936339641,29986,28,-0.0634765625,-1.00079345703125,-0.02764892578125
1759749040880,936339641,29986,29,-0.066650390625,-1.00323486328125,-0.02520751953125
1759749040880,936339641,29986,30,-0.0673828125,-0.99908447265625,-0.01959228515625
1759749040880,936339641,29986,31,-0.0703125,-1.00201416015625,-0.02325439453125
1759749043609,936342184,29987,0,-0.0673828125,-1.00543212890625,-0.01739501953125
1759749043609,936342184,29987,1,-0.07080078125,-0.99957275390625,-0.01422119140625
1759749043609,936342184,29987,2,-0.0712890625,-0.99957275390625,-0.01129150390625
1759749043609,936342184,29987,3,-0.0732421875,-0.99981689453125,-0.01446533203125
1759749043609,936342184,29987,4,-0.072998046875,-1.00201416015625,-0.01519775390625
1759749043609,936342184,29987,5,-0.072509765625,-1.00030517578125,-0.01446533203125
1759749043609,936342184,29987,6,-0.072265625,-1.00250244140625,-0.01129150390625
1759749043609,936342184,29987,7,-0.074462890625,-0.99932861328125,-0.00909423828125
1759749043609,936342184,29987,8,-0.07666015625,-1.00152587890625,-0.01153564453125
1759749043609,936342184,29987,9,-0.0732421875,-1.00152587890625,-0.00714111328125
1759749043609,936342184,29987,10,-0.076904296875,-0.99981689453125,-0.00909423828125
1759749043609,936342184,29987,11,-0.072998046875,-1.00347900390625,-0.00640869140625
1759749043609,936342184,29987,12,-0.078125,-1.00152587890625,-0.00592041015625
1759749043609,936342184,29987,13,-0.07373046875,-1.00250244140625,-0.01300048828125
1759749043609,936342184,29987,14,-0.07275390625,-1.00274658203125,-0.01788330078125
1759749043609,936342184,29987,15,-0.0693359375,-0.99981689453125,-0.02008056640625
1759749043609,936342184,29987,16,-0.06982421875,-1.00030517578125,-0.02301025390625
1759749043609,936342184,29987,17,-0.07421875,-1.00103759765625,-0.02838134765625
1759749043609,936342184,29987,18,-0.068603515625,-1.00250244140625,-0.02789306640625
1759749043609,936342184,29987,19,-0.068359375,-1.00079345703125,-0.02862548828125
1759749043609,936342184,29987,20,-0.064453125,-1.00054931640625,-0.02960205078125
1759749043609,936342184,29987,21,-0.068603515625,-1.00396728515625,-0.02911376953125
1759749043609,936342184,29987,22,-0.066650390625,-0.99957275390625,-0.03570556640625
1759749043609,936342184,29987,23,-0.06787109375,-1.00225830078125,-0.03131103515625
1759749043609,936342184,29987,24,-0.06494140625,-1.00323486328125,-0.03106689453125
1759749043609,936342184,29987,25,-0.066162109375,-1.00030517578125,-0.02716064453125
1759749043609,936342184,29987,26,-0.065673828125,-1.00372314453125,-0.02838134765625
1759749043609,936342184,29987,27,-0.06591796875,-1.00030517578125,-0.02716064453125
1759749043609,936342184,29987,28,-0.069091796875,-1.00177001953125,-0.02325439453125
1759749043609,936342184,29987,29,-0.068603515625,-1.00274658203125,-0.02105712890625
1759749043609,936342184,29987,30,-0.068603515625,-1.00372314453125,-0.02105712890625
1759749043609,936342184,29987,31,-0.068603515625,-1.00201416015625,-0.01715087890625
1759749046145,936344727,29988,0,-0.068115234375,-1.00152587890625,-0.01763916015625
1759749046145,936344727,29988,1,-0.07177734375,-1.00152587890625,-0.01446533203125
1759749046145,936344727,29988,2,-0.07177734375,-1.00274658203125,-0.01129150390625
1759749046145,936344727,29988,3,-0.070068359375,-1.00225830078125,-0.01080322265625
1759749046145,936344727,29988,4,-0.07177734375,-1.00152587890625,-0.00714111328125
1759749046145,936344727,29988,5,-0.070556640625,-1.00030517578125,-0.00396728515625
1759749046145,936344727,29988,6,-0.06982421875,-1.00103759765625,-0.00543212890625
1759749046145,936344727,29988,7,-0.0712890625,-1.00201416015625,-0.00885009765625
1759749046145,936344727,29988,8,-0.068359375,-1.00250244140625,-0.00762939453125
1759749046145,936344727,29988,9,-0.070556640625,-1.00250244140625,-0.00762939453125
1759749046145,936344727,29988,10,-0.071044921875,-1.00152587890625,-0.00396728515625
1759749046145,936344727,29988,11,-0.072509765625,-1.00054931640625,-0.00201416015625
1759749046145,936344727,29988,12,-0.072265625,-1.00177001953125,-0.00567626953125
1759749046145,936344727,29988,13,-0.07080078125,-0.99859619140625,-0.00079345703125
1759749046145,936344727,29988,14,-0.07568359375,-1.00128173828125,0.00189208984375
1759749046145,936344727,29988,15,-0.069580078125,-1.00225830078125,-0.01007080078125
1759749046145,936344727,29988,16,-0.06884765625,-1.00689697265625,-0.01422119140625
1759749046145,936344727,29988,17,-0.068359375,-1.00323486328125,-0.02081298828125
1759749046145,936344727,29988,18,-0.0693359375,-1.00201416015625,-0.02374267578125
1759749046145,936344727,29988,19,-0.068359375,-1.00274658203125,-0.02545166015625
1759749046145,936344727,29988,20,-0.067138671875,-1.00494384765625,-0.02886962890625
1759749046145,936344727,29988,21,-0.068603515625,-1.00469970703125,-0.03057861328125
1759749046145,936344727,29988,22,-0.066162109375,-0.99908447265625,-0.03448486328125
1759749046145,936344727,29988,23,-0.065185546875,-1.00323486328125,-0.03179931640625
1759749046145,936344727,29988,24,-0.06494140625,-1.00396728515625,-0.03668212890625
1759749046145,936344727,29988,25,-0.064697265625,-1.00250244140625,-0.04156494140625
1759749046145,936344727,29988,26,-0.0634765625,-0.99884033203125,-0.04254150390625
1759749046145,936344727,29988,27,-0.06494140625,-1.00250244140625,-0.03985595703125
1759749046145,936344727,29988,28,-0.067626953125,-1.00201416015625,-0.03497314453125
1759749046145,936344727,29988,29,-0.0693359375,-1.00201416015625,-0.03375244140625
1759749046145,936344727,29988,30,-0.069091796875,-1.00714111328125,-0.03033447265625
1759749046145,936344727,29988,31,-0.072265625,-0.99957275390625,-0.02764892578125
1759749048873,936347270,29989,0,-0.070556640625,-1.00177001953125,-0.02838134765625
1759749048873,936347270,29989,1,-0.073974609375,-1.00592041015625,-0.02716064453125
1759749048873,936347270,29989,2,-0.075927734375,-1.00421142578125,-0.02325439453125
1759749048873,936347270,29989,3,-0.076171875,-1.00250244140625,-0.02056884765625
1759749048873,936347270,29989,4,-0.07666015625,-1.00274658203125,-0.02130126953125
1759749048873,936347270,29989,5,-0.076171875,-0.99810791015625,-0.01348876953125
1759749048873,936347270,29989,6,-0.07958984375,-1.00152587890625,-0.01641845703125
1759749048873,936347270,29989,7,-0.079345703125,-1.00372314453125,-0.01812744140625
1759749048873,936347270,29989,8,-0.083984375,-0.99713134765625,-0.01422119140625
1759749048873,936347270,29989,9,-0.082275390625,-1.00103759765625,-0.01739501953125
1759749048873,936347270,29989,10,-0.080078125,-1.00567626953125,-0.01788330078125
1759749048873,936347270,29989,11,-0.08203125,-1.00054931640625,-0.01544189453125
1759749048873,936347270,29989,12,-0.08203125,-0.99810791015625,-0.01568603515625
1759749048873,936347270,29989,13,-0.080322265625,-1.00323486328125,-0.01837158203125
1759749048873,936347270,29989,14,-0.0791015625,-1.00128173828125,-0.01348876953125
1759749048873,936347270,29989,15,-0.07763671875,-1.00152587890625,-0.01348876953125
1759749048873,936347270,29989,16,-0.07666015625,-0.99810791015625,-0.00958251953125
1759749048873,936347270,29989,17,-0.070068359375,-1.00152587890625,-0.01422119140625
1759749048873,936347270,29989,18,-0.069091796875,-1.00518798828125,-0.02301025390625
1759749048873,936347270,29989,19,-0.073974609375,-1.00323486328125,-0.02496337890625
1759749048873,936347270,29989,20,-0.071533203125,-1.00201416015625,-0.02593994140625
1759749048873,936347270,29989,21,-0.07275390625,-1.00201416015625,-0.03057861328125
1759749048873,936347270,29989,22,-0.06494140625,-1.00250244140625,-0.03302001953125
1759749048873,936347270,29989,23,-0.068359375,-1.00299072265625,-0.03399658203125
1759749048873,936347270,29989,24,-0.067626953125,-0.99981689453125,-0.03668212890625
1759749048873,936347270,29989,25,-0.069580078125,-1.00323486328125,-0.03619384765625
1759749048873,936347270,29989,26,-0.067138671875,-1.00225830078125,-0.04058837890625
1759749048873,936347270,29989,27,-0.06689453125,-1.00323486328125,-0.04473876953125
1759749048873,936347270,29989,28,-0.070068359375,-0.99932861328125,-0.03863525390625
1759749048873,936347270,29989,29,-0.068359375,-1.00299072265625,-0.03668212890625
1759749048873,936347270,29989,30,-0.069580078125,-1.00054931640625,-0.03497314453125
1759749048873,936347270,29989,31,-0.06884765625,-1.00299072265625,-0.03424072265625
1759749051214,936349813,29990,0,-0.070068359375,-1.00665283203125,-0.03009033203125
1759749051214,936349813,29990,1,-0.0673828125,-0.99908447265625,-0.03057861328125
1759749051214,936349813,29990,2,-0.0673828125,-1.00128173828125,-0.02227783203125
1759749051214,936349813,29990,3,-0.068603515625,-1.00372314453125,-0.02276611328125
1759749051214,936349813,29990,4,-0.069580078125,-0.99981689453125,-0.02227783203125
1759749051214,936349813,29990,5,-0.069580078125,-1.00347900390625,-0.01983642578125
1759749051214,936349813,29990,6,-0.0693359375,-1.00323486328125,-0.01788330078125
1759749051214,936349813,29990,7,-0.068359375,-1.00347900390625,-0.01397705078125
1759749051214,936349813,29990,8,-0.06689453125,-1.00347900390625,-0.01519775390625
1759749051214,936349813,29990,9,-0.06591796875,-1.00225830078125,-0.01495361328125
1759749051214,936349813,29990,10,-0.06689453125,-1.00250244140625,-0.01324462890625
1759749051214,936349813,29990,11,-0.0654296875,-1.00152587890625,-0.01251220703125
1759749051214,936349813,29990,12,-0.067626953125,-1.00250244140625,-0.01446533203125
1759749051214,936349813,29990,13,-0.066650390625,-1.00274658203125,-0.01275634765625
1759749051214,936349813,29990,14,-0.06494140625,-1.00079345703125,-0.01397705078125
1759749051214,936349813,29990,15,-0.06689453125,-1.00177001953125,-0.01348876953125
1759749051214,936349813,29990,16,-0.065185546875,-1.00079345703125,-0.01495361328125
1759749051214,936349813,29990,17,-0.06494140625,-1.00616455078125,-0.00982666015625
1759749051214,936349813,29990,18,-0.068603515625,-0.99908447265625,-0.01373291015625
1759749051214,936349813,29990,19,-0.0615234375,-1.00054931640625,-0.01519775390625
1759749051214,936349813,29990,20,-0.0654296875,-1.00421142578125,-0.01470947265625
1759749051214,936349813,29990,21,-0.065185546875,-1.00177001953125,-0.01617431640625
1759749051214,936349813,29990,22,-0.068115234375,-1.00299072265625,-0.01348876953125
1759749051214,936349813,29990,23,-0.069091796875,-1.00445556640625,-0.01422119140625
1759749051214,936349813,29990,24,-0.068359375,-1.00396728515625,-0.01812744140625
1759749051214,936349813,29990,25,-0.0654296875,-1.00225830078125,-0.01641845703125
1759749051214,936349813,29990,26,-0.069091796875,-1.00006103515625,-0.01934814453125
1759749051214,936349813,29990,27,-0.071044921875,-1.00274658203125,-0.01495361328125
1759749051214,936349813,29990,28,-0.069580078125,-1.00152587890625,-0.01739501953125
1759749051214,936349813,29990,29,-0.071533203125,-1.00616455078125,-0.01617431640625
1759749051214,936349813,29990,30,-0.069580078125,-1.00177001953125,-0.01470947265625
1759749051214,936349813,29990,31,-0.0712890625,-1.00225830078125,-0.01397705078125
1759749053749,936352356,29991,0,-0.072998046875,-0.99932861328125,-0.01031494140625
1759749053749,936352356,29991,1,-0.074951171875,-1.00396728515625,-0.01373291015625
1759749053749,936352356,29991,2,-0.0732421875,-1.00396728515625,-0.01348876953125
1759749053749,936352356,29991,3,-0.077392578125,-1.00054931640625,-0.01055908203125
1759749053749,936352356,29991,4,-0.075439453125,-1.00225830078125,-0.01348876953125
1759749053749,936352356,29991,5,-0.071533203125,-1.00616455078125,-0.01275634765625
1759749053749,936352356,29991,6,-0.0732421875,-1.00372314453125,-0.01641845703125
1759749053749,936352356,29991,7,-0.070068359375,-1.00128173828125,-0.01080322265625
1759749053749,936352356,29991,8,-0.071044921875,-0.99932861328125,-0.01422119140625
1759749053749,936352356,29991,9,-0.072021484375,-1.00543212890625,-0.01446533203125
1759749053749,936352356,29991,10,-0.0703125,-1.00225830078125,-0.01226806640625
1759749053749,936352356,29991,11,-0.07177734375,-0.99981689453125,-0.00811767578125
1759749053749,936352356,29991,12,-0.06884765625,-1.00250244140625,-0.01129150390625
1759749053749,936352356,29991,13,-0.0703125,-1.00518798828125,-0.01470947265625
1759749053749,936352356,29991,14,-0.07177734375,-1.00225830078125,-0.01495361328125
1759749053749,936352356,29991,15,-0.070068359375,-1.00177001953125,-0.01251220703125
1759749053749,936352356,29991,16,-0.06787109375,-1.00054931640625,-0.01446533203125
1759749053749,936352356,29991,17,-0.072998046875,-1.00469970703125,-0.01446533203125
1759749053749,936352356,29991,18,-0.071533203125,-1.00225830078125,-0.00909423828125
1759749053749,936352356,29991,19,-0.07275390625,-0.99884033203125,-0.01153564453125
1759749053749,936352356,29991,20,-0.071044921875,-1.00152587890625,-0.01202392578125
1759749053749,936352356,29991,21,-0.070068359375,-1.00225830078125,-0.01470947265625
1759749053749,936352356,29991,22,-0.07373046875,-1.00054931640625,-0.01519775390625
1759749053749,936352356,29991,23,-0.076904296875,-1.00128173828125,-0.01153564453125
1759749053749,936352356,29991,24,-0.0703125,-1.00079345703125,-0.01080322265625
1759749053749,936352356,29991,25,-0.07275390625,-1.00689697265625,-0.01397705078125
1759749053749,936352356,29991,26,-0.07080078125,-1.00152587890625,-0.01275634765625
1759749053749,936352356,29991,27,-0.072021484375,-0.99932861328125,-0.01348876953125
1759749053749,936352356,29991,28,-0.070556640625,-1.00299072265625,-0.01300048828125
1759749053749,936352356,29991,29,-0.07080078125,-1.00054931640625,-0.01519775390625
1759749053749,936352356,29991,30,-0.06884765625,-1.00299072265625,-0.01373291015625
1759749053749,936352356,29991,31,-0.0712890625,-0.99957275390625,-0.01495361328125
1759749056285,936354899,29992,0,-0.071533203125,-1.00274658203125,-0.00543212890625
1759749056285,936354899,29992,1,-0.074462890625,-1.00201416015625,-0.00274658203125
1759749056285,936354899,29992,2,-0.071044921875,-1.00225830078125,-0.01422119140625
1759749056285,936354899,29992,3,-0.0712890625,-1.00225830078125,-0.01104736328125
1759749056285,936354899,29992,4,-0.063232421875,-1.00299072265625,-0.01812744140625
1759749056285,936354899,29992,5,-0.066162109375,-0.99981689453125,-0.02325439453125
1759749056285,936354899,29992,6,-0.068115234375,-1.00299072265625,-0.02227783203125
1759749056285,936354899,29992,7,-0.06640625,-1.00396728515625,-0.02642822265625
1759749056285,936354899,29992,8,-0.0654296875,-1.00250244140625,-0.03082275390625
1759749056285,936354899,29992,9,-0.064453125,-1.00372314453125,-0.02496337890625
1759749056285,936354899,29992,10,-0.065185546875,-0.99688720703125,-0.02569580078125
1759749056285,936354899,29992,11,-0.06005859375,-1.00079345703125,-0.02789306640625
1759749056285,936354899,29992,12,-0.06298828125,-1.00421142578125,-0.02716064453125
1759749056285,936354899,29992,13,-0.0625,-1.00006103515625,-0.02667236328125
1759749056285,936354899,29992,14,-0.06494140625,-1.00201416015625,-0.02716064453125
1759749056285,936354899,29992,15,-0.06201171875,-1.00054931640625,-0.02398681640625
1759749056285,936354899,29992,16,-0.062744140625,-1.00347900390625,-0.02862548828125
1759749056285,936354899,29992,17,-0.0615234375,-1.00592041015625,-0.02203369140625
1759749056285,936354899,29992,18,-0.0654296875,-0.99835205078125,-0.01690673828125
1759749056285,936354899,29992,19,-0.06298828125,-1.00347900390625,-0.01641845703125
1759749056285,936354899,29992,20,-0.063232421875,-1.00225830078125,-0.01617431640625
1759749056285,936354899,29992,21,-0.06201171875,-0.99981689453125,-0.01568603515625
1759749056285,936354899,29992,22,-0.066162109375,-1.00250244140625,-0.01324462890625
1759749056285,936354899,29992,23,-0.064453125,-1.00103759765625,-0.00909423828125
1759749056285,936354899,29992,24,-0.06396484375,-1.00225830078125,-0.01226806640625
1759749056285,936354899,29992,25,-0.062744140625,-1.00225830078125,-0.00616455078125
1759749056285,936354899,29992,26,-0.06787109375,-1.00103759765625,-0.00469970703125
1759749056285,936354899,29992,27,-0.061279296875,-1.00201416015625,-0.00567626953125
1759749056285,936354899,29992,28,-0.063720703125,-1.00323486328125,-0.00738525390625
1759749056285,936354899,29992,29,-0.067626953125,-1.00054931640625,-0.00299072265625
1759749056285,936354899,29992,30,-0.0673828125,-1.00201416015625,-0.00250244140625
1759749056285,936354899,29992,31,-0.06494140625,-0.99908447265625,0.00140380859375
1759749058819,936357442,29993,0,-0.06884765625,-1.00494384765625,-0.00250244140625
1759749058819,936357442,29993,1,-0.07080078125,-1.00494384765625,0.00018310546875
1759749058819,936357442,29993,2,-0.070068359375,-0.99884033203125,-0.00054931640625
1759749058819,936357442,29993,3,-0.066162109375,-1.00323486328125,-0.01446533203125
1759749058819,936357442,29993,4,-0.0654296875,-1.00469970703125,-0.01568603515625
1759749058819,936357442,29993,5,-0.067138671875,-1.00079345703125,-0.01959228515625
1759749058819,936357442,29993,6,-0.064697265625,-1.00128173828125,-0.02325439453125
1759749058819,936357442,29993,7,-0.069580078125,-1.00225830078125,-0.02886962890625
1759749058819,936357442,29993,8,-0.064208984375,-1.00543212890625,-0.02813720703125
1759749058819,936357442,29993,9,-0.063720703125,-1.00299072265625,-0.02813720703125
1759749058819,936357442,29993,10,-0.065185546875,-0.99908447265625,-0.03448486328125
1759749058819,936357442,29993,11,-0.062255859375,-1.00543212890625,-0.03326416015625
1759749058819,936357442,29993,12,-0.0615234375,-1.00396728515625,-0.03521728515625
1759749058819,936357442,29993,13,-0.0615234375,-1.00274658203125,-0.03619384765625
1759749058819,936357442,29993,14,-0.064697265625,-1.00079345703125,-0.03277587890625
1759749058819,936357442,29993,15,-0.063720703125,-1.00396728515625,-0.03497314453125
1759749058819,936357442,29993,16,-0.06396484375,-1.00372314453125,-0.02911376953125
1759749058819,936357442,29993,17,-0.063232421875,-1.00274658203125,-0.03179931640625
1759749058819,936357442,29993,18,-0.0625,-1.00250244140625,-0.02862548828125
1759749058819,936357442,29993,19,-0.065185546875,-1.00323486328125,-0.02667236328125
1759749058819,936357442,29993,20,-0.06787109375,-1.00177001953125,-0.02716064453125
1759749058819,936357442,29993,21,-0.065673828125,-1.00299072265625,-0.02178955078125
1759749058819,936357442,29993,22,-0.068603515625,-1.00177001953125,-0.02008056640625
1759749058819,936357442,29993,23,-0.069091796875,-1.00054931640625,-0.01837158203125
1759749058819,936357442,29993,24,-0.0703125,-1.00152587890625,-0.01275634765625
1759749058819,936357442,29993,25,-0.070556640625,-1.00103759765625,-0.01544189453125
1759749058819,936357442,29993,26,-0.070068359375,-1.00323486328125,-0.00933837890625
1759749058819,936357442,29993,27,-0.069580078125,-1.00225830078125,-0.00640869140625
1759749058819,936357442,29993,28,-0.06884765625,-1.00006103515625,-0.00323486328125
1759749058819,936357442,29993,29,-0.06982421875,-1.00494384765625,-0.00518798828125
1759749058819,936357442,29993,30,-0.070068359375,-0.99957275390625,-0.01055908203125
1759749058819,936357442,29993,31,-0.0693359375,-1.00250244140625,-0.00299072265625
1759749061548,936359985,29994,0,-0.070556640625,-1.00030517578125,-0.00372314453125
1759749061548,936359985,29994,1,-0.068603515625,-1.00299072265625,-0.00372314453125
1759749061548,936359985,29994,2,-0.07080078125,-1.00592041015625,-0.00274658203125
1759749061548,936359985,29994,3,-0.067626953125,-1.00274658203125,-0.01153564453125
1759749061548,936359985,29994,4,-0.068115234375,-1.00274658203125,-0.01617431640625
1759749061548,936359985,29994,5,-0.06396484375,-1.00103759765625,-0.02398681640625
1759749061548,936359985,29994,6,-0.06787109375,-1.00323486328125,-0.02691650390625
1759749061548,936359985,29994,7,-0.068359375,-1.00128173828125,-0.02935791015625
1759749061548,936359985,29994,8,-0.064453125,-1.00250244140625,-0.03472900390625
1759749061548,936359985,29994,9,-0.065185546875,-1.00299072265625,-0.03594970703125
1759749061548,936359985,29994,10,-0.063720703125,-1.00372314453125,-0.04107666015625
1759749061548,936359985,29994,11,-0.060791015625,-1.00738525390625,-0.03619384765625
1759749061548,936359985,29994,12,-0.061279296875,-0.99835205078125,-0.04010009765625
1759749061548,936359985,29994,13,-0.0576171875,-1.00054931640625,-0.03741455078125
1759749061548,936359985,29994,14,-0.061767578125,-1.00518798828125,-0.03814697265625
1759749061548,936359985,29994,15,-0.0625,-1.00201416015625,-0.04107666015625
1759749061548,936359985,29994,16,-0.05859375,-1.00299072265625,-0.03692626953125
1759749061548,936359985,29994,17,-0.062255859375,-1.00396728515625,-0.03521728515625
1759749061548,936359985,29994,18,-0.061279296875,-1.00299072265625,-0.03204345703125
1759749061548,936359985,29994,19,-0.062744140625,-1.00128173828125,-0.03009033203125
1759749061548,936359985,29994,20,-0.063232421875,-1.00201416015625,-0.02496337890625
1759749061548,936359985,29994,21,-0.06494140625,-1.00347900390625,-0.01812744140625
1759749061548,936359985,29994,22,-0.06591796875,-1.00323486328125,-0.01763916015625
1759749061548,936359985,29994,23,-0.067138671875,-1.00177001953125,-0.01861572265625
1759749061548,936359985,29994,24,-0.0654296875,-1.00128173828125,-0.01812744140625
1759749061548,936359985,29994,25,-0.06298828125,-1.00616455078125,-0.01739501953125
1759749061548,936359985,29994,26,-0.0634765625,-1.00103759765625,-0.01910400390625
1759749061548,936359985,29994,27,-0.06591796875,-1.00103759765625,-0.01617431640625
1759749061548,936359985,29994,28,-0.06640625,-1.00030517578125,-0.01544189453125
1759749061548,936359985,29994,29,-0.062255859375,-1.00396728515625,-0.01812744140625
1759749061548,936359985,29994,30,-0.065673828125,-0.99981689453125,-0.01715087890625
