receivedPhoneTimestamp,respeckTimestamp,packetSeqNum,sampleSeqNum,accelX,accelY,accelZ
1759451900297,639573966,8222,0,-0.070556640625,-6.103515625e-05,0.94525146484375
1759451900297,639573966,8222,1,-0.068359375,0.00457763671875,0.94329833984375
1759451900297,639573966,8222,2,-0.06591796875,0.00189208984375,0.94549560546875
1759451900297,639573966,8222,3,-0.06884765625,0.00091552734375,0.94476318359375
1759451900297,639573966,8222,4,-0.064208984375,0.00335693359375,0.94696044921875
1759451900297,639573966,8222,5,-0.064208984375,0.00531005859375,0.94476318359375
1759451900297,639573966,8222,6,-0.063232421875,0.00311279296875,0.94378662109375
1759451900297,639573966,8222,7,-0.06103515625,0.00482177734375,0.94573974609375
1759451900297,639573966,8222,8,-0.060791015625,0.00799560546875,0.94720458984375
1759451900297,639573966,8222,9,-0.06201171875,0.00701904296875,0.94110107421875
1759451900297,639573966,8222,10,-0.06201171875,0.00872802734375,0.94476318359375
1759451900297,639573966,8222,11,-0.061767578125,0.00823974609375,0.94622802734375
1759451900297,639573966,8222,12,-0.060546875,0.00848388671875,0.94842529296875
1759451900297,639573966,8222,13,-0.059814453125,0.00897216796875,0.94622802734375
1759451900297,639573966,8222,14,-0.060791015625,0.00555419921875,0.94354248046875
1759451900297,639573966,8222,15,-0.061279296875,0.01068115234375,0.94427490234375
1759451900297,639573966,8222,16,-0.059814453125,0.00628662109375,0.93988037109375
1759451900297,639573966,8222,17,-0.05224609375,0.00701904296875,0.94696044921875
1759451900297,639573966,8222,18,-0.0546875,0.00701904296875,0.94793701171875
1759451900297,639573966,8222,19,-0.057373046875,0.00653076171875,0.94720458984375
1759451900297,639573966,8222,20,-0.048828125,0.00433349609375,0.94525146484375
1759451900297,639573966,8222,21,-0.0537109375,0.00335693359375,0.94525146484375
1759451900297,639573966,8222,22,-0.050537109375,0.00286865234375,0.94573974609375
1759451900297,639573966,8222,23,-0.051025390625,-0.00054931640625,0.94207763671875
1759451900297,639573966,8222,24,-0.051513671875,0.00140380859375,0.94232177734375
1759451900297,639573966,8222,25,-0.050537109375,0.00238037109375,0.94622802734375
1759451900297,639573966,8222,26,-0.05322265625,0.00091552734375,0.94866943359375
1759451900297,639573966,8222,27,-0.053466796875,0.00286865234375,0.94329833984375
1759451900297,639573966,8222,28,-0.052734375,0.00775146484375,0.94622802734375
1759451900297,639573966,8222,29,-0.050537109375,0.00482177734375,0.94403076171875
1759451900297,639573966,8222,30,-0.048828125,0.00384521484375,0.94451904296875
1759451900297,639573966,8222,31,-0.04541015625,0.00677490234375,0.94891357421875
1759451902443,639576509,8223,0,-0.046875,0.00921630859375,0.94744873046875
1759451902443,639576509,8223,1,-0.047607421875,0.00579833984375,0.94500732421875
1759451902443,639576509,8223,2,-0.04541015625,0.00872802734375,0.94647216796875
1759451902443,639576509,8223,3,-0.043701171875,0.00823974609375,0.94622802734375
1759451902443,639576509,8223,4,-0.044677734375,0.00604248046875,0.94622802734375
1759451902443,639576509,8223,5,-0.044189453125,0.01068115234375,0.94842529296875
1759451902443,639576509,8223,6,-0.0439453125,0.01116943359375,0.94573974609375
1759451902443,639576509,8223,7,-0.044189453125,0.00848388671875,0.94232177734375
1759451902443,639576509,8223,8,-0.046875,0.00701904296875,0.94525146484375
1759451902443,639576509,8223,9,-0.041259765625,0.01434326171875,0.94915771484375
1759451902443,639576509,8223,10,-0.0419921875,0.01556396484375,0.93914794921875
1759451902443,639576509,8223,11,-0.042724609375,0.01507568359375,0.94354248046875
1759451902443,639576509,8223,12,-0.041748046875,0.01947021484375,0.94671630859375
1759451902443,639576509,8223,13,-0.036865234375,0.02044677734375,0.94622802734375
1759451902443,639576509,8223,14,-0.036376953125,0.02435302734375,0.94525146484375
1759451902443,639576509,8223,15,-0.042236328125,0.01922607421875,0.94427490234375
1759451902443,639576509,8223,16,-0.0390625,0.02386474609375,0.94354248046875
1759451902443,639576509,8223,17,-0.03662109375,0.02362060546875,0.94207763671875
1759451902443,639576509,8223,18,-0.039306640625,0.02142333984375,0.94451904296875
1759451902443,639576509,8223,19,-0.04052734375,0.02532958984375,0.94329833984375
1759451902443,639576509,8223,20,-0.04248046875,0.02239990234375,0.94549560546875
1759451902443,639576509,8223,21,-0.039306640625,0.02728271484375,0.94403076171875
1759451902443,639576509,8223,22,-0.0380859375,0.02581787109375,0.94354248046875
1759451902443,639576509,8223,23,-0.03857421875,0.02630615234375,0.94256591796875
1759451902443,639576509,8223,24,-0.041015625,0.02703857421875,0.94622802734375
1759451902443,639576509,8223,25,-0.04150390625,0.02362060546875,0.94549560546875
1759451902443,639576509,8223,26,-0.035888671875,0.02093505859375,0.94622802734375
1759451902443,639576509,8223,27,-0.039794921875,0.02679443359375,0.94696044921875
1759451902443,639576509,8223,28,-0.03564453125,0.02264404296875,0.94256591796875
1759451902443,639576509,8223,29,-0.03955078125,0.01898193359375,0.94622802734375
1759451902443,639576509,8223,30,-0.03857421875,0.02069091796875,0.94403076171875
1759451902443,639576509,8223,31,-0.0380859375,0.01873779296875,0.94500732421875
1759451904979,639579052,8224,0,-0.041748046875,0.01995849609375,0.94451904296875
1759451904979,639579052,8224,1,-0.041259765625,0.02166748046875,0.94305419921875
1759451904979,639579052,8224,2,-0.04052734375,0.02264404296875,0.94378662109375
1759451904979,639579052,8224,3,-0.041748046875,0.01800537109375,0.94671630859375
1759451904979,639579052,8224,4,-0.041015625,0.01995849609375,0.94525146484375
1759451904979,639579052,8224,5,-0.042236328125,0.02093505859375,0.94525146484375
1759451904979,639579052,8224,6,-0.0439453125,0.01971435546875,0.94891357421875
1759451904979,639579052,8224,7,-0.04296875,0.01629638671875,0.94354248046875
1759451904979,639579052,8224,8,-0.04345703125,0.01434326171875,0.94622802734375
1759451904979,639579052,8224,9,-0.0458984375,0.01116943359375,0.94354248046875
1759451904979,639579052,8224,10,-0.050048828125,0.00482177734375,0.94720458984375
1759451904979,639579052,8224,11,-0.04736328125,0.00067138671875,0.94403076171875
1759451904979,639579052,8224,12,-0.051025390625,-0.00177001953125,0.94500732421875
1759451904979,639579052,8224,13,-0.051025390625,-0.00177001953125,0.94720458984375
1759451904979,639579052,8224,14,-0.050537109375,-0.00616455078125,0.94622802734375
1759451904979,639579052,8224,15,-0.05224609375,-0.00738525390625,0.94720458984375
1759451904979,639579052,8224,16,-0.053955078125,-0.00836181640625,0.93988037109375
1759451904979,639579052,8224,17,-0.05615234375,-0.00909423828125,0.94525146484375
1759451904979,639579052,8224,18,-0.053955078125,-0.00836181640625,0.94598388671875
1759451904979,639579052,8224,19,-0.053466796875,-0.01080322265625,0.94256591796875
1759451904979,639579052,8224,20,-0.0537109375,-0.01226806640625,0.94329833984375
1759451904979,639579052,8224,21,-0.050537109375,-0.00787353515625,0.94793701171875
1759451904979,639579052,8224,22,-0.052978515625,-0.01177978515625,0.94232177734375
1759451904979,639579052,8224,23,-0.054443359375,-0.00982666015625,0.94305419921875
1759451904979,639579052,8224,24,-0.052734375,-0.01080322265625,0.94769287109375
1759451904979,639579052,8224,25,-0.051513671875,-0.00885009765625,0.94793701171875
1759451904979,639579052,8224,26,-0.050537109375,-0.00787353515625,0.94671630859375
1759451904979,639579052,8224,27,-0.0498046875,-0.00738525390625,0.94525146484375
1759451904979,639579052,8224,28,-0.050048828125,-0.00421142578125,0.94598388671875
1759451904979,639579052,8224,29,-0.050048828125,-0.00421142578125,0.94671630859375
1759451904979,639579052,8224,30,-0.049560546875,-0.00787353515625,0.94476318359375
1759451904979,639579052,8224,31,-0.049072265625,-0.00079345703125,0.94451904296875
1759451907513,639581595,8225,0,-0.04736328125,0.00067138671875,0.94573974609375
1759451907513,639581595,8225,1,-0.048095703125,-0.00225830078125,0.94500732421875
1759451907513,639581595,8225,2,-0.045654296875,-6.103515625e-05,0.94476318359375
1759451907513,639581595,8225,3,-0.043212890625,0.00189208984375,0.94647216796875
1759451907513,639581595,8225,4,-0.0439453125,0.00067138671875,0.94354248046875
1759451907513,639581595,8225,5,-0.041748046875,0.00335693359375,0.94573974609375
1759451907513,639581595,8225,6,-0.0400390625,0.00335693359375,0.94842529296875
1759451907513,639581595,8225,7,-0.03857421875,0.00189208984375,0.94549560546875
1759451907513,639581595,8225,8,-0.0390625,0.00189208984375,0.94720458984375
1759451907513,639581595,8225,9,-0.039306640625,0.00384521484375,0.94647216796875
1759451907513,639581595,8225,10,-0.039794921875,0.00311279296875,0.94427490234375
1759451907513,639581595,8225,11,-0.04052734375,0.00457763671875,0.94647216796875
1759451907513,639581595,8225,12,-0.041259765625,0.00311279296875,0.94622802734375
1759451907513,639581595,8225,13,-0.038818359375,0.00140380859375,0.94696044921875
1759451907513,639581595,8225,14,-0.040283203125,0.00555419921875,0.94110107421875
1759451907513,639581595,8225,15,-0.041015625,0.00408935546875,0.94305419921875
1759451907513,639581595,8225,16,-0.037841796875,0.00384521484375,0.94622802734375
1759451907513,639581595,8225,17,-0.03955078125,0.00115966796875,0.94964599609375
1759451907513,639581595,8225,18,-0.041259765625,-6.103515625e-05,0.94281005859375
1759451907513,639581595,8225,19,-0.042724609375,-0.00250244140625,0.94183349609375
1759451907513,639581595,8225,20,-0.046630859375,-0.00592041015625,0.94671630859375
1759451907513,639581595,8225,21,-0.048583984375,-0.00640869140625,0.94525146484375
1759451907513,639581595,8225,22,-0.05078125,-0.00762939453125,0.94500732421875
1759451907513,639581595,8225,23,-0.052490234375,-0.00982666015625,0.94329833984375
1759451907513,639581595,8225,24,-0.049560546875,-0.00982666015625,0.94622802734375
1759451907513,639581595,8225,25,-0.052001953125,-0.00860595703125,0.94622802734375
1759451907513,639581595,8225,26,-0.05322265625,-0.01275634765625,0.94110107421875
1759451907513,639581595,8225,27,-0.053466796875,-0.01324462890625,0.94207763671875
1759451907513,639581595,8225,28,-0.0537109375,-0.00738525390625,0.94378662109375
1759451907513,639581595,8225,29,-0.054931640625,-0.00958251953125,0.94647216796875
1759451907513,639581595,8225,30,-0.052734375,-0.01007080078125,0.94744873046875
1759451907513,639581595,8225,31,-0.052001953125,-0.00714111328125,0.94500732421875
1759451910243,639584139,8226,0,-0.052001953125,-0.00714111328125,0.94354248046875
1759451910243,639584139,8226,1,-0.04833984375,-0.00421142578125,0.94183349609375
1759451910243,639584139,8226,2,-0.0478515625,-0.00592041015625,0.94549560546875
1759451910243,639584139,8226,3,-0.049560546875,-0.00347900390625,0.94647216796875
1759451910243,639584139,8226,4,-0.04931640625,-0.00152587890625,0.94403076171875
1759451910243,639584139,8226,5,-0.0458984375,-0.00274658203125,0.94525146484375
1759451910243,639584139,8226,6,-0.046142578125,0.00115966796875,0.94598388671875
1759451910243,639584139,8226,7,-0.041748046875,0.00384521484375,0.94378662109375
1759451910243,639584139,8226,8,-0.044189453125,0.00482177734375,0.94769287109375
1759451910243,639584139,8226,9,-0.042236328125,0.00042724609375,0.94671630859375
1759451910243,639584139,8226,10,-0.044677734375,0.00433349609375,0.94647216796875
1759451910243,639584139,8226,11,-0.042236328125,0.00262451171875,0.94696044921875
1759451910243,639584139,8226,12,-0.040283203125,0.00408935546875,0.94866943359375
1759451910243,639584139,8226,13,-0.039306640625,0.00262451171875,0.94866943359375
1759451910243,639584139,8226,14,-0.039794921875,0.00140380859375,0.94573974609375
1759451910243,639584139,8226,15,-0.041259765625,0.00140380859375,0.94647216796875
1759451910243,639584139,8226,16,-0.039306640625,0.00018310546875,0.94940185546875
1759451910243,639584139,8226,17,-0.0400390625,0.00408935546875,0.94476318359375
1759451910243,639584139,8226,18,-0.042236328125,-6.103515625e-05,0.94476318359375
1759451910243,639584139,8226,19,-0.0390625,0.00140380859375,0.94647216796875
1759451910243,639584139,8226,20,-0.03955078125,0.00091552734375,0.94476318359375
1759451910243,639584139,8226,21,-0.040283203125,0.00262451171875,0.94818115234375
1759451910243,639584139,8226,22,-0.040283203125,0.00384521484375,0.94305419921875
1759451910243,639584139,8226,23,-0.0419921875,0.00018310546875,0.94769287109375
1759451910243,639584139,8226,24,-0.038818359375,0.00555419921875,0.94573974609375
1759451910243,639584139,8226,25,-0.038330078125,0.00335693359375,0.94525146484375
1759451910243,639584139,8226,26,-0.0400390625,0.00018310546875,0.94403076171875
1759451910243,639584139,8226,27,-0.04443359375,0.00189208984375,0.94622802734375
1759451910243,639584139,8226,28,-0.0390625,0.00140380859375,0.94451904296875
1759451910243,639584139,8226,29,-0.03857421875,0.00115966796875,0.94525146484375
1759451910243,639584139,8226,30,-0.038818359375,-0.00079345703125,0.94305419921875
1759451910243,639584139,8226,31,-0.038818359375,-0.00054931640625,0.94232177734375
1759451912583,639586682,8227,0,-0.041259765625,-0.00201416015625,0.94256591796875
1759451912583,639586682,8227,1,-0.04150390625,-0.00054931640625,0.94500732421875
1759451912583,639586682,8227,2,-0.04150390625,-0.00201416015625,0.94525146484375
1759451912583,639586682,8227,3,-0.04052734375,-6.103515625e-05,0.94647216796875
1759451912583,639586682,8227,4,-0.041015625,-0.00323486328125,0.94525146484375
1759451912583,639586682,8227,5,-0.041748046875,-0.00274658203125,0.94818115234375
1759451912583,639586682,8227,6,-0.043212890625,-0.00469970703125,0.94671630859375
1759451912583,639586682,8227,7,-0.04541015625,-0.00299072265625,0.94476318359375
1759451912583,639586682,8227,8,-0.04833984375,-0.00738525390625,0.94671630859375
1759451912583,639586682,8227,9,-0.048095703125,-0.00689697265625,0.94549560546875
1759451912583,639586682,8227,10,-0.047119140625,-0.00811767578125,0.94842529296875
1759451912583,639586682,8227,11,-0.048828125,-0.00811767578125,0.94329833984375
1759451912583,639586682,8227,12,-0.04833984375,-0.00811767578125,0.94354248046875
1759451912583,639586682,8227,13,-0.0537109375,-0.01153564453125,0.94744873046875
1759451912583,639586682,8227,14,-0.052001953125,-0.00933837890625,0.94818115234375
1759451912583,639586682,8227,15,-0.052490234375,-0.01300048828125,0.94866943359375
1759451912583,639586682,8227,16,-0.054931640625,-0.01348876953125,0.94281005859375
1759451912583,639586682,8227,17,-0.056396484375,-0.01300048828125,0.94647216796875
1759451912583,639586682,8227,18,-0.0537109375,-0.01104736328125,0.94866943359375
1759451912583,639586682,8227,19,-0.0556640625,-0.01422119140625,0.94647216796875
1759451912583,639586682,8227,20,-0.05322265625,-0.01007080078125,0.94476318359375
1759451912583,639586682,8227,21,-0.05517578125,-0.00909423828125,0.94549560546875
1759451912583,639586682,8227,22,-0.05712890625,-0.01031494140625,0.94793701171875
1759451912583,639586682,8227,23,-0.054443359375,-0.01080322265625,0.94329833984375
1759451912583,639586682,8227,24,-0.053955078125,-0.00933837890625,0.94598388671875
1759451912583,639586682,8227,25,-0.05126953125,-0.00982666015625,0.94549560546875
1759451912583,639586682,8227,26,-0.051513671875,-0.00738525390625,0.94476318359375
1759451912583,639586682,8227,27,-0.052001953125,-0.00616455078125,0.94598388671875
1759451912583,639586682,8227,28,-0.049072265625,-0.00518798828125,0.94622802734375
1759451912583,639586682,8227,29,-0.048828125,-0.00640869140625,0.94622802734375
1759451912583,639586682,8227,30,-0.051025390625,-0.00494384765625,0.94549560546875
1759451912583,639586682,8227,31,-0.04931640625,-0.00372314453125,0.94744873046875
1759451915118,639589219,8228,0,-0.047607421875,-0.00421142578125,0.94427490234375
1759451915118,639589219,8228,1,-0.0478515625,-0.00445556640625,0.94720458984375
1759451915118,639589219,8228,2,-0.044677734375,0.00067138671875,0.94549560546875
1759451915118,639589219,8228,3,-0.043212890625,-0.00177001953125,0.94622802734375
1759451915118,639589219,8228,4,-0.03955078125,-0.00274658203125,0.94696044921875
1759451915118,639589219,8228,5,-0.04248046875,-0.00103759765625,0.94525146484375
1759451915118,639589219,8228,6,-0.045166015625,0.00067138671875,0.94378662109375
1759451915118,639589219,8228,7,-0.04296875,0.00067138671875,0.94451904296875
1759451915118,639589219,8228,8,-0.040283203125,-0.00152587890625,0.94476318359375
1759451915118,639589219,8228,9,-0.04150390625,0.00262451171875,0.94622802734375
1759451915118,639589219,8228,10,-0.041015625,0.00018310546875,0.94744873046875
1759451915118,639589219,8228,11,-0.04052734375,-6.103515625e-05,0.94354248046875
1759451915118,639589219,8228,12,-0.03857421875,0.00286865234375,0.94573974609375
1759451915118,639589219,8228,13,-0.045166015625,0.00042724609375,0.94598388671875
1759451915118,639589219,8228,14,-0.0439453125,0.00091552734375,0.94573974609375
1759451915118,639589219,8228,15,-0.04248046875,-0.00640869140625,0.94744873046875
1759451915118,639589219,8228,16,-0.04296875,-0.00201416015625,0.94744873046875
1759451915118,639589219,8228,17,-0.046875,-0.00372314453125,0.94573974609375
1759451915118,639589219,8228,18,-0.048583984375,-0.00567626953125,0.94476318359375
1759451915118,639589219,8228,19,-0.0478515625,-0.00616455078125,0.94769287109375
1759451915118,639589219,8228,20,-0.049072265625,-0.00665283203125,0.94403076171875
1759451915118,639589219,8228,21,-0.048583984375,-0.00885009765625,0.94476318359375
1759451915118,639589219,8228,22,-0.05078125,-0.00665283203125,0.94305419921875
1759451915118,639589219,8228,23,-0.049072265625,-0.00714111328125,0.94427490234375
1759451915118,639589219,8228,24,-0.050537109375,-0.00445556640625,0.94354248046875
1759451915118,639589219,8228,25,-0.050048828125,-0.00738525390625,0.94329833984375
1759451915118,639589219,8228,26,-0.05126953125,-0.00592041015625,0.94500732421875
1759451915118,639589219,8228,27,-0.0498046875,-0.00274658203125,0.94573974609375
1759451915118,639589219,8228,28,-0.047119140625,-0.00274658203125,0.94573974609375
1759451915118,639589219,8228,29,-0.048828125,-0.00347900390625,0.94256591796875
1759451915118,639589219,8228,30,-0.049072265625,0.00384521484375,0.94744873046875
1759451915118,639589219,8228,31,-0.046875,-0.00079345703125,0.94378662109375
1759451917650,639591762,8229,0,-0.04296875,0.00311279296875,0.94354248046875
1759451917650,639591762,8229,1,-0.04248046875,0.00457763671875,0.94354248046875
1759451917650,639591762,8229,2,-0.041259765625,0.00750732421875,0.94891357421875
1759451917650,639591762,8229,3,-0.03857421875,0.00384521484375,0.94549560546875
1759451917650,639591762,8229,4,-0.037353515625,0.00506591796875,0.94500732421875
1759451917650,639591762,8229,5,-0.0361328125,0.00604248046875,0.94549560546875
1759451917650,639591762,8229,6,-0.035400390625,0.00653076171875,0.94500732421875
1759451917650,639591762,8229,7,-0.033935546875,0.00604248046875,0.94329833984375
1759451917650,639591762,8229,8,-0.036376953125,0.00628662109375,0.94500732421875
1759451917650,639591762,8229,9,-0.033203125,0.00555419921875,0.94427490234375
1759451917650,639591762,8229,10,-0.03759765625,0.00384521484375,0.94793701171875
1759451917650,639591762,8229,11,-0.0361328125,0.00360107421875,0.94158935546875
1759451917650,639591762,8229,12,-0.036376953125,0.00604248046875,0.94647216796875
1759451917650,639591762,8229,13,-0.03759765625,0.00189208984375,0.94671630859375
1759451917650,639591762,8229,14,-0.041748046875,0.00042724609375,0.94525146484375
1759451917650,639591762,8229,15,-0.0419921875,-0.00201416015625,0.94696044921875
1759451917650,639591762,8229,16,-0.043212890625,-0.00128173828125,0.94549560546875
1759451917650,639591762,8229,17,-0.045166015625,-0.00128173828125,0.94525146484375
1759451917650,639591762,8229,18,-0.046630859375,-0.00494384765625,0.94671630859375
1759451917650,639591762,8229,19,-0.044921875,-0.00665283203125,0.94476318359375
1759451917650,639591762,8229,20,-0.04638671875,-0.00665283203125,0.94476318359375
1759451917650,639591762,8229,21,-0.049560546875,-0.00665283203125,0.94647216796875
1759451917650,639591762,8229,22,-0.05029296875,-0.00665283203125,0.94500732421875
1759451917650,639591762,8229,23,-0.05029296875,-0.00689697265625,0.94793701171875
1759451917650,639591762,8229,24,-0.048583984375,-0.00518798828125,0.94525146484375
1759451917650,639591762,8229,25,-0.049072265625,-0.00250244140625,0.94403076171875
1759451917650,639591762,8229,26,-0.048095703125,-0.00347900390625,0.94500732421875
1759451917650,639591762,8229,27,-0.047119140625,-6.103515625e-05,0.94598388671875
1759451917650,639591762,8229,28,-0.04296875,0.00091552734375,0.94598388671875
1759451917650,639591762,8229,29,-0.044189453125,0.00042724609375,0.94696044921875
1759451917650,639591762,8229,30,-0.04150390625,0.00042724609375,0.94451904296875
1759451917650,639591762,8229,31,-0.04150390625,0.00164794921875,0.94427490234375
1759451920188,639594305,8230,0,-0.03955078125,0.00384521484375,0.94476318359375
1759451920188,639594305,8230,1,-0.038818359375,0.00286865234375,0.94305419921875
1759451920188,639594305,8230,2,-0.042236328125,0.00384521484375,0.94305419921875
1759451920188,639594305,8230,3,-0.03955078125,0.00701904296875,0.94793701171875
1759451920188,639594305,8230,4,-0.038818359375,0.00970458984375,0.94598388671875
1759451920188,639594305,8230,5,-0.03759765625,0.00262451171875,0.94281005859375
1759451920188,639594305,8230,6,-0.036865234375,0.00531005859375,0.94354248046875
1759451920188,639594305,8230,7,-0.035400390625,0.00823974609375,0.94500732421875
1759451920188,639594305,8230,8,-0.033935546875,0.00653076171875,0.94573974609375
1759451920188,639594305,8230,9,-0.032958984375,0.00872802734375,0.94573974609375
1759451920188,639594305,8230,10,-0.03369140625,0.00628662109375,0.94378662109375
1759451920188,639594305,8230,11,-0.031982421875,0.00701904296875,0.94696044921875
1759451920188,639594305,8230,12,-0.034912109375,0.00701904296875,0.94573974609375
1759451920188,639594305,8230,13,-0.0361328125,0.00579833984375,0.94671630859375
1759451920188,639594305,8230,14,-0.03857421875,0.00457763671875,0.94500732421875
1759451920188,639594305,8230,15,-0.040771484375,0.00018310546875,0.94549560546875
1759451920188,639594305,8230,16,-0.040283203125,-6.103515625e-05,0.94305419921875
1759451920188,639594305,8230,17,-0.042236328125,-0.00152587890625,0.94744873046875
1759451920188,639594305,8230,18,-0.0439453125,-0.00030517578125,0.94525146484375
1759451920188,639594305,8230,19,-0.046142578125,-0.00421142578125,0.94671630859375
1759451920188,639594305,8230,20,-0.048828125,-0.00274658203125,0.94403076171875
1759451920188,639594305,8230,21,-0.04833984375,-0.00152587890625,0.94598388671875
1759451920188,639594305,8230,22,-0.048828125,-0.00445556640625,0.94134521484375
1759451920188,639594305,8230,23,-0.04931640625,-0.00201416015625,0.94403076171875
1759451920188,639594305,8230,24,-0.04931640625,-0.00054931640625,0.94500732421875
1759451920188,639594305,8230,25,-0.046142578125,-0.00177001953125,0.94207763671875
1759451920188,639594305,8230,26,-0.04736328125,-0.00030517578125,0.94451904296875
1759451920188,639594305,8230,27,-0.046875,-6.103515625e-05,0.94720458984375
1759451920188,639594305,8230,28,-0.044921875,0.00238037109375,0.94622802734375
1759451920188,639594305,8230,29,-0.044921875,0.00506591796875,0.93988037109375
1759451920188,639594305,8230,30,-0.042236328125,0.00579833984375,0.94573974609375
1759451920188,639594305,8230,31,-0.0390625,0.00628662109375,0.94573974609375
1759451922918,639596848,8231,0,-0.0400390625,0.00384521484375,0.94622802734375
1759451922918,639596848,8231,1,-0.0390625,0.00994873046875,0.94329833984375
1759451922918,639596848,8231,2,-0.039306640625,0.00823974609375,0.94549560546875
1759451922918,639596848,8231,3,-0.033203125,0.00970458984375,0.94500732421875
1759451922918,639596848,8231,4,-0.033935546875,0.00946044921875,0.94647216796875
1759451922918,639596848,8231,5,-0.034912109375,0.01190185546875,0.94451904296875
1759451922918,639596848,8231,6,-0.033447265625,0.01116943359375,0.94696044921875
1759451922918,639596848,8231,7,-0.03564453125,0.00848388671875,0.94549560546875
1759451922918,639596848,8231,8,-0.03076171875,0.00897216796875,0.94525146484375
1759451922918,639596848,8231,9,-0.035400390625,0.01190185546875,0.94915771484375
1759451922918,639596848,8231,10,-0.033203125,0.00823974609375,0.94403076171875
1759451922918,639596848,8231,11,-0.037109375,0.00775146484375,0.94329833984375
1759451922918,639596848,8231,12,-0.038330078125,0.00433349609375,0.94818115234375
1759451922918,639596848,8231,13,-0.039794921875,0.00531005859375,0.94451904296875
1759451922918,639596848,8231,14,-0.0390625,0.00286865234375,0.94329833984375
1759451922918,639596848,8231,15,-0.0380859375,0.00799560546875,0.94720458984375
1759451922918,639596848,8231,16,-0.039794921875,0.00091552734375,0.94500732421875
1759451922918,639596848,8231,17,-0.041748046875,-0.00030517578125,0.94451904296875
1759451922918,639596848,8231,18,-0.041259765625,0.00042724609375,0.94573974609375
1759451922918,639596848,8231,19,-0.04296875,-0.00128173828125,0.94549560546875
1759451922918,639596848,8231,20,-0.044921875,-0.00274658203125,0.94378662109375
1759451922918,639596848,8231,21,-0.041259765625,-0.00640869140625,0.94281005859375
1759451922918,639596848,8231,22,-0.044189453125,-0.00274658203125,0.94378662109375
1759451922918,639596848,8231,23,-0.044677734375,-0.00372314453125,0.94549560546875
1759451922918,639596848,8231,24,-0.044189453125,-0.00250244140625,0.94549560546875
1759451922918,639596848,8231,25,-0.044921875,-0.00567626953125,0.94476318359375
1759451922918,639596848,8231,26,-0.046142578125,-0.00225830078125,0.94549560546875
1759451922918,639596848,8231,27,-0.04296875,-6.103515625e-05,0.94622802734375
1759451922918,639596848,8231,28,-0.045166015625,-0.00079345703125,0.94403076171875
1759451922918,639596848,8231,29,-0.04150390625,0.00115966796875,0.94427490234375
1759451922918,639596848,8231,30,-0.0400390625,0.00408935546875,0.94671630859375
1759451922918,639596848,8231,31,-0.037109375,0.00531005859375,0.94427490234375
1759451925259,639599391,8232,0,-0.039794921875,0.00531005859375,0.94573974609375
1759451925259,639599391,8232,1,-0.035888671875,0.00750732421875,0.94622802734375
1759451925259,639599391,8232,2,-0.03173828125,0.01068115234375,0.94598388671875
1759451925259,639599391,8232,3,-0.0380859375,0.00897216796875,0.94427490234375
1759451925259,639599391,8232,4,-0.033203125,0.00970458984375,0.94232177734375
1759451925259,639599391,8232,5,-0.033203125,0.00823974609375,0.94525146484375
1759451925259,639599391,8232,6,-0.036865234375,0.01043701171875,0.94427490234375
1759451925259,639599391,8232,7,-0.0341796875,0.00799560546875,0.94378662109375
1759451925259,639599391,8232,8,-0.03369140625,0.00726318359375,0.94647216796875
1759451925259,639599391,8232,9,-0.030517578125,0.00897216796875,0.94720458984375
1759451925259,639599391,8232,10,-0.031005859375,0.01068115234375,0.94354248046875
1759451925259,639599391,8232,11,-0.02978515625,0.00848388671875,0.94573974609375
1759451925259,639599391,8232,12,-0.036376953125,0.00311279296875,0.94427490234375
1759451925259,639599391,8232,13,-0.034912109375,0.00238037109375,0.94720458984375
1759451925259,639599391,8232,14,-0.03662109375,-0.00128173828125,0.94476318359375
1759451925259,639599391,8232,15,-0.036865234375,-0.00054931640625,0.94818115234375
1759451925259,639599391,8232,16,-0.039306640625,-0.00250244140625,0.94696044921875
1759451925259,639599391,8232,17,-0.040771484375,-0.00518798828125,0.94476318359375
1759451925259,639599391,8232,18,-0.04150390625,-0.00494384765625,0.94012451171875
1759451925259,639599391,8232,19,-0.041259765625,-0.00372314453125,0.94451904296875
1759451925259,639599391,8232,20,-0.045166015625,-0.00543212890625,0.94549560546875
1759451925259,639599391,8232,21,-0.0439453125,-0.00494384765625,0.94403076171875
1759451925259,639599391,8232,22,-0.04296875,-0.00518798828125,0.94573974609375
1759451925259,639599391,8232,23,-0.040283203125,-0.00054931640625,0.94403076171875
1759451925259,639599391,8232,24,-0.040771484375,-0.00177001953125,0.94573974609375
1759451925259,639599391,8232,25,-0.038818359375,0.00140380859375,0.94158935546875
1759451925259,639599391,8232,26,-0.039306640625,0.00653076171875,0.94476318359375
1759451925259,639599391,8232,27,-0.03466796875,0.00726318359375,0.94378662109375
1759451925259,639599391,8232,28,-0.03466796875,0.00994873046875,0.94549560546875
1759451925259,639599391,8232,29,-0.037109375,0.00775146484375,0.94720458984375
