receivedPhoneTimestamp,respeckTimestamp,packetSeqNum,sampleSeqNum,accelX,accelY,accelZ
1759854270292,1042004842,14986,4,-0.1181640625,-1.01593017578125,-0.14337158203125
1759854270292,1042004842,14986,5,-0.12060546875,-1.01690673828125,-0.13946533203125
1759854270292,1042004842,14986,6,-0.115234375,-1.02032470703125,-0.14239501953125
1759854270292,1042004842,14986,7,-0.118408203125,-1.01568603515625,-0.14508056640625
1759854270292,1042004842,14986,8,-0.116943359375,-1.01593017578125,-0.14678955078125
1759854270292,1042004842,14986,9,-0.11962890625,-1.01544189453125,-0.14849853515625
1759854270292,1042004842,14986,10,-0.1201171875,-1.01666259765625,-0.14434814453125
1759854270292,1042004842,14986,11,-0.118408203125,-1.01495361328125,-0.15045166015625
1759854270292,1042004842,14986,12,-0.118896484375,-1.01593017578125,-0.14996337890625
1759854270292,1042004842,14986,13,-0.116455078125,-1.01641845703125,-0.15118408203125
1759854270292,1042004842,14986,14,-0.1181640625,-1.01739501953125,-0.14996337890625
1759854270292,1042004842,14986,15,-0.116455078125,-1.01763916015625,-0.14947509765625
1759854270292,1042004842,14986,16,-0.115966796875,-1.01519775390625,-0.15557861328125
1759854270292,1042004842,14986,17,-0.11376953125,-1.01495361328125,-0.15142822265625
1759854270292,1042004842,14986,18,-0.122802734375,-1.02496337890625,-0.15216064453125
1759854270292,1042004842,14986,19,-0.121337890625,-1.03082275390625,-0.15826416015625
1759854270292,1042004842,14986,20,-0.114013671875,-1.01617431640625,-0.15069580078125
1759854270292,1042004842,14986,21,-0.121826171875,-1.02471923828125,-0.15240478515625
1759854270292,1042004842,14986,22,-0.13134765625,-1.01837158203125,-0.14410400390625
1759854270292,1042004842,14986,23,-0.14599609375,-1.01080322265625,-0.12823486328125
1759854270292,1042004842,14986,24,-0.166259765625,-1.01641845703125,-0.11383056640625
1759854270292,1042004842,14986,25,-0.173583984375,-1.00616455078125,-0.10040283203125
1759854270292,1042004842,14986,26,-0.200927734375,-1.00714111328125,-0.06646728515625
1759854270292,1042004842,14986,27,-0.22314453125,-1.00469970703125,-0.05694580078125
1759854270292,1042004842,14986,28,-0.261962890625,-0.99420166015625,-0.02496337890625
1759854270292,1042004842,14986,29,-0.2626953125,-0.99273681640625,-0.00909423828125
1759854270292,1042004842,14986,30,-0.322998046875,-0.99542236328125,0.00701904296875
1759854270292,1042004842,14986,31,-0.342529296875,-0.99005126953125,0.02923583984375
1759854272810,1042007361,14987,0,-0.3466796875,-0.98077392578125,0.04998779296875
1759854272810,1042007361,14987,1,-0.36474609375,-0.94757080078125,0.05975341796875
1759854272810,1042007361,14987,2,-0.39306640625,-0.94244384765625,0.06878662109375
1759854272810,1042007361,14987,3,-0.4140625,-0.94830322265625,0.06243896484375
1759854272810,1042007361,14987,4,-0.419189453125,-0.95904541015625,0.08148193359375
1759854272810,1042007361,14987,5,-0.4228515625,-0.94439697265625,0.08538818359375
1759854272810,1042007361,14987,6,-0.4375,-0.94342041015625,0.07952880859375
1759854272810,1042007361,14987,7,-0.421630859375,-0.94952392578125,0.06805419921875
1759854272810,1042007361,14987,8,-0.38671875,-0.94854736328125,0.04803466796875
1759854272810,1042007361,14987,9,-0.373046875,-0.95880126953125,0.02581787109375
1759854272810,1042007361,14987,10,-0.336669921875,-0.96563720703125,0.00482177734375
1759854272810,1042007361,14987,11,-0.337646484375,-0.98248291015625,-0.01544189453125
1759854272810,1042007361,14987,12,-0.299072265625,-0.99810791015625,-0.03277587890625
1759854272810,1042007361,14987,13,-0.270263671875,-1.00469970703125,-0.05181884765625
1759854272810,1042007361,14987,14,-0.255859375,-1.02349853515625,-0.06060791015625
1759854272810,1042007361,14987,15,-0.20849609375,-1.01251220703125,-0.07281494140625
1759854272810,1042007361,14987,16,-0.215087890625,-1.01495361328125,-0.08477783203125
1759854272810,1042007361,14987,17,-0.15576171875,-1.00836181640625,-0.07818603515625
1759854272810,1042007361,14987,18,-0.13623046875,-1.00836181640625,-0.09649658203125
1759854272810,1042007361,14987,19,-0.1103515625,-1.03253173828125,-0.09136962890625
1759854272810,1042007361,14987,20,-0.091796875,-1.02569580078125,-0.10772705078125
1759854272810,1042007361,14987,21,-0.083984375,-1.02740478515625,-0.10845947265625
1759854272810,1042007361,14987,22,-0.080810546875,-1.02618408203125,-0.11480712890625
1759854272810,1042007361,14987,23,-0.052734375,-1.03277587890625,-0.11505126953125
1759854272810,1042007361,14987,24,-0.0595703125,-1.03057861328125,-0.11578369140625
1759854272810,1042007361,14987,25,-0.0732421875,-1.02154541015625,-0.11456298828125
1759854272810,1042007361,14987,26,-0.038818359375,-1.00933837890625,-0.12579345703125
1759854272810,1042007361,14987,27,-0.00439453125,-1.04156494140625,-0.11260986328125
1759854272810,1042007361,14987,28,-0.00927734375,-1.02716064453125,-0.12042236328125
1759854272810,1042007361,14987,29,-0.01123046875,-0.99713134765625,-0.13507080078125
1759854272810,1042007361,14987,30,-0.011474609375,-1.03839111328125,-0.13385009765625
1759854272810,1042007361,14987,31,-0.02099609375,-1.02886962890625,-0.11456298828125
1759854275331,1042009880,14988,0,-0.0234375,-1.01519775390625,-0.13604736328125
1759854275331,1042009880,14988,1,-0.022216796875,-1.02471923828125,-0.15045166015625
1759854275331,1042009880,14988,2,-0.02783203125,-1.02349853515625,-0.15093994140625
1759854275331,1042009880,14988,3,-0.027587890625,-1.02252197265625,-0.15289306640625
1759854275331,1042009880,14988,4,-0.030029296875,-1.03009033203125,-0.14239501953125
1759854275331,1042009880,14988,5,-0.0634765625,-1.01763916015625,-0.14117431640625
1759854275331,1042009880,14988,6,-0.076416015625,-1.01348876953125,-0.12994384765625
1759854275331,1042009880,14988,7,-0.029541015625,-1.05303955078125,-0.16241455078125
1759854275331,1042009880,14988,8,-0.0458984375,-1.06549072265625,-0.12457275390625
1759854275331,1042009880,14988,9,-0.04833984375,-1.04278564453125,-0.11334228515625
1759854275331,1042009880,14988,10,0.04443359375,-1.04962158203125,-0.14703369140625
1759854275331,1042009880,14988,11,0.017822265625,-1.02178955078125,-0.11090087890625
1759854275331,1042009880,14988,12,0.02734375,-0.94805908203125,-0.14166259765625
1759854275331,1042009880,14988,13,0.09033203125,-0.95513916015625,-0.16461181640625
1759854275331,1042009880,14988,14,0.1630859375,-0.97418212890625,-0.17120361328125
1759854275331,1042009880,14988,15,0.166748046875,-1.00054931640625,-0.17901611328125
1759854275331,1042009880,14988,16,0.15478515625,-1.02935791015625,-0.17926025390625
1759854275331,1042009880,14988,17,0.13427734375,-1.01202392578125,-0.19342041015625
1759854275331,1042009880,14988,18,0.12451171875,-1.01226806640625,-0.18121337890625
1759854275331,1042009880,14988,19,0.122802734375,-1.00762939453125,-0.18609619140625
1759854275331,1042009880,14988,20,0.105224609375,-1.00030517578125,-0.17877197265625
1759854275331,1042009880,14988,21,0.1083984375,-1.00299072265625,-0.17926025390625
1759854275331,1042009880,14988,22,0.09716796875,-1.00421142578125,-0.18048095703125
1759854275331,1042009880,14988,23,0.086181640625,-1.00323486328125,-0.18682861328125
1759854275331,1042009880,14988,24,0.097412109375,-1.01397705078125,-0.18927001953125
1759854275331,1042009880,14988,25,0.094482421875,-1.00982666015625,-0.18511962890625
1759854275331,1042009880,14988,26,0.104736328125,-1.00323486328125,-0.19512939453125
1759854275331,1042009880,14988,27,0.106201171875,-1.00225830078125,-0.20196533203125
1759854275331,1042009880,14988,28,0.104736328125,-0.99298095703125,-0.20758056640625
1759854275331,1042009880,14988,29,0.10986328125,-1.00494384765625,-0.20587158203125
1759854275331,1042009880,14988,30,0.116943359375,-1.00054931640625,-0.21417236328125
1759854275331,1042009880,14988,31,0.118896484375,-1.00518798828125,-0.20758056640625
1759854277854,1042012399,14989,0,0.128662109375,-0.99932861328125,-0.21441650390625
1759854277854,1042012399,14989,1,0.128662109375,-1.00347900390625,-0.20611572265625
1759854277854,1042012399,14989,2,0.117431640625,-0.99835205078125,-0.19659423828125
1759854277854,1042012399,14989,3,0.116943359375,-1.00250244140625,-0.19415283203125
1759854277854,1042012399,14989,4,0.1142578125,-1.00762939453125,-0.18658447265625
1759854277854,1042012399,14989,5,0.11376953125,-1.01080322265625,-0.17950439453125
1759854277854,1042012399,14989,6,0.111328125,-1.00372314453125,-0.17877197265625
1759854277854,1042012399,14989,7,0.10791015625,-1.00665283203125,-0.17364501953125
1759854277854,1042012399,14989,8,0.107421875,-1.00347900390625,-0.17633056640625
1759854277854,1042012399,14989,9,0.1083984375,-1.00836181640625,-0.17437744140625
1759854277854,1042012399,14989,10,0.11181640625,-1.00909423828125,-0.17584228515625
1759854277854,1042012399,14989,11,0.107177734375,-1.00445556640625,-0.16851806640625
1759854277854,1042012399,14989,12,0.10693359375,-1.00567626953125,-0.17486572265625
1759854277854,1042012399,14989,13,0.105224609375,-1.00640869140625,-0.17974853515625
1759854277854,1042012399,14989,14,0.108642578125,-1.00299072265625,-0.18243408203125
1759854277854,1042012399,14989,15,0.109130859375,-1.00860595703125,-0.17828369140625
1759854277854,1042012399,14989,16,0.1083984375,-1.00616455078125,-0.18170166015625
1759854277854,1042012399,14989,17,0.109130859375,-1.00836181640625,-0.18682861328125
1759854277854,1042012399,14989,18,0.1123046875,-1.00396728515625,-0.19268798828125
1759854277854,1042012399,14989,19,0.112548828125,-1.00445556640625,-0.19732666015625
1759854277854,1042012399,14989,20,0.111328125,-1.00225830078125,-0.19781494140625
1759854277854,1042012399,14989,21,0.112548828125,-1.00323486328125,-0.19976806640625
1759854277854,1042012399,14989,22,0.111328125,-1.00006103515625,-0.19927978515625
1759854277854,1042012399,14989,23,0.111328125,-1.00372314453125,-0.20245361328125
1759854277854,1042012399,14989,24,0.11328125,-1.00567626953125,-0.20172119140625
1759854277854,1042012399,14989,25,0.112548828125,-0.99615478515625,-0.20465087890625
1759854277854,1042012399,14989,26,0.111572265625,-1.00250244140625,-0.20709228515625
1759854277854,1042012399,14989,27,0.113037109375,-1.00299072265625,-0.20733642578125
1759854277854,1042012399,14989,28,0.112060546875,-1.00079345703125,-0.20440673828125
1759854277854,1042012399,14989,29,0.118896484375,-1.00225830078125,-0.21148681640625
1759854277854,1042012399,14989,30,0.116943359375,-1.00250244140625,-0.20855712890625
1759854277854,1042012399,14989,31,0.1201171875,-1.00079345703125,-0.21026611328125
1759854280371,1042014919,14990,0,0.119873046875,-0.99908447265625,-0.20782470703125
1759854280371,1042014919,14990,1,0.121826171875,-1.00201416015625,-0.20928955078125
1759854280371,1042014919,14990,2,0.122314453125,-0.99786376953125,-0.20709228515625
1759854280371,1042014919,14990,3,0.119384765625,-1.00030517578125,-0.20709228515625
1759854280371,1042014919,14990,4,0.121826171875,-0.99932861328125,-0.21295166015625
1759854280371,1042014919,14990,5,0.123046875,-0.99835205078125,-0.21173095703125
1759854280371,1042014919,14990,6,0.1240234375,-0.99981689453125,-0.21270751953125
1759854280371,1042014919,14990,7,0.126220703125,-0.99761962890625,-0.21612548828125
1759854280371,1042014919,14990,8,0.122802734375,-0.99713134765625,-0.21319580078125
1759854280371,1042014919,14990,9,0.1240234375,-0.99615478515625,-0.21075439453125
1759854280371,1042014919,14990,10,0.12548828125,-1.00054931640625,-0.21612548828125
1759854280371,1042014919,14990,11,0.12939453125,-0.99493408203125,-0.21856689453125
1759854280371,1042014919,14990,12,0.125732421875,-0.99542236328125,-0.21881103515625
1759854280371,1042014919,14990,13,0.126220703125,-0.99591064453125,-0.21612548828125
1759854280371,1042014919,14990,14,0.125,-0.99688720703125,-0.21124267578125
1759854280371,1042014919,14990,15,0.12548828125,-1.00054931640625,-0.21075439453125
1759854280371,1042014919,14990,16,0.122802734375,-1.00323486328125,-0.20489501953125
1759854280371,1042014919,14990,17,0.12255859375,-1.00030517578125,-0.20098876953125
1759854280371,1042014919,14990,18,0.123046875,-1.00201416015625,-0.19683837890625
1759854280371,1042014919,14990,19,0.1201171875,-1.00006103515625,-0.19390869140625
1759854280371,1042014919,14990,20,0.1220703125,-1.00518798828125,-0.18707275390625
1759854280371,1042014919,14990,21,0.120361328125,-1.00201416015625,-0.18316650390625
1759854280371,1042014919,14990,22,0.11669921875,-1.00714111328125,-0.18072509765625
1759854280371,1042014919,14990,23,0.119384765625,-1.00616455078125,-0.17852783203125
1759854280371,1042014919,14990,24,0.115234375,-1.00689697265625,-0.17706298828125
1759854280371,1042014919,14990,25,0.11669921875,-1.00421142578125,-0.17706298828125
1759854280371,1042014919,14990,26,0.115234375,-1.00299072265625,-0.17169189453125
1759854280371,1042014919,14990,27,0.11767578125,-1.00567626953125,-0.17364501953125
1759854280371,1042014919,14990,28,0.117919921875,-1.00543212890625,-0.17340087890625
1759854280371,1042014919,14990,29,0.11865234375,-1.00762939453125,-0.17095947265625
1759854280371,1042014919,14990,30,0.12109375,-1.00616455078125,-0.17828369140625
1759854280371,1042014919,14990,31,0.11669921875,-1.00347900390625,-0.18023681640625
1759854282893,1042017438,14991,0,0.115234375,-1.00811767578125,-0.17462158203125
1759854282893,1042017438,14991,1,0.119140625,-1.00323486328125,-0.18316650390625
1759854282893,1042017438,14991,2,0.11767578125,-1.00274658203125,-0.18243408203125
1759854282893,1042017438,14991,3,0.117919921875,-1.00225830078125,-0.18511962890625
1759854282893,1042017438,14991,4,0.119384765625,-1.00421142578125,-0.18511962890625
1759854282893,1042017438,14991,5,0.125244140625,-1.00030517578125,-0.19000244140625
1759854282893,1042017438,14991,6,0.123291015625,-1.00177001953125,-0.19561767578125
1759854282893,1042017438,14991,7,0.126953125,-1.00445556640625,-0.20147705078125
1759854282893,1042017438,14991,8,0.13232421875,-0.99908447265625,-0.20538330078125
1759854282893,1042017438,14991,9,0.130615234375,-0.99688720703125,-0.20318603515625
1759854282893,1042017438,14991,10,0.125244140625,-0.99713134765625,-0.20416259765625
1759854282893,1042017438,14991,11,0.114013671875,-0.99786376953125,-0.20318603515625
1759854282893,1042017438,14991,12,0.117919921875,-1.00054931640625,-0.21002197265625
1759854282893,1042017438,14991,13,0.119140625,-0.99664306640625,-0.21295166015625
1759854282893,1042017438,14991,14,0.125732421875,-0.99517822265625,-0.22467041015625
1759854282893,1042017438,14991,15,0.122314453125,-0.99542236328125,-0.22711181640625
1759854282893,1042017438,14991,16,0.123291015625,-0.99566650390625,-0.23126220703125
1759854282893,1042017438,14991,17,0.118896484375,-0.99493408203125,-0.23516845703125
1759854282893,1042017438,14991,18,0.12060546875,-0.99444580078125,-0.23590087890625
1759854282893,1042017438,14991,19,0.116943359375,-0.99395751953125,-0.23516845703125
1759854282893,1042017438,14991,20,0.116943359375,-0.98809814453125,-0.23370361328125
1759854282893,1042017438,14991,21,0.1171875,-0.99444580078125,-0.23712158203125
1759854282893,1042017438,14991,22,0.12939453125,-0.99444580078125,-0.24053955078125
1759854282893,1042017438,14991,23,0.123046875,-0.99224853515625,-0.23883056640625
1759854282893,1042017438,14991,24,0.119873046875,-0.99249267578125,-0.23712158203125
1759854282893,1042017438,14991,25,0.119140625,-0.99542236328125,-0.22833251953125
1759854282893,1042017438,14991,26,0.116455078125,-0.99346923828125,-0.22857666015625
1759854282893,1042017438,14991,27,0.11767578125,-1.00128173828125,-0.21392822265625
1759854282893,1042017438,14991,28,0.1201171875,-0.99981689453125,-0.22076416015625
1759854282893,1042017438,14991,29,0.117431640625,-0.99639892578125,-0.21295166015625
1759854282893,1042017438,14991,30,0.1142578125,-0.99884033203125,-0.21319580078125
1759854282893,1042017438,14991,31,0.115478515625,-1.00518798828125,-0.20343017578125
1759854285413,1042019951,14992,0,0.115478515625,-1.00030517578125,-0.19952392578125
1759854285413,1042019951,14992,1,0.11181640625,-1.00152587890625,-0.19781494140625
1759854285413,1042019951,14992,2,0.10693359375,-0.98956298828125,-0.20025634765625
1759854285413,1042019951,14992,3,0.11181640625,-0.97100830078125,-0.21343994140625
1759854285413,1042019951,14992,4,0.115234375,-0.99151611328125,-0.20831298828125
1759854285413,1042019951,14992,5,0.142822265625,-0.99884033203125,-0.22100830078125
1759854285413,1042019951,14992,6,0.1474609375,-1.01177978515625,-0.22589111328125
1759854285413,1042019951,14992,7,0.155029296875,-1.00982666015625,-0.21954345703125
1759854285413,1042019951,14992,8,0.152099609375,-1.00054931640625,-0.20880126953125
1759854285413,1042019951,14992,9,0.151611328125,-0.99078369140625,-0.22198486328125
1759854285413,1042019951,14992,10,0.15478515625,-0.98956298828125,-0.22100830078125
1759854285413,1042019951,14992,11,0.153076171875,-0.98638916015625,-0.22637939453125
1759854285413,1042019951,14992,12,0.151123046875,-0.98956298828125,-0.22467041015625
1759854285413,1042019951,14992,13,0.1630859375,-0.98931884765625,-0.23052978515625
1759854285413,1042019951,14992,14,0.165283203125,-0.98858642578125,-0.23370361328125
1759854285413,1042019951,14992,15,0.17236328125,-0.98638916015625,-0.23541259765625
1759854285413,1042019951,14992,16,0.171142578125,-0.98419189453125,-0.23883056640625
1759854285413,1042019951,14992,17,0.163818359375,-0.98199462890625,-0.24420166015625
1759854285413,1042019951,14992,18,0.1650390625,-0.98516845703125,-0.24810791015625
1759854285413,1042019951,14992,19,0.1630859375,-0.98394775390625,-0.24884033203125
1759854285413,1042019951,14992,20,0.169677734375,-0.98077392578125,-0.25738525390625
1759854285413,1042019951,14992,21,0.15771484375,-0.98614501953125,-0.24713134765625
1759854285413,1042019951,14992,22,0.159423828125,-0.97833251953125,-0.26226806640625
1759854285413,1042019951,14992,23,0.16015625,-0.97906494140625,-0.26910400390625
1759854285413,1042019951,14992,24,0.156005859375,-0.97784423828125,-0.26910400390625
1759854285413,1042019951,14992,25,0.16064453125,-0.98175048828125,-0.26153564453125
1759854285413,1042019951,14992,26,0.15966796875,-0.98223876953125,-0.26373291015625
1759854285413,1042019951,14992,27,0.159423828125,-0.98101806640625,-0.26373291015625
1759854285413,1042019951,14992,28,0.165771484375,-0.98345947265625,-0.26373291015625
1759854285413,1042019951,14992,29,0.15966796875,-0.97735595703125,-0.26544189453125
1759854285413,1042019951,14992,30,0.16259765625,-0.97808837890625,-0.27032470703125
1759854285413,1042019951,14992,31,0.163818359375,-0.97906494140625,-0.26519775390625
1759854287934,1042022470,14993,0,0.16259765625,-0.98004150390625,-0.26397705078125
1759854287934,1042022470,14993,1,0.16259765625,-0.97784423828125,-0.26275634765625
1759854287934,1042022470,14993,2,0.159423828125,-0.97930908203125,-0.26300048828125
1759854287934,1042022470,14993,3,0.160888671875,-0.98468017578125,-0.26007080078125
1759854287934,1042022470,14993,4,0.1591796875,-0.98345947265625,-0.25860595703125
1759854287934,1042022470,14993,5,0.158935546875,-0.98028564453125,-0.25592041015625
1759854287934,1042022470,14993,6,0.156982421875,-0.98468017578125,-0.24542236328125
1759854287934,1042022470,14993,7,0.15869140625,-0.98931884765625,-0.24151611328125
1759854287934,1042022470,14993,8,0.15869140625,-0.98614501953125,-0.23760986328125
1759854287934,1042022470,14993,9,0.160400390625,-0.98541259765625,-0.23126220703125
1759854287934,1042022470,14993,10,0.159423828125,-0.98638916015625,-0.23150634765625
1759854287934,1042022470,14993,11,0.15869140625,-0.98858642578125,-0.22613525390625
1759854287934,1042022470,14993,12,0.158447265625,-0.98980712890625,-0.22198486328125
1759854287934,1042022470,14993,13,0.16015625,-0.99078369140625,-0.22125244140625
1759854287934,1042022470,14993,14,0.159423828125,-0.98883056640625,-0.22467041015625
1759854287934,1042022470,14993,15,0.159423828125,-0.98687744140625,-0.22003173828125
1759854287934,1042022470,14993,16,0.147216796875,-0.98956298828125,-0.21124267578125
1759854287934,1042022470,14993,17,0.15478515625,-1.00030517578125,-0.21978759765625
1759854287934,1042022470,14993,18,0.170166015625,-0.98883056640625,-0.23443603515625
1759854287934,1042022470,14993,19,0.164306640625,-0.97515869140625,-0.23736572265625
1759854287934,1042022470,14993,20,0.154052734375,-0.98541259765625,-0.23663330078125
1759854287934,1042022470,14993,21,0.15283203125,-0.99322509765625,-0.23468017578125
1759854287934,1042022470,14993,22,0.152099609375,-0.98614501953125,-0.23321533203125
1759854287934,1042022470,14993,23,0.165771484375,-0.99005126953125,-0.23052978515625
1759854287934,1042022470,14993,24,0.16552734375,-0.98614501953125,-0.23712158203125
1759854287934,1042022470,14993,25,0.15869140625,-0.98297119140625,-0.24005126953125
1759854287934,1042022470,14993,26,0.1591796875,-0.98663330078125,-0.24176025390625
1759854287934,1042022470,14993,27,0.1611328125,-0.98345947265625,-0.24420166015625
1759854287934,1042022470,14993,28,0.1669921875,-0.98419189453125,-0.24420166015625
1759854287934,1042022470,14993,29,0.16552734375,-0.98297119140625,-0.23956298828125
1759854287934,1042022470,14993,30,0.1640625,-0.98345947265625,-0.24420166015625
1759854287934,1042022470,14993,31,0.162841796875,-0.98468017578125,-0.23883056640625
1759854290453,1042024989,14994,0,0.163818359375,-0.98150634765625,-0.24664306640625
1759854290453,1042024989,14994,1,0.1650390625,-0.98321533203125,-0.24859619140625
1759854290453,1042024989,14994,2,0.162109375,-0.98077392578125,-0.25030517578125
1759854290453,1042024989,14994,3,0.1591796875,-0.98419189453125,-0.24835205078125
1759854290453,1042024989,14994,4,0.165771484375,-0.98028564453125,-0.25762939453125
1759854290453,1042024989,14994,5,0.170654296875,-0.98077392578125,-0.25689697265625
1759854290453,1042024989,14994,6,0.165771484375,-0.97906494140625,-0.25885009765625
1759854290453,1042024989,14994,7,0.168212890625,-0.98028564453125,-0.26226806640625
1759854290453,1042024989,14994,8,0.161865234375,-0.98199462890625,-0.25665283203125
1759854290453,1042024989,14994,9,0.166748046875,-0.98199462890625,-0.25958251953125
1759854290453,1042024989,14994,10,0.170166015625,-0.97760009765625,-0.25885009765625
1759854290453,1042024989,14994,11,0.168212890625,-0.97540283203125,-0.26324462890625
1759854290453,1042024989,14994,12,0.173095703125,-0.97784423828125,-0.26739501953125
1759854290453,1042024989,14994,13,0.1669921875,-0.97564697265625,-0.26861572265625
1759854290453,1042024989,14994,14,0.1650390625,-0.98223876953125,-0.26080322265625
1759854290453,1042024989,14994,15,0.165771484375,-0.97930908203125,-0.26446533203125
1759854290453,1042024989,14994,16,0.159912109375,-0.97735595703125,-0.25933837890625
1759854290453,1042024989,14994,17,0.16259765625,-0.98516845703125,-0.26031494140625
1759854290453,1042024989,14994,18,0.159423828125,-0.98394775390625,-0.25445556640625
1759854290453,1042024989,14994,19,0.166015625,-0.98419189453125,-0.24859619140625
1759854290453,1042024989,14994,20,0.16552734375,-0.98028564453125,-0.25201416015625
1759854290453,1042024989,14994,21,0.163818359375,-0.98590087890625,-0.24224853515625
1759854290453,1042024989,14994,22,0.1640625,-0.98468017578125,-0.24322509765625
1759854290453,1042024989,14994,23,0.1611328125,-0.98419189453125,-0.23785400390625
1759854290453,1042024989,14994,24,0.16162109375,-0.98785400390625,-0.22955322265625
1759854290453,1042024989,14994,25,0.160400390625,-0.98883056640625,-0.22418212890625
1759854290453,1042024989,14994,26,0.163818359375,-0.98980712890625,-0.22686767578125
1759854290453,1042024989,14994,27,0.1650390625,-0.98712158203125,-0.22198486328125
1759854290453,1042024989,14994,28,0.162353515625,-0.98907470703125,-0.22344970703125
1759854290453,1042024989,14994,29,0.160400390625,-0.98492431640625,-0.22540283203125
1759854290453,1042024989,14994,30,0.165771484375,-0.98736572265625,-0.22662353515625
1759854290453,1042024989,14994,31,0.16650390625,-0.98443603515625,-0.22369384765625
1759854292969,1042027508,14995,0,0.16748046875,-0.98858642578125,-0.22735595703125
1759854292969,1042027508,14995,1,0.1708984375,-0.98980712890625,-0.23175048828125
1759854292969,1042027508,14995,2,0.165283203125,-0.98516845703125,-0.23345947265625
1759854292969,1042027508,14995,3,0.16259765625,-0.98638916015625,-0.23419189453125
1759854292969,1042027508,14995,4,0.1689453125,-0.98468017578125,-0.23687744140625
1759854292969,1042027508,14995,5,0.170654296875,-0.98321533203125,-0.23834228515625
1759854292969,1042027508,14995,6,0.173583984375,-0.98468017578125,-0.24371337890625
1759854292969,1042027508,14995,7,0.172607421875,-0.98175048828125,-0.24371337890625
1759854292969,1042027508,14995,8,0.173583984375,-0.98272705078125,-0.24859619140625
1759854292969,1042027508,14995,9,0.1689453125,-0.98150634765625,-0.24981689453125
1759854292969,1042027508,14995,10,0.169189453125,-0.98297119140625,-0.24444580078125
1759854292969,1042027508,14995,11,0.171142578125,-0.98077392578125,-0.24835205078125
1759854292969,1042027508,14995,12,0.172607421875,-0.98004150390625,-0.24908447265625
1759854292969,1042027508,14995,13,0.173828125,-0.97711181640625,-0.24859619140625
1759854292969,1042027508,14995,14,0.171630859375,-0.97906494140625,-0.25054931640625
1759854292969,1042027508,14995,15,0.173583984375,-0.98175048828125,-0.24981689453125
1759854292969,1042027508,14995,16,0.173095703125,-0.97833251953125,-0.25592041015625
1759854292969,1042027508,14995,17,0.1728515625,-0.98272705078125,-0.25469970703125
1759854292969,1042027508,14995,18,0.173095703125,-0.98199462890625,-0.25250244140625
1759854292969,1042027508,14995,19,0.176513671875,-0.98419189453125,-0.25665283203125
1759854292969,1042027508,14995,20,0.175048828125,-0.97906494140625,-0.25396728515625
1759854292969,1042027508,14995,21,0.175537109375,-0.97760009765625,-0.25543212890625
1759854292969,1042027508,14995,22,0.170166015625,-0.97686767578125,-0.25494384765625
1759854292969,1042027508,14995,23,0.168701171875,-0.98004150390625,-0.25665283203125
1759854292969,1042027508,14995,24,0.171630859375,-0.98223876953125,-0.25250244140625
1759854292969,1042027508,14995,25,0.17529296875,-0.97930908203125,-0.25933837890625
1759854292969,1042027508,14995,26,0.171142578125,-0.98443603515625,-0.25372314453125
1759854292969,1042027508,14995,27,0.17236328125,-0.98345947265625,-0.25543212890625
1759854292969,1042027508,14995,28,0.169677734375,-0.97857666015625,-0.25592041015625
1759854292969,1042027508,14995,29,0.16748046875,-0.97613525390625,-0.25103759765625
1759854292969,1042027508,14995,30,0.167236328125,-0.98638916015625,-0.24346923828125
1759854292969,1042027508,14995,31,0.170166015625,-0.98516845703125,-0.24151611328125
1759854295495,1042030027,14996,0,0.173095703125,-0.98223876953125,-0.24176025390625
1759854295495,1042030027,14996,1,0.172119140625,-0.98492431640625,-0.23687744140625
1759854295495,1042030027,14996,2,0.16748046875,-0.98834228515625,-0.23199462890625
1759854295495,1042030027,14996,3,0.166259765625,-0.98468017578125,-0.22930908203125
1759854295495,1042030027,14996,4,0.171142578125,-0.98663330078125,-0.22369384765625
1759854295495,1042030027,14996,5,0.171875,-0.98883056640625,-0.22125244140625
1759854295495,1042030027,14996,6,0.1669921875,-0.98419189453125,-0.22442626953125
1759854295495,1042030027,14996,7,0.1611328125,-0.98858642578125,-0.22003173828125
1759854295495,1042030027,14996,8,0.160888671875,-0.99322509765625,-0.21954345703125
1759854295495,1042030027,14996,9,0.166259765625,-0.98663330078125,-0.22222900390625
1759854295495,1042030027,14996,10,0.16455078125,-0.98614501953125,-0.22540283203125
1759854295495,1042030027,14996,11,0.166748046875,-0.98809814453125,-0.23052978515625
1759854295495,1042030027,14996,12,0.16748046875,-0.99053955078125,-0.23150634765625
1759854295495,1042030027,14996,13,0.165771484375,-0.98663330078125,-0.23370361328125
1759854295495,1042030027,14996,14,0.171875,-0.98516845703125,-0.23736572265625
1759854295495,1042030027,14996,15,0.17041015625,-0.98248291015625,-0.23687744140625
1759854295495,1042030027,14996,16,0.170166015625,-0.98516845703125,-0.24005126953125
1759854295495,1042030027,14996,17,0.1708984375,-0.98541259765625,-0.23907470703125
1759854295495,1042030027,14996,18,0.17041015625,-0.98419189453125,-0.24176025390625
1759854295495,1042030027,14996,19,0.170654296875,-0.97979736328125,-0.24273681640625
1759854295495,1042030027,14996,20,0.170654296875,-0.98297119140625,-0.24908447265625
1759854295495,1042030027,14996,21,0.169189453125,-0.98419189453125,-0.24713134765625
1759854295495,1042030027,14996,22,0.166748046875,-0.98687744140625,-0.25177001953125
1759854295495,1042030027,14996,23,0.166259765625,-0.97564697265625,-0.25469970703125
1759854295495,1042030027,14996,24,0.167724609375,-0.98809814453125,-0.24908447265625
1759854295495,1042030027,14996,25,0.169677734375,-0.98590087890625,-0.25665283203125
1759854295495,1042030027,14996,26,0.167724609375,-0.97125244140625,-0.25396728515625
1759854295495,1042030027,14996,27,0.175537109375,-0.97198486328125,-0.26373291015625
1759854295495,1042030027,14996,28,0.17138671875,-0.97344970703125,-0.25958251953125
1759854295495,1042030027,14996,29,0.18505859375,-0.97442626953125,-0.26104736328125
1759854295495,1042030027,14996,30,0.17578125,-0.97198486328125,-0.26055908203125
1759854295495,1042030027,14996,31,0.18798828125,-0.97344970703125,-0.26251220703125
1759854298194,1042032546,14997,0,0.1767578125,-0.98077392578125,-0.26593017578125
1759854298194,1042032546,14997,1,0.173828125,-0.97344970703125,-0.26812744140625
1759854298194,1042032546,14997,2,0.172607421875,-0.97613525390625,-0.26568603515625
1759854298194,1042032546,14997,3,0.1591796875,-0.98516845703125,-0.25738525390625
1759854298194,1042032546,14997,4,0.150146484375,-1.00372314453125,-0.25079345703125
1759854298194,1042032546,14997,5,0.15625,-0.99444580078125,-0.26593017578125
1759854298194,1042032546,14997,6,0.158935546875,-0.98834228515625,-0.26593017578125
1759854298194,1042032546,14997,7,0.1591796875,-0.96636962890625,-0.26300048828125
1759854298194,1042032546,14997,8,0.166259765625,-0.97467041015625,-0.26129150390625
1759854298194,1042032546,14997,9,0.156005859375,-0.95806884765625,-0.25885009765625
1759854298194,1042032546,14997,10,0.170166015625,-0.97222900390625,-0.26519775390625
1759854298194,1042032546,14997,11,0.169189453125,-0.97662353515625,-0.26300048828125
1759854298194,1042032546,14997,12,0.15576171875,-0.98590087890625,-0.25299072265625
1759854298194,1042032546,14997,13,0.15087890625,-0.98223876953125,-0.25054931640625
1759854298194,1042032546,14997,14,0.14453125,-0.98541259765625,-0.25518798828125
1759854298194,1042032546,14997,15,0.140869140625,-0.98687744140625,-0.25543212890625
1759854298194,1042032546,14997,16,0.137939453125,-0.98126220703125,-0.25860595703125
1759854298194,1042032546,14997,17,0.14306640625,-0.98516845703125,-0.26080322265625
1759854298194,1042032546,14997,18,0.14306640625,-0.98492431640625,-0.25885009765625
1759854298194,1042032546,14997,19,0.138916015625,-0.98248291015625,-0.25201416015625
1759854298194,1042032546,14997,20,0.1376953125,-0.98858642578125,-0.24835205078125
1759854298194,1042032546,14997,21,0.141357421875,-0.98809814453125,-0.25372314453125
1759854298194,1042032546,14997,22,0.13818359375,-0.98883056640625,-0.24395751953125
1759854298194,1042032546,14997,23,0.140869140625,-0.99444580078125,-0.23419189453125
1759854298194,1042032546,14997,24,0.140869140625,-0.99322509765625,-0.23590087890625
1759854298194,1042032546,14997,25,0.1455078125,-0.99346923828125,-0.23052978515625
1759854298194,1042032546,14997,26,0.13671875,-0.99224853515625,-0.21466064453125
1759854298194,1042032546,14997,27,0.13916015625,-0.99639892578125,-0.20928955078125
1759854298194,1042032546,14997,28,0.136474609375,-0.99835205078125,-0.20294189453125
1759854298194,1042032546,14997,29,0.1376953125,-0.99664306640625,-0.20245361328125
1759854298194,1042032546,14997,30,0.13427734375,-0.99493408203125,-0.20025634765625
1759854298194,1042032546,14997,31,0.135498046875,-1.00152587890625,-0.19854736328125
