receivedPhoneTimestamp,respeckTimestamp,packetSeqNum,sampleSeqNum,accelX,accelY,accelZ
1688369340273,14332230,5483,15,-0.900634765625,0.04827880859375,-0.54058837890625
1688369340273,14332230,5483,16,-0.90478515625,0.04583740234375,-0.53692626953125
1688369340273,14332230,5483,17,-0.904296875,0.04559326171875,-0.53472900390625
1688369340273,14332230,5483,18,-0.904296875,0.04730224609375,-0.53424072265625
1688369340273,14332230,5483,19,-0.904541015625,0.04510498046875,-0.53106689453125
1688369340273,14332230,5483,20,-0.90625,0.04876708984375,-0.53106689453125
1688369340273,14332230,5483,21,-0.906005859375,0.04925537109375,-0.53057861328125
1688369340273,14332230,5483,22,-0.905517578125,0.04779052734375,-0.52886962890625
1688369340273,14332230,5483,23,-0.91015625,0.05291748046875,-0.53009033203125
1688369340273,14332230,5483,24,-0.90380859375,0.04779052734375,-0.52984619140625
1688369340273,14332230,5483,25,-0.907470703125,0.05584716796875,-0.52569580078125
1688369340273,14332230,5483,26,-0.909912109375,0.05218505859375,-0.52154541015625
1688369340273,14332230,5483,27,-0.90966796875,0.05389404296875,-0.52252197265625
1688369340273,14332230,5483,28,-0.9111328125,0.05072021484375,-0.51861572265625
1688369340273,14332230,5483,29,-0.912109375,0.05340576171875,-0.52032470703125
1688369340273,14332230,5483,30,-0.914794921875,0.05438232421875,-0.51495361328125
1688369340273,14332230,5483,31,-0.910888671875,0.05267333984375,-0.51715087890625
1688369342807,14334816,5484,0,-0.914306640625,0.05389404296875,-0.51153564453125
1688369342807,14334816,5484,1,-0.916748046875,0.05218505859375,-0.50738525390625
1688369342807,14334816,5484,2,-0.9130859375,0.05267333984375,-0.50982666015625
1688369342807,14334816,5484,3,-0.919189453125,0.05657958984375,-0.50494384765625
1688369342807,14334816,5484,4,-0.915283203125,0.05438232421875,-0.51177978515625
1688369342807,14334816,5484,5,-0.9189453125,0.05902099609375,-0.50567626953125
1688369342807,14334816,5484,6,-0.920166015625,0.05706787109375,-0.50518798828125
1688369342807,14334816,5484,7,-0.91748046875,0.05780029296875,-0.50689697265625
1688369342807,14334816,5484,8,-0.919921875,0.05535888671875,-0.50592041015625
1688369342807,14334816,5484,9,-0.9169921875,0.05804443359375,-0.50469970703125
1688369342807,14334816,5484,10,-0.921630859375,0.05657958984375,-0.50396728515625
1688369342807,14334816,5484,11,-0.924072265625,0.05780029296875,-0.49591064453125
1688369342807,14334816,5484,12,-0.920654296875,0.05340576171875,-0.50494384765625
1688369342807,14334816,5484,13,-0.919189453125,0.05169677734375,-0.50323486328125
1688369342807,14334816,5484,14,-0.917724609375,0.05047607421875,-0.50689697265625
1688369342807,14334816,5484,15,-0.9150390625,0.05096435546875,-0.51129150390625
1688369342807,14334816,5484,16,-0.91650390625,0.04486083984375,-0.51300048828125
1688369342807,14334816,5484,17,-0.9130859375,0.05462646484375,-0.51763916015625
1688369342807,14334816,5484,18,-0.9111328125,0.05096435546875,-0.52032470703125
1688369342807,14334816,5484,19,-0.911376953125,0.05218505859375,-0.52276611328125
1688369342807,14334816,5484,20,-0.90869140625,0.04901123046875,-0.52569580078125
1688369342807,14334816,5484,21,-0.904541015625,0.04779052734375,-0.52813720703125
1688369342807,14334816,5484,22,-0.908203125,0.05096435546875,-0.53375244140625
1688369342807,14334816,5484,23,-0.904052734375,0.04852294921875,-0.53082275390625
1688369342807,14334816,5484,24,-0.90283203125,0.04901123046875,-0.53643798828125
1688369342807,14334816,5484,25,-0.901123046875,0.04974365234375,-0.53619384765625
1688369342807,14334816,5484,26,-0.900634765625,0.04852294921875,-0.53985595703125
1688369342807,14334816,5484,27,-0.894775390625,0.04998779296875,-0.54913330078125
1688369342807,14334816,5484,28,-0.897705078125,0.05169677734375,-0.54693603515625
1688369342807,14334816,5484,29,-0.890869140625,0.04925537109375,-0.55255126953125
1688369342807,14334816,5484,30,-0.89404296875,0.04583740234375,-0.55157470703125
1688369342807,14334816,5484,31,-0.8916015625,0.05316162109375,-0.56158447265625
1688369345538,14337401,5485,0,-0.88916015625,0.04949951171875,-0.56280517578125
1688369345538,14337401,5485,1,-0.88623046875,0.05169677734375,-0.56524658203125
1688369345538,14337401,5485,2,-0.88232421875,0.05023193359375,-0.56719970703125
1688369345538,14337401,5485,3,-0.88427734375,0.04901123046875,-0.56988525390625
1688369345538,14337401,5485,4,-0.88232421875,0.05389404296875,-0.57183837890625
1688369345538,14337401,5485,5,-0.881591796875,0.05023193359375,-0.57574462890625
1688369345538,14337401,5485,6,-0.8798828125,0.04974365234375,-0.57281494140625
1688369345538,14337401,5485,7,-0.879150390625,0.04901123046875,-0.57110595703125
1688369345538,14337401,5485,8,-0.880126953125,0.04827880859375,-0.57452392578125
1688369345538,14337401,5485,9,-0.87939453125,0.04803466796875,-0.57501220703125
1688369345538,14337401,5485,10,-0.880615234375,0.05072021484375,-0.57159423828125
1688369345538,14337401,5485,11,-0.88134765625,0.05096435546875,-0.56915283203125
1688369345538,14337401,5485,12,-0.884521484375,0.04949951171875,-0.56964111328125
1688369345538,14337401,5485,13,-0.884765625,0.04876708984375,-0.57061767578125
1688369345538,14337401,5485,14,-0.883056640625,0.04656982421875,-0.56939697265625
1688369345538,14337401,5485,15,-0.8857421875,0.04559326171875,-0.56817626953125
1688369345538,14337401,5485,16,-0.884765625,0.04852294921875,-0.56134033203125
1688369345538,14337401,5485,17,-0.886962890625,0.04583740234375,-0.56646728515625
1688369345538,14337401,5485,18,-0.8876953125,0.04608154296875,-0.56207275390625
1688369345538,14337401,5485,19,-0.891845703125,0.04534912109375,-0.56036376953125
1688369345538,14337401,5485,20,-0.89208984375,0.04901123046875,-0.55474853515625
1688369345538,14337401,5485,21,-0.892333984375,0.04608154296875,-0.55108642578125
1688369345538,14337401,5485,22,-0.895263671875,0.04534912109375,-0.55206298828125
1688369345538,14337401,5485,23,-0.896728515625,0.04339599609375,-0.54962158203125
1688369345538,14337401,5485,24,-0.893310546875,0.04559326171875,-0.54595947265625
1688369345538,14337401,5485,25,-0.90234375,0.04803466796875,-0.54449462890625
1688369345538,14337401,5485,26,-0.8984375,0.04779052734375,-0.54327392578125
1688369345538,14337401,5485,27,-0.89794921875,0.04534912109375,-0.54083251953125
1688369345538,14337401,5485,28,-0.89990234375,0.04510498046875,-0.54302978515625
1688369345538,14337401,5485,29,-0.902099609375,0.04510498046875,-0.54278564453125
1688369345538,14337401,5485,30,-0.901611328125,0.04876708984375,-0.53692626953125
1688369345538,14337401,5485,31,-0.904541015625,0.04388427734375,-0.53643798828125
1688369347877,14339986,5486,0,-0.904296875,0.04901123046875,-0.53399658203125
1688369347877,14339986,5486,1,-0.905517578125,0.04119873046875,-0.53375244140625
1688369347877,14339986,5486,2,-0.909912109375,0.05120849609375,-0.53082275390625
1688369347877,14339986,5486,3,-0.909912109375,0.04559326171875,-0.52642822265625
1688369347877,14339986,5486,4,-0.9091796875,0.04583740234375,-0.52252197265625
1688369347877,14339986,5486,5,-0.9111328125,0.04681396484375,-0.52227783203125
1688369347877,14339986,5486,6,-0.9091796875,0.04901123046875,-0.52447509765625
1688369347877,14339986,5486,7,-0.908447265625,0.04974365234375,-0.52520751953125
1688369347877,14339986,5486,8,-0.91357421875,0.04632568359375,-0.51910400390625
1688369347877,14339986,5486,9,-0.90966796875,0.04974365234375,-0.52081298828125
1688369347877,14339986,5486,10,-0.907958984375,0.05145263671875,-0.52618408203125
1688369347877,14339986,5486,11,-0.91162109375,0.05169677734375,-0.52154541015625
1688369347877,14339986,5486,12,-0.9091796875,0.05047607421875,-0.52008056640625
1688369347877,14339986,5486,13,-0.913818359375,0.05023193359375,-0.51885986328125
1688369347877,14339986,5486,14,-0.91357421875,0.05194091796875,-0.51934814453125
1688369347877,14339986,5486,15,-0.912841796875,0.05291748046875,-0.51666259765625
1688369347877,14339986,5486,16,-0.912109375,0.04852294921875,-0.51519775390625
1688369347877,14339986,5486,17,-0.91455078125,0.05511474609375,-0.51593017578125
1688369347877,14339986,5486,18,-0.91259765625,0.05267333984375,-0.50909423828125
1688369347877,14339986,5486,19,-0.915771484375,0.05145263671875,-0.51446533203125
1688369347877,14339986,5486,20,-0.91357421875,0.05194091796875,-0.51544189453125
1688369347877,14339986,5486,21,-0.912109375,0.04974365234375,-0.51641845703125
1688369347877,14339986,5486,22,-0.912109375,0.04925537109375,-0.52081298828125
1688369347877,14339986,5486,23,-0.909423828125,0.04803466796875,-0.51812744140625
1688369347877,14339986,5486,24,-0.908203125,0.04901123046875,-0.52447509765625
1688369347877,14339986,5486,25,-0.908935546875,0.04974365234375,-0.52349853515625
1688369347877,14339986,5486,26,-0.906494140625,0.04827880859375,-0.52886962890625
1688369347877,14339986,5486,27,-0.9052734375,0.04681396484375,-0.53350830078125
1688369347877,14339986,5486,28,-0.906982421875,0.05023193359375,-0.53082275390625
1688369347877,14339986,5486,29,-0.90283203125,0.04388427734375,-0.53375244140625
1688369347877,14339986,5486,30,-0.899658203125,0.05340576171875,-0.54180908203125
1688369347877,14339986,5486,31,-0.900634765625,0.04925537109375,-0.54229736328125
1688369350607,14342571,5487,0,-0.895263671875,0.04925537109375,-0.54815673828125
1688369350607,14342571,5487,1,-0.8916015625,0.04437255859375,-0.55548095703125
1688369350607,14342571,5487,2,-0.8896484375,0.04949951171875,-0.55670166015625
1688369350607,14342571,5487,3,-0.891357421875,0.04119873046875,-0.56109619140625
1688369350607,14342571,5487,4,-0.886474609375,0.04632568359375,-0.56207275390625
1688369350607,14342571,5487,5,-0.88671875,0.04779052734375,-0.56768798828125
1688369350607,14342571,5487,6,-0.88623046875,0.04388427734375,-0.56427001953125
1688369350607,14342571,5487,7,-0.88525390625,0.04852294921875,-0.56988525390625
1688369350607,14342571,5487,8,-0.88037109375,0.03973388671875,-0.57232666015625
1688369350607,14342571,5487,9,-0.881103515625,0.04217529296875,-0.57403564453125
1688369350607,14342571,5487,10,-0.880859375,0.04559326171875,-0.57525634765625
1688369350607,14342571,5487,11,-0.879638671875,0.04364013671875,-0.57476806640625
1688369350607,14342571,5487,12,-0.878662109375,0.04266357421875,-0.57696533203125
1688369350607,14342571,5487,13,-0.875244140625,0.04412841796875,-0.57989501953125
1688369350607,14342571,5487,14,-0.880859375,0.04290771484375,-0.57843017578125
1688369350607,14342571,5487,15,-0.88134765625,0.04486083984375,-0.57427978515625
1688369350607,14342571,5487,16,-0.881103515625,0.04290771484375,-0.57305908203125
1688369350607,14342571,5487,17,-0.881103515625,0.04315185546875,-0.57305908203125
1688369350607,14342571,5487,18,-0.885498046875,0.04241943359375,-0.56817626953125
1688369350607,14342571,5487,19,-0.885498046875,0.04364013671875,-0.56890869140625
1688369350607,14342571,5487,20,-0.889404296875,0.04095458984375,-0.56207275390625
1688369350607,14342571,5487,21,-0.8857421875,0.04364013671875,-0.56280517578125
1688369350607,14342571,5487,22,-0.891357421875,0.04217529296875,-0.55621337890625
1688369350607,14342571,5487,23,-0.890869140625,0.04071044921875,-0.55987548828125
1688369350607,14342571,5487,24,-0.889892578125,0.04168701171875,-0.55718994140625
1688369350607,14342571,5487,25,-0.89013671875,0.04046630859375,-0.55450439453125
1688369350607,14342571,5487,26,-0.89013671875,0.04290771484375,-0.55572509765625
1688369350607,14342571,5487,27,-0.890380859375,0.04241943359375,-0.55401611328125
1688369350607,14342571,5487,28,-0.89599609375,0.03997802734375,-0.55426025390625
1688369350607,14342571,5487,29,-0.892578125,0.04144287109375,-0.55206298828125
1688369350607,14342571,5487,30,-0.896728515625,0.04364013671875,-0.55181884765625
1688369350607,14342571,5487,31,-0.894287109375,0.03826904296875,-0.54986572265625
1688369353337,14345156,5488,0,-0.8994140625,0.04193115234375,-0.54547119140625
1688369353337,14345156,5488,1,-0.900634765625,0.04266357421875,-0.53936767578125
1688369353337,14345156,5488,2,-0.896728515625,0.04364013671875,-0.54180908203125
1688369353337,14345156,5488,3,-0.899658203125,0.04119873046875,-0.54327392578125
1688369353337,14345156,5488,4,-0.90283203125,0.04022216796875,-0.53985595703125
1688369353337,14345156,5488,5,-0.901123046875,0.04510498046875,-0.53521728515625
1688369353337,14345156,5488,6,-0.904541015625,0.04095458984375,-0.53375244140625
1688369353337,14345156,5488,7,-0.90673828125,0.04876708984375,-0.53594970703125
1688369353337,14345156,5488,8,-0.90625,0.04681396484375,-0.53204345703125
1688369353337,14345156,5488,9,-0.90576171875,0.04388427734375,-0.53106689453125
1688369353337,14345156,5488,10,-0.908935546875,0.04412841796875,-0.52935791015625
1688369353337,14345156,5488,11,-0.907470703125,0.04827880859375,-0.53033447265625
1688369353337,14345156,5488,12,-0.90869140625,0.04754638671875,-0.53082275390625
1688369353337,14345156,5488,13,-0.907958984375,0.04852294921875,-0.52545166015625
1688369353337,14345156,5488,14,-0.907470703125,0.04852294921875,-0.52374267578125
1688369353337,14345156,5488,15,-0.90771484375,0.04901123046875,-0.52008056640625
1688369353337,14345156,5488,16,-0.908447265625,0.04730224609375,-0.52276611328125
1688369353337,14345156,5488,17,-0.912109375,0.04852294921875,-0.52178955078125
1688369353337,14345156,5488,18,-0.9111328125,0.04974365234375,-0.52301025390625
1688369353337,14345156,5488,19,-0.910888671875,0.05072021484375,-0.51617431640625
1688369353337,14345156,5488,20,-0.906494140625,0.05120849609375,-0.52691650390625
1688369353337,14345156,5488,21,-0.908447265625,0.04730224609375,-0.52349853515625
1688369353337,14345156,5488,22,-0.908447265625,0.04681396484375,-0.52276611328125
1688369353337,14345156,5488,23,-0.91162109375,0.04656982421875,-0.52764892578125
1688369353337,14345156,5488,24,-0.911376953125,0.04925537109375,-0.51910400390625
1688369353337,14345156,5488,25,-0.9091796875,0.04632568359375,-0.52227783203125
1688369353337,14345156,5488,26,-0.91162109375,0.04656982421875,-0.51959228515625
1688369353337,14345156,5488,27,-0.914794921875,0.04168701171875,-0.51666259765625
1688369353337,14345156,5488,28,-0.90869140625,0.04608154296875,-0.52764892578125
1688369353337,14345156,5488,29,-0.908203125,0.04217529296875,-0.53253173828125
1688369353337,14345156,5488,30,-0.90771484375,0.04364013671875,-0.53375244140625
1688369353337,14345156,5488,31,-0.90576171875,0.04486083984375,-0.53424072265625
1688369355872,14347741,5489,0,-0.903076171875,0.04608154296875,-0.53619384765625
1688369355872,14347741,5489,1,-0.90283203125,0.04071044921875,-0.53594970703125
1688369355872,14347741,5489,2,-0.8984375,0.04437255859375,-0.54083251953125
1688369355872,14347741,5489,3,-0.900146484375,0.04656982421875,-0.54400634765625
1688369355872,14347741,5489,4,-0.900146484375,0.04412841796875,-0.54473876953125
1688369355872,14347741,5489,5,-0.896240234375,0.04364013671875,-0.54766845703125
1688369355872,14347741,5489,6,-0.89599609375,0.04266357421875,-0.54620361328125
1688369355872,14347741,5489,7,-0.896240234375,0.04486083984375,-0.54766845703125
1688369355872,14347741,5489,8,-0.891845703125,0.04364013671875,-0.55133056640625
1688369355872,14347741,5489,9,-0.89306640625,0.04754638671875,-0.55865478515625
1688369355872,14347741,5489,10,-0.892333984375,0.04315185546875,-0.56304931640625
1688369355872,14347741,5489,11,-0.891357421875,0.04656982421875,-0.55401611328125
1688369355872,14347741,5489,12,-0.891357421875,0.04779052734375,-0.55572509765625
1688369355872,14347741,5489,13,-0.887939453125,0.04754638671875,-0.55963134765625
1688369355872,14347741,5489,14,-0.888427734375,0.04534912109375,-0.55938720703125
1688369355872,14347741,5489,15,-0.888427734375,0.04803466796875,-0.56451416015625
1688369355872,14347741,5489,16,-0.882568359375,0.05340576171875,-0.56573486328125
1688369355872,14347741,5489,17,-0.889404296875,0.04974365234375,-0.56695556640625
1688369355872,14347741,5489,18,-0.881591796875,0.04949951171875,-0.56793212890625
1688369355872,14347741,5489,19,-0.886474609375,0.05120849609375,-0.56573486328125
1688369355872,14347741,5489,20,-0.88525390625,0.04876708984375,-0.57208251953125
1688369355872,14347741,5489,21,-0.88232421875,0.05047607421875,-0.56573486328125
1688369355872,14347741,5489,22,-0.88623046875,0.04461669921875,-0.56597900390625
1688369355872,14347741,5489,23,-0.884765625,0.05145263671875,-0.56256103515625
1688369355872,14347741,5489,24,-0.886962890625,0.04974365234375,-0.56256103515625
1688369355872,14347741,5489,25,-0.887451171875,0.05120849609375,-0.56549072265625
1688369355872,14347741,5489,26,-0.891845703125,0.04852294921875,-0.55645751953125
1688369355872,14347741,5489,27,-0.89111328125,0.05145263671875,-0.55572509765625
1688369355872,14347741,5489,28,-0.892333984375,0.04803466796875,-0.55474853515625
1688369355872,14347741,5489,29,-0.890380859375,0.05242919921875,-0.55035400390625
1688369355872,14347741,5489,30,-0.890625,0.04437255859375,-0.55670166015625
1688369355872,14347741,5489,31,-0.891357421875,0.05145263671875,-0.55718994140625
1688369358406,14350326,5490,0,-0.895751953125,0.04998779296875,-0.54937744140625
1688369358406,14350326,5490,1,-0.895751953125,0.05120849609375,-0.55133056640625
1688369358406,14350326,5490,2,-0.895263671875,0.05047607421875,-0.54937744140625
1688369358406,14350326,5490,3,-0.895751953125,0.04901123046875,-0.54913330078125
1688369358406,14350326,5490,4,-0.8984375,0.05072021484375,-0.54010009765625
1688369358406,14350326,5490,5,-0.8984375,0.05096435546875,-0.54058837890625
1688369358406,14350326,5490,6,-0.8994140625,0.05169677734375,-0.54034423828125
1688369358406,14350326,5490,7,-0.898193359375,0.05023193359375,-0.54327392578125
1688369358406,14350326,5490,8,-0.902099609375,0.04974365234375,-0.54034423828125
1688369358406,14350326,5490,9,-0.9013671875,0.04998779296875,-0.53033447265625
1688369358406,14350326,5490,10,-0.904541015625,0.05438232421875,-0.53448486328125
1688369358406,14350326,5490,11,-0.9033203125,0.04852294921875,-0.53326416015625
1688369358406,14350326,5490,12,-0.90576171875,0.04998779296875,-0.53106689453125
1688369358406,14350326,5490,13,-0.904296875,0.05120849609375,-0.53057861328125
1688369358406,14350326,5490,14,-0.9072265625,0.05120849609375,-0.52984619140625
1688369358406,14350326,5490,15,-0.905029296875,0.05462646484375,-0.53204345703125
1688369358406,14350326,5490,16,-0.90673828125,0.05023193359375,-0.52642822265625
1688369358406,14350326,5490,17,-0.907470703125,0.05072021484375,-0.52545166015625
1688369358406,14350326,5490,18,-0.908935546875,0.05389404296875,-0.52642822265625
1688369358406,14350326,5490,19,-0.908447265625,0.05535888671875,-0.52203369140625
1688369358406,14350326,5490,20,-0.90771484375,0.05340576171875,-0.52325439453125
1688369358406,14350326,5490,21,-0.907470703125,0.05316162109375,-0.52252197265625
1688369358406,14350326,5490,22,-0.908935546875,0.05169677734375,-0.51885986328125
1688369358406,14350326,5490,23,-0.911376953125,0.05511474609375,-0.52349853515625
1688369358406,14350326,5490,24,-0.909912109375,0.05218505859375,-0.52545166015625
1688369358406,14350326,5490,25,-0.911376953125,0.05462646484375,-0.51934814453125
1688369358406,14350326,5490,26,-0.912841796875,0.05242919921875,-0.51568603515625
1688369358406,14350326,5490,27,-0.91064453125,0.05316162109375,-0.51373291015625
1688369358406,14350326,5490,28,-0.913330078125,0.05487060546875,-0.51153564453125
1688369358406,14350326,5490,29,-0.9091796875,0.05267333984375,-0.51812744140625
1688369358406,14350326,5490,30,-0.91259765625,0.04974365234375,-0.52227783203125
1688369358406,14350326,5490,31,-0.908447265625,0.04583740234375,-0.52789306640625
1688369360942,14352912,5491,0,-0.91064453125,0.05047607421875,-0.52545166015625
1688369360942,14352912,5491,1,-0.90576171875,0.04730224609375,-0.53179931640625
1688369360942,14352912,5491,2,-0.90673828125,0.04656982421875,-0.52740478515625
1688369360942,14352912,5491,3,-0.903564453125,0.04510498046875,-0.53375244140625
1688369360942,14352912,5491,4,-0.904541015625,0.04534912109375,-0.53668212890625
1688369360942,14352912,5491,5,-0.90087890625,0.04608154296875,-0.54254150390625
1688369360942,14352912,5491,6,-0.8974609375,0.04534912109375,-0.53570556640625
1688369360942,14352912,5491,7,-0.902587890625,0.04388427734375,-0.54034423828125
1688369360942,14352912,5491,8,-0.897705078125,0.05242919921875,-0.54669189453125
1688369360942,14352912,5491,9,-0.893798828125,0.04827880859375,-0.54791259765625
1688369360942,14352912,5491,10,-0.898681640625,0.04656982421875,-0.54644775390625
1688369360942,14352912,5491,11,-0.895751953125,0.04632568359375,-0.54693603515625
1688369360942,14352912,5491,12,-0.8955078125,0.05023193359375,-0.54986572265625
1688369360942,14352912,5491,13,-0.89111328125,0.04510498046875,-0.55059814453125
1688369360942,14352912,5491,14,-0.889892578125,0.04901123046875,-0.55523681640625
1688369360942,14352912,5491,15,-0.888916015625,0.05120849609375,-0.55963134765625
1688369360942,14352912,5491,16,-0.886962890625,0.05072021484375,-0.55987548828125
1688369360942,14352912,5491,17,-0.885498046875,0.04901123046875,-0.56622314453125
1688369360942,14352912,5491,18,-0.8876953125,0.04779052734375,-0.56695556640625
1688369360942,14352912,5491,19,-0.88720703125,0.05169677734375,-0.56085205078125
1688369360942,14352912,5491,20,-0.8916015625,0.05145263671875,-0.55816650390625
1688369360942,14352912,5491,21,-0.889892578125,0.04949951171875,-0.55938720703125
1688369360942,14352912,5491,22,-0.89208984375,0.04974365234375,-0.55621337890625
1688369360942,14352912,5491,23,-0.88916015625,0.04925537109375,-0.55987548828125
1688369360942,14352912,5491,24,-0.893310546875,0.04901123046875,-0.55621337890625
1688369360942,14352912,5491,25,-0.894287109375,0.04339599609375,-0.55230712890625
1688369360942,14352912,5491,26,-0.89501953125,0.04681396484375,-0.55035400390625
1688369360942,14352912,5491,27,-0.89453125,0.04583740234375,-0.55010986328125
1688369360942,14352912,5491,28,-0.896240234375,0.04632568359375,-0.55059814453125
1688369360942,14352912,5491,29,-0.896728515625,0.04461669921875,-0.54840087890625
1688369360942,14352912,5491,30,-0.89697265625,0.05023193359375,-0.54669189453125
1688369360942,14352912,5491,31,-0.89892578125,0.04510498046875,-0.54400634765625
1688369363478,14355497,5492,0,-0.9013671875,0.04949951171875,-0.54132080078125
1688369363478,14355497,5492,1,-0.901611328125,0.04949951171875,-0.53814697265625
1688369363478,14355497,5492,2,-0.900634765625,0.04949951171875,-0.53863525390625
1688369363478,14355497,5492,3,-0.904052734375,0.04998779296875,-0.53814697265625
1688369363478,14355497,5492,4,-0.903564453125,0.05194091796875,-0.53399658203125
1688369363478,14355497,5492,5,-0.905029296875,0.04998779296875,-0.53277587890625
1688369363478,14355497,5492,6,-0.904296875,0.04974365234375,-0.53253173828125
1688369363478,14355497,5492,7,-0.90576171875,0.05096435546875,-0.53179931640625
1688369363478,14355497,5492,8,-0.907470703125,0.05120849609375,-0.53033447265625
1688369363478,14355497,5492,9,-0.90380859375,0.05242919921875,-0.52789306640625
1688369363478,14355497,5492,10,-0.907958984375,0.05218505859375,-0.52960205078125
1688369363478,14355497,5492,11,-0.909423828125,0.05413818359375,-0.52545166015625
1688369363478,14355497,5492,12,-0.9072265625,0.05169677734375,-0.52764892578125
1688369363478,14355497,5492,13,-0.908447265625,0.05511474609375,-0.52471923828125
1688369363478,14355497,5492,14,-0.90576171875,0.05364990234375,-0.52520751953125
1688369363478,14355497,5492,15,-0.909423828125,0.05560302734375,-0.52301025390625
1688369363478,14355497,5492,16,-0.907958984375,0.05731201171875,-0.52349853515625
1688369363478,14355497,5492,17,-0.906494140625,0.05242919921875,-0.52349853515625
1688369363478,14355497,5492,18,-0.912353515625,0.05584716796875,-0.52276611328125
1688369363478,14355497,5492,19,-0.912109375,0.05291748046875,-0.52130126953125
1688369363478,14355497,5492,20,-0.908447265625,0.05560302734375,-0.52593994140625
1688369363478,14355497,5492,21,-0.908935546875,0.05389404296875,-0.51861572265625
1688369363478,14355497,5492,22,-0.91015625,0.05487060546875,-0.52081298828125
1688369363478,14355497,5492,23,-0.909912109375,0.05487060546875,-0.52130126953125
1688369363478,14355497,5492,24,-0.912841796875,0.05609130859375,-0.51934814453125
1688369363478,14355497,5492,25,-0.911865234375,0.05609130859375,-0.51861572265625
1688369363478,14355497,5492,26,-0.913818359375,0.05609130859375,-0.51202392578125
1688369363478,14355497,5492,27,-0.911865234375,0.05535888671875,-0.51934814453125
1688369363478,14355497,5492,28,-0.911865234375,0.05218505859375,-0.52203369140625
1688369363478,14355497,5492,29,-0.9091796875,0.05389404296875,-0.52398681640625
1688369363478,14355497,5492,30,-0.908203125,0.05047607421875,-0.52789306640625
1688369363478,14355497,5492,31,-0.908203125,0.04949951171875,-0.52398681640625
1688369366012,14358082,5493,0,-0.904296875,0.04852294921875,-0.52911376953125
1688369366012,14358082,5493,1,-0.906982421875,0.04412841796875,-0.53057861328125
1688369366012,14358082,5493,2,-0.905517578125,0.05194091796875,-0.53643798828125
1688369366012,14358082,5493,3,-0.902099609375,0.04461669921875,-0.53326416015625
1688369366012,14358082,5493,4,-0.901611328125,0.04510498046875,-0.53814697265625
1688369366012,14358082,5493,5,-0.8984375,0.04461669921875,-0.54058837890625
1688369366012,14358082,5493,6,-0.899169921875,0.04998779296875,-0.54351806640625
1688369366012,14358082,5493,7,-0.897216796875,0.04608154296875,-0.54595947265625
1688369366012,14358082,5493,8,-0.895751953125,0.04705810546875,-0.54791259765625
1688369366012,14358082,5493,9,-0.896240234375,0.04803466796875,-0.54620361328125
1688369366012,14358082,5493,10,-0.894287109375,0.04876708984375,-0.54669189453125
1688369366012,14358082,5493,11,-0.8955078125,0.04632568359375,-0.54937744140625
1688369366012,14358082,5493,12,-0.8955078125,0.04656982421875,-0.55279541015625
1688369366012,14358082,5493,13,-0.893798828125,0.04876708984375,-0.55572509765625
1688369366012,14358082,5493,14,-0.890869140625,0.04730224609375,-0.55694580078125
1688369366012,14358082,5493,15,-0.89013671875,0.04925537109375,-0.55792236328125
1688369366012,14358082,5493,16,-0.88720703125,0.05242919921875,-0.56158447265625
1688369366012,14358082,5493,17,-0.886474609375,0.05023193359375,-0.56500244140625
1688369366012,14358082,5493,18,-0.88916015625,0.04754638671875,-0.56231689453125
1688369366012,14358082,5493,19,-0.887451171875,0.04827880859375,-0.55841064453125
1688369366012,14358082,5493,20,-0.89208984375,0.04998779296875,-0.55816650390625
1688369366012,14358082,5493,21,-0.89111328125,0.05096435546875,-0.55596923828125
1688369366012,14358082,5493,22,-0.892333984375,0.04461669921875,-0.54840087890625
1688369366012,14358082,5493,23,-0.894287109375,0.04730224609375,-0.54864501953125
1688369366012,14358082,5493,24,-0.8955078125,0.04632568359375,-0.54815673828125
1688369366012,14358082,5493,25,-0.89697265625,0.04461669921875,-0.54644775390625
1688369366012,14358082,5493,26,-0.896484375,0.04705810546875,-0.54766845703125
1688369366012,14358082,5493,27,-0.898681640625,0.04168701171875,-0.54327392578125
1688369366012,14358082,5493,28,-0.89697265625,0.04779052734375,-0.54669189453125
1688369366012,14358082,5493,29,-0.90087890625,0.04559326171875,-0.54473876953125
1688369366012,14358082,5493,30,-0.90087890625,0.04461669921875,-0.54132080078125
1688369366012,14358082,5493,31,-0.89794921875,0.04241943359375,-0.53839111328125
1688369368744,14360667,5494,0,-0.90283203125,0.04827880859375,-0.53521728515625
1688369368744,14360667,5494,1,-0.9013671875,0.04437255859375,-0.53570556640625
1688369368744,14360667,5494,2,-0.9052734375,0.04608154296875,-0.53399658203125
1688369368744,14360667,5494,3,-0.90771484375,0.04681396484375,-0.53253173828125
1688369368744,14360667,5494,4,-0.9072265625,0.04730224609375,-0.52935791015625
1688369368744,14360667,5494,5,-0.908447265625,0.04852294921875,-0.53106689453125
1688369368744,14360667,5494,6,-0.90869140625,0.04754638671875,-0.52691650390625
1688369368744,14360667,5494,7,-0.906982421875,0.04949951171875,-0.52423095703125
1688369368744,14360667,5494,8,-0.91015625,0.04754638671875,-0.52325439453125
1688369368744,14360667,5494,9,-0.908447265625,0.04876708984375,-0.52423095703125
1688369368744,14360667,5494,10,-0.908203125,0.04827880859375,-0.52301025390625
1688369368744,14360667,5494,11,-0.908447265625,0.04656982421875,-0.52325439453125
1688369368744,14360667,5494,12,-0.906982421875,0.05169677734375,-0.51934814453125
1688369368744,14360667,5494,13,-0.9091796875,0.05316162109375,-0.52154541015625
1688369368744,14360667,5494,14,-0.910400390625,0.05047607421875,-0.51934814453125
1688369368744,14360667,5494,15,-0.91650390625,0.05462646484375,-0.51690673828125
1688369368744,14360667,5494,16,-0.91064453125,0.05194091796875,-0.51739501953125
1688369368744,14360667,5494,17,-0.9140625,0.04998779296875,-0.51715087890625
1688369368744,14360667,5494,18,-0.9140625,0.05169677734375,-0.51470947265625
1688369368744,14360667,5494,19,-0.91845703125,0.05487060546875,-0.51544189453125
1688369368744,14360667,5494,20,-0.9130859375,0.05169677734375,-0.51666259765625
1688369368744,14360667,5494,21,-0.91552734375,0.05145263671875,-0.51251220703125
1688369368744,14360667,5494,22,-0.915283203125,0.05316162109375,-0.50860595703125
1688369368744,14360667,5494,23,-0.91552734375,0.05462646484375,-0.51153564453125
1688369368744,14360667,5494,24,-0.912109375,0.05194091796875,-0.51226806640625
1688369368744,14360667,5494,25,-0.915771484375,0.05218505859375,-0.51007080078125
1688369368744,14360667,5494,26,-0.915771484375,0.05194091796875,-0.51129150390625
1688369368744,14360667,5494,27,-0.91357421875,0.04998779296875,-0.51812744140625
1688369368744,14360667,5494,28,-0.9130859375,0.04827880859375,-0.51519775390625
1688369368744,14360667,5494,29,-0.9111328125,0.04705810546875,-0.51910400390625
1688369368744,14360667,5494,30,-0.911865234375,0.04730224609375,-0.52081298828125
1688369368744,14360667,5494,31,-0.91064453125,0.04461669921875,-0.51983642578125
1688369371471,14363252,5495,0,-0.908447265625,0.04925537109375,-0.52593994140625
1688369371471,14363252,5495,1,-0.90869140625,0.04754638671875,-0.52642822265625
1688369371471,14363252,5495,2,-0.906005859375,0.04437255859375,-0.53179931640625
1688369371471,14363252,5495,3,-0.906494140625,0.04437255859375,-0.53228759765625
1688369371471,14363252,5495,4,-0.90673828125,0.04925537109375,-0.53253173828125
1688369371471,14363252,5495,5,-0.902587890625,0.04461669921875,-0.53448486328125
1688369371471,14363252,5495,6,-0.900146484375,0.04730224609375,-0.53765869140625
1688369371471,14363252,5495,7,-0.899169921875,0.04559326171875,-0.53570556640625
1688369371471,14363252,5495,8,-0.8984375,0.04754638671875,-0.53936767578125
1688369371471,14363252,5495,9,-0.899169921875,0.04461669921875,-0.54205322265625
1688369371471,14363252,5495,10,-0.898193359375,0.04779052734375,-0.54693603515625
1688369371471,14363252,5495,11,-0.895751953125,0.04705810546875,-0.55181884765625
1688369371471,14363252,5495,12,-0.895263671875,0.04827880859375,-0.54766845703125
1688369371471,14363252,5495,13,-0.890625,0.05096435546875,-0.55670166015625
1688369371471,14363252,5495,14,-0.892822265625,0.04803466796875,-0.55181884765625
1688369371471,14363252,5495,15,-0.890869140625,0.04608154296875,-0.55718994140625
1688369371471,14363252,5495,16,-0.886474609375,0.04779052734375,-0.56060791015625
1688369371471,14363252,5495,17,-0.890380859375,0.05218505859375,-0.55621337890625
