receivedPhoneTimestamp,respeckTimestamp,packetSeqNum,sampleSeqNum,accelX,accelY,accelZ
1760037190199,94958226,3099,29,0.88720703125,0.05535888671875,0.21063232421875
1760037190199,94958226,3099,30,0.885986328125,0.05609130859375,0.21453857421875
1760037190199,94958226,3099,31,0.88427734375,0.05950927734375,0.21575927734375
1760037192749,94960799,3100,0,0.88720703125,0.06072998046875,0.21160888671875
1760037192749,94960799,3100,1,0.88720703125,0.05633544921875,0.20819091796875
1760037192749,94960799,3100,2,0.8876953125,0.05584716796875,0.21014404296875
1760037192749,94960799,3100,3,0.88427734375,0.05926513671875,0.20989990234375
1760037192749,94960799,3100,4,0.884765625,0.05364990234375,0.21502685546875
1760037192749,94960799,3100,5,0.8828125,0.05828857421875,0.20892333984375
1760037192749,94960799,3100,6,0.885009765625,0.05657958984375,0.21112060546875
1760037192749,94960799,3100,7,0.886474609375,0.05633544921875,0.20916748046875
1760037192749,94960799,3100,8,0.88720703125,0.05609130859375,0.21112060546875
1760037192749,94960799,3100,9,0.88671875,0.05706787109375,0.21014404296875
1760037192749,94960799,3100,10,0.88525390625,0.05755615234375,0.20867919921875
1760037192749,94960799,3100,11,0.887939453125,0.05609130859375,0.20867919921875
1760037192749,94960799,3100,12,0.88623046875,0.05633544921875,0.20892333984375
1760037192749,94960799,3100,13,0.88525390625,0.05657958984375,0.20867919921875
1760037192749,94960799,3100,14,0.885498046875,0.05145263671875,0.21136474609375
1760037192749,94960799,3100,15,0.88671875,0.05340576171875,0.20892333984375
1760037192749,94960799,3100,16,0.88671875,0.05535888671875,0.21160888671875
1760037192749,94960799,3100,17,0.8876953125,0.05462646484375,0.20867919921875
1760037192749,94960799,3100,18,0.88671875,0.05560302734375,0.20867919921875
1760037192749,94960799,3100,19,0.886962890625,0.05682373046875,0.21356201171875
1760037192749,94960799,3100,20,0.88818359375,0.05413818359375,0.20892333984375
1760037192749,94960799,3100,21,0.88671875,0.05657958984375,0.20721435546875
1760037192749,94960799,3100,22,0.88720703125,0.05487060546875,0.20721435546875
1760037192749,94960799,3100,23,0.88671875,0.05535888671875,0.20989990234375
1760037192749,94960799,3100,24,0.884521484375,0.05364990234375,0.20648193359375
1760037192749,94960799,3100,25,0.88671875,0.05560302734375,0.21185302734375
1760037192749,94960799,3100,26,0.885986328125,0.05682373046875,0.20867919921875
1760037192749,94960799,3100,27,0.887939453125,0.05413818359375,0.20989990234375
1760037192749,94960799,3100,28,0.889404296875,0.05316162109375,0.21356201171875
1760037192749,94960799,3100,29,0.887451171875,0.05731201171875,0.20843505859375
1760037192749,94960799,3100,30,0.887939453125,0.05657958984375,0.21014404296875
1760037192749,94960799,3100,31,0.887451171875,0.05535888671875,0.21038818359375
1760037195300,94963372,3101,0,0.8896484375,0.05389404296875,0.20721435546875
1760037195300,94963372,3101,1,0.8857421875,0.05633544921875,0.20989990234375
1760037195300,94963372,3101,2,0.8837890625,0.05462646484375,0.20550537109375
1760037195300,94963372,3101,3,0.88818359375,0.05291748046875,0.21234130859375
1760037195300,94963372,3101,4,0.885498046875,0.05682373046875,0.20648193359375
1760037195300,94963372,3101,5,0.887939453125,0.05755615234375,0.21038818359375
1760037195300,94963372,3101,6,0.8857421875,0.05316162109375,0.20843505859375
1760037195300,94963372,3101,7,0.88720703125,0.05682373046875,0.21112060546875
1760037195300,94963372,3101,8,0.884521484375,0.05389404296875,0.21112060546875
1760037195300,94963372,3101,9,0.8857421875,0.05511474609375,0.20892333984375
1760037195300,94963372,3101,10,0.885498046875,0.05633544921875,0.20892333984375
1760037195300,94963372,3101,11,0.88623046875,0.05560302734375,0.21136474609375
1760037195300,94963372,3101,12,0.88671875,0.05657958984375,0.20989990234375
1760037195300,94963372,3101,13,0.889892578125,0.05242919921875,0.21063232421875
1760037195300,94963372,3101,14,0.88720703125,0.05657958984375,0.20965576171875
1760037195300,94963372,3101,15,0.888671875,0.05926513671875,0.21063232421875
1760037195300,94963372,3101,16,0.88818359375,0.05535888671875,0.20574951171875
1760037195300,94963372,3101,17,0.887939453125,0.05389404296875,0.21405029296875
1760037195300,94963372,3101,18,0.88427734375,0.05462646484375,0.21038818359375
1760037195300,94963372,3101,19,0.8876953125,0.05755615234375,0.20989990234375
1760037195300,94963372,3101,20,0.888671875,0.05657958984375,0.20697021484375
1760037195300,94963372,3101,21,0.8857421875,0.05657958984375,0.21282958984375
1760037195300,94963372,3101,22,0.88671875,0.05706787109375,0.20965576171875
1760037195300,94963372,3101,23,0.888427734375,0.05364990234375,0.21405029296875
1760037195300,94963372,3101,24,0.886962890625,0.05682373046875,0.20745849609375
1760037195300,94963372,3101,25,0.886962890625,0.05731201171875,0.21258544921875
1760037195300,94963372,3101,26,0.88720703125,0.05535888671875,0.20721435546875
1760037195300,94963372,3101,27,0.885009765625,0.05487060546875,0.20989990234375
1760037195300,94963372,3101,28,0.886962890625,0.05828857421875,0.21136474609375
1760037195300,94963372,3101,29,0.884033203125,0.05706787109375,0.20965576171875
1760037195300,94963372,3101,30,0.88818359375,0.05657958984375,0.20989990234375
1760037195300,94963372,3101,31,0.885009765625,0.05853271484375,0.21136474609375
1760037198000,94965945,3102,0,0.88427734375,0.05560302734375,0.20843505859375
1760037198000,94965945,3102,1,0.88916015625,0.05438232421875,0.21234130859375
1760037198000,94965945,3102,2,0.884033203125,0.06146240234375,0.20452880859375
1760037198000,94965945,3102,3,0.88623046875,0.05804443359375,0.20599365234375
1760037198000,94965945,3102,4,0.88525390625,0.05267333984375,0.20892333984375
1760037198000,94965945,3102,5,0.886962890625,0.05706787109375,0.20843505859375
1760037198000,94965945,3102,6,0.88330078125,0.05755615234375,0.20819091796875
1760037198000,94965945,3102,7,0.8876953125,0.05828857421875,0.20379638671875
1760037198000,94965945,3102,8,0.886962890625,0.05804443359375,0.20599365234375
1760037198000,94965945,3102,9,0.888427734375,0.05682373046875,0.20867919921875
1760037198000,94965945,3102,10,0.88427734375,0.05731201171875,0.21112060546875
1760037198000,94965945,3102,11,0.885498046875,0.06024169921875,0.20965576171875
1760037198000,94965945,3102,12,0.889892578125,0.05706787109375,0.21136474609375
1760037198000,94965945,3102,13,0.887939453125,0.05755615234375,0.20892333984375
1760037198000,94965945,3102,14,0.884521484375,0.06048583984375,0.20867919921875
1760037198000,94965945,3102,15,0.883544921875,0.06048583984375,0.21087646484375
1760037198000,94965945,3102,16,0.88720703125,0.06048583984375,0.20794677734375
1760037198000,94965945,3102,17,0.8857421875,0.05975341796875,0.21185302734375
1760037198000,94965945,3102,18,0.88623046875,0.06024169921875,0.20916748046875
1760037198000,94965945,3102,19,0.88720703125,0.05999755859375,0.21063232421875
1760037198000,94965945,3102,20,0.884521484375,0.06292724609375,0.20965576171875
1760037198000,94965945,3102,21,0.88623046875,0.06048583984375,0.21136474609375
1760037198000,94965945,3102,22,0.886962890625,0.05853271484375,0.20550537109375
1760037198000,94965945,3102,23,0.884033203125,0.06170654296875,0.21014404296875
1760037198000,94965945,3102,24,0.886474609375,0.06512451171875,0.20745849609375
1760037198000,94965945,3102,25,0.884765625,0.06121826171875,0.21356201171875
1760037198000,94965945,3102,26,0.887451171875,0.05950927734375,0.20819091796875
1760037198000,94965945,3102,27,0.884765625,0.06195068359375,0.20916748046875
1760037198000,94965945,3102,28,0.8857421875,0.06121826171875,0.21405029296875
1760037198000,94965945,3102,29,0.88525390625,0.06512451171875,0.20574951171875
1760037198000,94965945,3102,30,0.885498046875,0.06146240234375,0.21160888671875
1760037198000,94965945,3102,31,0.885498046875,0.05950927734375,0.20819091796875
1760037200547,94968518,3103,0,0.885986328125,0.05902099609375,0.20965576171875
1760037200547,94968518,3103,1,0.88525390625,0.06048583984375,0.21502685546875
1760037200547,94968518,3103,2,0.8837890625,0.05902099609375,0.20989990234375
1760037200547,94968518,3103,3,0.88720703125,0.05853271484375,0.21112060546875
1760037200547,94968518,3103,4,0.887939453125,0.05780029296875,0.21112060546875
1760037200547,94968518,3103,5,0.885498046875,0.05804443359375,0.21063232421875
1760037200547,94968518,3103,6,0.884765625,0.05804443359375,0.21063232421875
1760037200547,94968518,3103,7,0.88720703125,0.05975341796875,0.20867919921875
1760037200547,94968518,3103,8,0.88818359375,0.06024169921875,0.20550537109375
1760037200547,94968518,3103,9,0.88818359375,0.05975341796875,0.21234130859375
1760037200547,94968518,3103,10,0.8857421875,0.05828857421875,0.21038818359375
1760037200547,94968518,3103,11,0.885498046875,0.05706787109375,0.21014404296875
1760037200547,94968518,3103,12,0.887451171875,0.05511474609375,0.20843505859375
1760037200547,94968518,3103,13,0.88623046875,0.05706787109375,0.20819091796875
1760037200547,94968518,3103,14,0.885986328125,0.05877685546875,0.20965576171875
1760037200547,94968518,3103,15,0.886474609375,0.05902099609375,0.21087646484375
1760037200547,94968518,3103,16,0.885498046875,0.05853271484375,0.20745849609375
1760037200547,94968518,3103,17,0.887451171875,0.05999755859375,0.20941162109375
1760037200547,94968518,3103,18,0.887451171875,0.05804443359375,0.20599365234375
1760037200547,94968518,3103,19,0.88720703125,0.05657958984375,0.21063232421875
1760037200547,94968518,3103,20,0.88623046875,0.05706787109375,0.20794677734375
1760037200547,94968518,3103,21,0.885498046875,0.05462646484375,0.20477294921875
1760037200547,94968518,3103,22,0.88720703125,0.05682373046875,0.20623779296875
1760037200547,94968518,3103,23,0.888916015625,0.05804443359375,0.20428466796875
1760037200547,94968518,3103,24,0.886962890625,0.05804443359375,0.20306396484375
1760037200547,94968518,3103,25,0.89013671875,0.05657958984375,0.21063232421875
1760037200547,94968518,3103,26,0.886962890625,0.05950927734375,0.20477294921875
1760037200547,94968518,3103,27,0.88818359375,0.05389404296875,0.20428466796875
1760037200547,94968518,3103,28,0.8896484375,0.05462646484375,0.20697021484375
1760037200547,94968518,3103,29,0.887939453125,0.05682373046875,0.20697021484375
1760037200547,94968518,3103,30,0.888916015625,0.05682373046875,0.20697021484375
1760037200547,94968518,3103,31,0.888427734375,0.05584716796875,0.20281982421875
1760037203093,94971092,3104,0,0.8896484375,0.05462646484375,0.20428466796875
1760037203093,94971092,3104,1,0.8857421875,0.05853271484375,0.20550537109375
1760037203093,94971092,3104,2,0.886474609375,0.05755615234375,0.20599365234375
1760037203093,94971092,3104,3,0.888427734375,0.05609130859375,0.20672607421875
1760037203093,94971092,3104,4,0.88623046875,0.05926513671875,0.20648193359375
1760037203093,94971092,3104,5,0.88818359375,0.05853271484375,0.20745849609375
1760037203093,94971092,3104,6,0.88818359375,0.05926513671875,0.20501708984375
1760037203093,94971092,3104,7,0.88671875,0.05975341796875,0.20721435546875
1760037203093,94971092,3104,8,0.885498046875,0.06146240234375,0.20477294921875
1760037203093,94971092,3104,9,0.88818359375,0.05975341796875,0.20599365234375
1760037203093,94971092,3104,10,0.8896484375,0.05902099609375,0.20770263671875
1760037203093,94971092,3104,11,0.885498046875,0.05999755859375,0.20965576171875
1760037203093,94971092,3104,12,0.886962890625,0.06024169921875,0.20916748046875
1760037203093,94971092,3104,13,0.88671875,0.06463623046875,0.20697021484375
1760037203093,94971092,3104,14,0.886962890625,0.06024169921875,0.20892333984375
1760037203093,94971092,3104,15,0.887451171875,0.05999755859375,0.20550537109375
1760037203093,94971092,3104,16,0.887451171875,0.05975341796875,0.21136474609375
1760037203093,94971092,3104,17,0.8857421875,0.06268310546875,0.21209716796875
1760037203093,94971092,3104,18,0.884765625,0.06341552734375,0.21112060546875
1760037203093,94971092,3104,19,0.88671875,0.06146240234375,0.20721435546875
1760037203093,94971092,3104,20,0.88623046875,0.06072998046875,0.20843505859375
1760037203093,94971092,3104,21,0.884521484375,0.06097412109375,0.20941162109375
1760037203093,94971092,3104,22,0.886474609375,0.06585693359375,0.20989990234375
1760037203093,94971092,3104,23,0.88427734375,0.06317138671875,0.20965576171875
1760037203093,94971092,3104,24,0.886474609375,0.06170654296875,0.21112060546875
1760037203093,94971092,3104,25,0.88720703125,0.05950927734375,0.21063232421875
1760037203093,94971092,3104,26,0.88525390625,0.06414794921875,0.21136474609375
1760037203093,94971092,3104,27,0.885986328125,0.06414794921875,0.21014404296875
1760037203093,94971092,3104,28,0.886962890625,0.06439208984375,0.20697021484375
1760037203093,94971092,3104,29,0.88671875,0.06146240234375,0.20404052734375
1760037203093,94971092,3104,30,0.88427734375,0.05926513671875,0.21307373046875
1760037203093,94971092,3104,31,0.885498046875,0.05999755859375,0.21234130859375
1760037205644,94973665,3105,0,0.88623046875,0.06634521484375,0.20941162109375
1760037205644,94973665,3105,1,0.888916015625,0.05950927734375,0.21160888671875
1760037205644,94973665,3105,2,0.885986328125,0.06048583984375,0.20721435546875
1760037205644,94973665,3105,3,0.884765625,0.06121826171875,0.21160888671875
1760037205644,94973665,3105,4,0.88427734375,0.06219482421875,0.21136474609375
1760037205644,94973665,3105,5,0.885986328125,0.05926513671875,0.21185302734375
1760037205644,94973665,3105,6,0.887451171875,0.06121826171875,0.21136474609375
1760037205644,94973665,3105,7,0.885498046875,0.05999755859375,0.21307373046875
1760037205644,94973665,3105,8,0.886474609375,0.05804443359375,0.20794677734375
1760037205644,94973665,3105,9,0.88671875,0.06024169921875,0.21136474609375
1760037205644,94973665,3105,10,0.88720703125,0.06121826171875,0.20867919921875
1760037205644,94973665,3105,11,0.884521484375,0.06121826171875,0.20843505859375
1760037205644,94973665,3105,12,0.886962890625,0.05706787109375,0.21331787109375
1760037205644,94973665,3105,13,0.886474609375,0.05975341796875,0.20819091796875
1760037205644,94973665,3105,14,0.885986328125,0.05828857421875,0.21282958984375
1760037205644,94973665,3105,15,0.884521484375,0.05902099609375,0.21038818359375
1760037205644,94973665,3105,16,0.884521484375,0.05902099609375,0.21112060546875
1760037205644,94973665,3105,17,0.88623046875,0.05926513671875,0.20892333984375
1760037205644,94973665,3105,18,0.8857421875,0.05853271484375,0.21575927734375
1760037205644,94973665,3105,19,0.884521484375,0.06219482421875,0.20697021484375
1760037205644,94973665,3105,20,0.88623046875,0.05902099609375,0.20550537109375
1760037205644,94973665,3105,21,0.886962890625,0.05853271484375,0.20770263671875
1760037205644,94973665,3105,22,0.88671875,0.05950927734375,0.21038818359375
1760037205644,94973665,3105,23,0.8837890625,0.06024169921875,0.21551513671875
1760037205644,94973665,3105,24,0.88330078125,0.05853271484375,0.20526123046875
1760037205644,94973665,3105,25,0.88623046875,0.05926513671875,0.20819091796875
1760037205644,94973665,3105,26,0.88623046875,0.05877685546875,0.20574951171875
1760037205644,94973665,3105,27,0.884765625,0.05706787109375,0.20550537109375
1760037205644,94973665,3105,28,0.88671875,0.05926513671875,0.21160888671875
1760037205644,94973665,3105,29,0.8857421875,0.06024169921875,0.21038818359375
1760037205644,94973665,3105,30,0.887451171875,0.05780029296875,0.20697021484375
1760037205644,94973665,3105,31,0.88916015625,0.05487060546875,0.20697021484375
1760037208198,94976238,3106,0,0.8857421875,0.05780029296875,0.20574951171875
1760037208198,94976238,3106,1,0.888916015625,0.05633544921875,0.20623779296875
1760037208198,94976238,3106,2,0.88671875,0.05487060546875,0.20770263671875
1760037208198,94976238,3106,3,0.888671875,0.05706787109375,0.20697021484375
1760037208198,94976238,3106,4,0.887939453125,0.05657958984375,0.20574951171875
1760037208198,94976238,3106,5,0.88720703125,0.05755615234375,0.21063232421875
1760037208198,94976238,3106,6,0.886474609375,0.05755615234375,0.20599365234375
1760037208198,94976238,3106,7,0.8896484375,0.05706787109375,0.20721435546875
1760037208198,94976238,3106,8,0.8876953125,0.05609130859375,0.20428466796875
1760037208198,94976238,3106,9,0.8896484375,0.05584716796875,0.20892333984375
1760037208198,94976238,3106,10,0.888671875,0.05853271484375,0.20794677734375
1760037208198,94976238,3106,11,0.885986328125,0.05511474609375,0.20404052734375
1760037208198,94976238,3106,12,0.8876953125,0.05511474609375,0.20501708984375
1760037208198,94976238,3106,13,0.88671875,0.05609130859375,0.20574951171875
1760037208198,94976238,3106,14,0.886962890625,0.05682373046875,0.20697021484375
1760037208198,94976238,3106,15,0.88720703125,0.05291748046875,0.21209716796875
1760037208198,94976238,3106,16,0.8857421875,0.06072998046875,0.20526123046875
1760037208198,94976238,3106,17,0.88818359375,0.05877685546875,0.20794677734375
1760037208198,94976238,3106,18,0.887451171875,0.05316162109375,0.20648193359375
1760037208198,94976238,3106,19,0.885498046875,0.05780029296875,0.20379638671875
1760037208198,94976238,3106,20,0.88525390625,0.06048583984375,0.20599365234375
1760037208198,94976238,3106,21,0.887451171875,0.05902099609375,0.20501708984375
1760037208198,94976238,3106,22,0.88916015625,0.05877685546875,0.20672607421875
1760037208198,94976238,3106,23,0.887939453125,0.05926513671875,0.20526123046875
1760037208198,94976238,3106,24,0.887939453125,0.05780029296875,0.20355224609375
1760037208198,94976238,3106,25,0.884765625,0.05950927734375,0.21038818359375
1760037208198,94976238,3106,26,0.88818359375,0.05999755859375,0.20745849609375
1760037208198,94976238,3106,27,0.8876953125,0.05853271484375,0.20159912109375
1760037208198,94976238,3106,28,0.88916015625,0.05755615234375,0.20819091796875
1760037208198,94976238,3106,29,0.886474609375,0.06292724609375,0.20916748046875
1760037208198,94976238,3106,30,0.88427734375,0.06219482421875,0.20721435546875
1760037208198,94976238,3106,31,0.88818359375,0.05926513671875,0.20867919921875
1760037210743,94978811,3107,0,0.886962890625,0.06146240234375,0.20819091796875
1760037210743,94978811,3107,1,0.88720703125,0.05877685546875,0.20623779296875
1760037210743,94978811,3107,2,0.886962890625,0.06121826171875,0.21014404296875
1760037210743,94978811,3107,3,0.888427734375,0.06243896484375,0.20892333984375
1760037210743,94978811,3107,4,0.888916015625,0.06072998046875,0.20501708984375
1760037210743,94978811,3107,5,0.8876953125,0.05950927734375,0.20916748046875
1760037210743,94978811,3107,6,0.884765625,0.06414794921875,0.20697021484375
1760037210743,94978811,3107,7,0.884765625,0.06024169921875,0.20550537109375
1760037210743,94978811,3107,8,0.88525390625,0.06219482421875,0.21160888671875
1760037210743,94978811,3107,9,0.885986328125,0.06097412109375,0.20770263671875
1760037210743,94978811,3107,10,0.8857421875,0.06317138671875,0.20819091796875
1760037210743,94978811,3107,11,0.884521484375,0.06317138671875,0.21087646484375
1760037210743,94978811,3107,12,0.88720703125,0.06341552734375,0.20916748046875
1760037210743,94978811,3107,13,0.886474609375,0.06024169921875,0.21136474609375
1760037210743,94978811,3107,14,0.88671875,0.06219482421875,0.21209716796875
1760037210743,94978811,3107,15,0.88623046875,0.06268310546875,0.21356201171875
1760037210743,94978811,3107,16,0.886474609375,0.06170654296875,0.21087646484375
1760037210743,94978811,3107,17,0.885986328125,0.06170654296875,0.20843505859375
1760037210743,94978811,3107,18,0.88671875,0.06268310546875,0.21014404296875
1760037210743,94978811,3107,19,0.885009765625,0.06268310546875,0.21160888671875
1760037210743,94978811,3107,20,0.884765625,0.06317138671875,0.21380615234375
1760037210743,94978811,3107,21,0.88525390625,0.06292724609375,0.20916748046875
1760037210743,94978811,3107,22,0.8876953125,0.06365966796875,0.21038818359375
1760037210743,94978811,3107,23,0.8857421875,0.05828857421875,0.20623779296875
1760037210743,94978811,3107,24,0.885986328125,0.06024169921875,0.21600341796875
1760037210743,94978811,3107,25,0.88330078125,0.06536865234375,0.21014404296875
1760037210743,94978811,3107,26,0.885986328125,0.06195068359375,0.20672607421875
1760037210743,94978811,3107,27,0.88671875,0.05975341796875,0.21087646484375
1760037210743,94978811,3107,28,0.882568359375,0.06121826171875,0.21405029296875
1760037210743,94978811,3107,29,0.883056640625,0.05926513671875,0.21380615234375
1760037210743,94978811,3107,30,0.886474609375,0.06072998046875,0.21356201171875
1760037210743,94978811,3107,31,0.886474609375,0.06243896484375,0.20770263671875
1760037213450,94981378,3108,0,0.8857421875,0.06146240234375,0.20941162109375
1760037213450,94981378,3108,1,0.885009765625,0.05780029296875,0.20941162109375
1760037213450,94981378,3108,2,0.884521484375,0.05999755859375,0.21380615234375
1760037213450,94981378,3108,3,0.887451171875,0.06146240234375,0.20965576171875
1760037213450,94981378,3108,4,0.8857421875,0.05828857421875,0.20843505859375
1760037213450,94981378,3108,5,0.88623046875,0.05926513671875,0.20916748046875
1760037213450,94981378,3108,6,0.885986328125,0.05780029296875,0.21038818359375
1760037213450,94981378,3108,7,0.885986328125,0.05755615234375,0.20648193359375
1760037213450,94981378,3108,8,0.88671875,0.05877685546875,0.21063232421875
1760037213450,94981378,3108,9,0.886962890625,0.06048583984375,0.20892333984375
1760037213450,94981378,3108,10,0.88916015625,0.05902099609375,0.20501708984375
1760037213450,94981378,3108,11,0.88916015625,0.05780029296875,0.20526123046875
1760037213450,94981378,3108,12,0.888427734375,0.05853271484375,0.20721435546875
1760037213450,94981378,3108,13,0.8876953125,0.05853271484375,0.20599365234375
1760037213450,94981378,3108,14,0.887939453125,0.05828857421875,0.20526123046875
1760037213450,94981378,3108,15,0.888427734375,0.05780029296875,0.20452880859375
1760037213450,94981378,3108,16,0.88671875,0.05975341796875,0.20184326171875
1760037213450,94981378,3108,17,0.88720703125,0.05389404296875,0.20111083984375
1760037213450,94981378,3108,18,0.890380859375,0.05975341796875,0.19915771484375
1760037213450,94981378,3108,19,0.88720703125,0.05902099609375,0.20306396484375
1760037213450,94981378,3108,20,0.890625,0.05926513671875,0.19769287109375
1760037213450,94981378,3108,21,0.888916015625,0.05877685546875,0.19818115234375
1760037213450,94981378,3108,22,0.89013671875,0.05975341796875,0.19915771484375
1760037213450,94981378,3108,23,0.888671875,0.05926513671875,0.19671630859375
1760037213450,94981378,3108,24,0.889892578125,0.05706787109375,0.19744873046875
1760037213450,94981378,3108,25,0.888916015625,0.05780029296875,0.19818115234375
1760037213450,94981378,3108,26,0.88916015625,0.05975341796875,0.19500732421875
1760037213450,94981378,3108,27,0.889404296875,0.05633544921875,0.19964599609375
1760037213450,94981378,3108,28,0.88818359375,0.05877685546875,0.19549560546875
1760037213450,94981378,3108,29,0.890625,0.05584716796875,0.19793701171875
1760037213450,94981378,3108,30,0.8916015625,0.05682373046875,0.19793701171875
1760037213450,94981378,3108,31,0.8896484375,0.05877685546875,0.19647216796875
1760037216147,94983951,3109,0,0.889404296875,0.05657958984375,0.19891357421875
1760037216147,94983951,3109,1,0.888427734375,0.05633544921875,0.19696044921875
1760037216147,94983951,3109,2,0.888427734375,0.05975341796875,0.20013427734375
1760037216147,94983951,3109,3,0.888427734375,0.05755615234375,0.19500732421875
1760037216147,94983951,3109,4,0.8916015625,0.05487060546875,0.19793701171875
1760037216147,94983951,3109,5,0.88916015625,0.05780029296875,0.19720458984375
1760037216147,94983951,3109,6,0.888916015625,0.05902099609375,0.20111083984375
1760037216147,94983951,3109,7,0.888916015625,0.05584716796875,0.19329833984375
1760037216147,94983951,3109,8,0.8896484375,0.05950927734375,0.19744873046875
1760037216147,94983951,3109,9,0.888916015625,0.05657958984375,0.19671630859375
1760037216147,94983951,3109,10,0.891845703125,0.05804443359375,0.19647216796875
1760037216147,94983951,3109,11,0.890625,0.05609130859375,0.20233154296875
1760037216147,94983951,3109,12,0.887939453125,0.05853271484375,0.19964599609375
1760037216147,94983951,3109,13,0.88720703125,0.05682373046875,0.19940185546875
1760037216147,94983951,3109,14,0.8876953125,0.05731201171875,0.20086669921875
1760037216147,94983951,3109,15,0.888916015625,0.06121826171875,0.20257568359375
1760037216147,94983951,3109,16,0.8896484375,0.05682373046875,0.19940185546875
1760037216147,94983951,3109,17,0.8876953125,0.05877685546875,0.19915771484375
1760037216147,94983951,3109,18,0.8896484375,0.06170654296875,0.20184326171875
1760037216147,94983951,3109,19,0.890380859375,0.06121826171875,0.20355224609375
1760037216147,94983951,3109,20,0.88720703125,0.05926513671875,0.20501708984375
1760037216147,94983951,3109,21,0.88623046875,0.06097412109375,0.20281982421875
1760037216147,94983951,3109,22,0.885986328125,0.06048583984375,0.20257568359375
1760037216147,94983951,3109,23,0.88623046875,0.06317138671875,0.20379638671875
1760037216147,94983951,3109,24,0.88671875,0.06341552734375,0.20355224609375
1760037216147,94983951,3109,25,0.88720703125,0.06024169921875,0.20355224609375
1760037216147,94983951,3109,26,0.885986328125,0.05975341796875,0.20477294921875
1760037216147,94983951,3109,27,0.886474609375,0.06170654296875,0.20574951171875
1760037216147,94983951,3109,28,0.887939453125,0.06170654296875,0.20355224609375
1760037216147,94983951,3109,29,0.888427734375,0.05926513671875,0.20623779296875
1760037216147,94983951,3109,30,0.88818359375,0.06219482421875,0.20526123046875
1760037216147,94983951,3109,31,0.889404296875,0.06146240234375,0.20184326171875
1760037218549,94986524,3110,0,0.885009765625,0.06317138671875,0.20648193359375
1760037218549,94986524,3110,1,0.888671875,0.06268310546875,0.20526123046875
1760037218549,94986524,3110,2,0.888427734375,0.06195068359375,0.20501708984375
1760037218549,94986524,3110,3,0.887451171875,0.05877685546875,0.20819091796875
1760037218549,94986524,3110,4,0.884765625,0.06365966796875,0.20745849609375
1760037218549,94986524,3110,5,0.8857421875,0.06512451171875,0.20233154296875
1760037218549,94986524,3110,6,0.8876953125,0.06243896484375,0.20501708984375
1760037218549,94986524,3110,7,0.885986328125,0.06121826171875,0.20965576171875
1760037218549,94986524,3110,8,0.8857421875,0.06024169921875,0.21185302734375
1760037218549,94986524,3110,9,0.886962890625,0.06268310546875,0.20989990234375
1760037218549,94986524,3110,10,0.884521484375,0.06634521484375,0.21014404296875
1760037218549,94986524,3110,11,0.887939453125,0.06121826171875,0.20550537109375
1760037218549,94986524,3110,12,0.886962890625,0.05877685546875,0.20989990234375
1760037218549,94986524,3110,13,0.886474609375,0.06268310546875,0.20892333984375
1760037218549,94986524,3110,14,0.884765625,0.06170654296875,0.20843505859375
1760037218549,94986524,3110,15,0.88671875,0.06048583984375,0.20648193359375
1760037218549,94986524,3110,16,0.887451171875,0.06097412109375,0.20599365234375
1760037218549,94986524,3110,17,0.8857421875,0.06072998046875,0.20819091796875
1760037218549,94986524,3110,18,0.88720703125,0.05999755859375,0.20989990234375
1760037218549,94986524,3110,19,0.887939453125,0.06170654296875,0.20721435546875
1760037218549,94986524,3110,20,0.886962890625,0.06072998046875,0.20501708984375
1760037218549,94986524,3110,21,0.88720703125,0.06024169921875,0.20623779296875
1760037218549,94986524,3110,22,0.884033203125,0.06072998046875,0.20672607421875
1760037218549,94986524,3110,23,0.885498046875,0.05926513671875,0.20648193359375
1760037218549,94986524,3110,24,0.88720703125,0.05780029296875,0.20721435546875
1760037218549,94986524,3110,25,0.88720703125,0.05780029296875,0.20306396484375
1760037218549,94986524,3110,26,0.887451171875,0.06097412109375,0.20526123046875
1760037218549,94986524,3110,27,0.88720703125,0.05804443359375,0.20794677734375
1760037218549,94986524,3110,28,0.88818359375,0.06243896484375,0.20159912109375
1760037218549,94986524,3110,29,0.88916015625,0.05804443359375,0.20599365234375
1760037218549,94986524,3110,30,0.887939453125,0.05828857421875,0.20257568359375
1760037218549,94986524,3110,31,0.887939453125,0.05902099609375,0.20330810546875
