receivedPhoneTimestamp,respeckTimestamp,packetSeqNum,sampleSeqNum,accelX,accelY,accelZ
1759318052927,413479619,4247,30,-0.00341796875,-0.06915283203125,-1.00860595703125
1759318052927,413479619,4247,31,-0.00927734375,-0.06988525390625,-1.00396728515625
1759318054291,413482162,4248,0,-0.007568359375,-0.06988525390625,-1.00567626953125
1759318054291,413482162,4248,1,-0.0078125,-0.07061767578125,-1.00787353515625
1759318054291,413482162,4248,2,-0.006103515625,-0.06964111328125,-1.00396728515625
1759318054291,413482162,4248,3,-0.00439453125,-0.06719970703125,-1.00445556640625
1759318054291,413482162,4248,4,-0.005615234375,-0.06866455078125,-1.00665283203125
1759318054291,413482162,4248,5,-0.00439453125,-0.06793212890625,-1.00494384765625
1759318054291,413482162,4248,6,-0.001953125,-0.06671142578125,-1.00494384765625
1759318054291,413482162,4248,7,-0.0029296875,-0.06842041015625,-1.00738525390625
1759318054291,413482162,4248,8,-0.001953125,-0.06817626953125,-1.00665283203125
1759318054291,413482162,4248,9,-0.003173828125,-0.06524658203125,-1.00567626953125
1759318054291,413482162,4248,10,-0.005615234375,-0.06475830078125,-1.00567626953125
1759318054291,413482162,4248,11,-0.002197265625,-0.06768798828125,-1.01031494140625
1759318054291,413482162,4248,12,-0.002685546875,-0.06793212890625,-1.00665283203125
1759318054291,413482162,4248,13,-0.006591796875,-0.06744384765625,-1.00518798828125
1759318054291,413482162,4248,14,0.0,-0.06768798828125,-1.00909423828125
1759318054291,413482162,4248,15,-0.003662109375,-0.06793212890625,-1.00738525390625
1759318054291,413482162,4248,16,-0.004638671875,-0.06915283203125,-1.00860595703125
1759318054291,413482162,4248,17,-0.004150390625,-0.07281494140625,-1.00347900390625
1759318054291,413482162,4248,18,-0.004150390625,-0.07159423828125,-1.00787353515625
1759318054291,413482162,4248,19,-0.00390625,-0.07232666015625,-1.00494384765625
1759318054291,413482162,4248,20,-0.00732421875,-0.07159423828125,-1.00592041015625
1759318054291,413482162,4248,21,-0.0087890625,-0.07330322265625,-1.00787353515625
1759318054291,413482162,4248,22,-0.01171875,-0.07159423828125,-1.00762939453125
1759318054291,413482162,4248,23,-0.011474609375,-0.07110595703125,-1.00543212890625
1759318054291,413482162,4248,24,-0.00830078125,-0.07257080078125,-1.00567626953125
1759318054291,413482162,4248,25,-0.00927734375,-0.07159423828125,-1.00396728515625
1759318054291,413482162,4248,26,-0.011962890625,-0.06890869140625,-1.00543212890625
1759318054291,413482162,4248,27,-0.009765625,-0.07110595703125,-1.00396728515625
1759318054291,413482162,4248,28,-0.008056640625,-0.07159423828125,-1.00665283203125
1759318054291,413482162,4248,29,-0.0107421875,-0.07110595703125,-1.00567626953125
1759318054291,413482162,4248,30,-0.011474609375,-0.06939697265625,-1.00738525390625
1759318054291,413482162,4248,31,-0.0078125,-0.07012939453125,-1.00640869140625
1759318056826,413484705,4249,0,-0.011962890625,-0.07061767578125,-1.00592041015625
1759318056826,413484705,4249,1,-0.01171875,-0.07012939453125,-1.00469970703125
1759318056826,413484705,4249,2,-0.013916015625,-0.07012939453125,-1.00762939453125
1759318056826,413484705,4249,3,-0.013427734375,-0.07037353515625,-1.00762939453125
1759318056826,413484705,4249,4,-0.014404296875,-0.06964111328125,-1.00738525390625
1759318056826,413484705,4249,5,-0.01513671875,-0.06964111328125,-1.00787353515625
1759318056826,413484705,4249,6,-0.012451171875,-0.07012939453125,-1.00396728515625
1759318056826,413484705,4249,7,-0.011962890625,-0.06915283203125,-1.00885009765625
1759318056826,413484705,4249,8,-0.01513671875,-0.07037353515625,-1.00689697265625
1759318056826,413484705,4249,9,-0.013916015625,-0.07037353515625,-1.00640869140625
1759318056826,413484705,4249,10,-0.011474609375,-0.07281494140625,-1.00616455078125
1759318056826,413484705,4249,11,-0.01318359375,-0.07769775390625,-1.00714111328125
1759318056826,413484705,4249,12,-0.010498046875,-0.07305908203125,-1.00762939453125
1759318056826,413484705,4249,13,-0.00927734375,-0.07672119140625,-1.00787353515625
1759318056826,413484705,4249,14,-0.010009765625,-0.07769775390625,-1.00518798828125
1759318056826,413484705,4249,15,-0.01171875,-0.07550048828125,-1.00518798828125
1759318056826,413484705,4249,16,-0.009521484375,-0.07769775390625,-1.00714111328125
1759318056826,413484705,4249,17,-0.01171875,-0.08013916015625,-1.00787353515625
1759318056826,413484705,4249,18,-0.010009765625,-0.07574462890625,-1.00445556640625
1759318056826,413484705,4249,19,-0.01220703125,-0.07550048828125,-1.00714111328125
1759318056826,413484705,4249,20,-0.0126953125,-0.07183837890625,-1.00640869140625
1759318056826,413484705,4249,21,-0.01123046875,-0.07452392578125,-1.00567626953125
1759318056826,413484705,4249,22,-0.0107421875,-0.07330322265625,-1.00665283203125
1759318056826,413484705,4249,23,-0.010498046875,-0.07159423828125,-1.00811767578125
1759318056826,413484705,4249,24,-0.009521484375,-0.07183837890625,-1.00689697265625
1759318056826,413484705,4249,25,-0.0078125,-0.07305908203125,-1.00787353515625
1759318056826,413484705,4249,26,-0.01025390625,-0.06939697265625,-1.00714111328125
1759318056826,413484705,4249,27,-0.008056640625,-0.06964111328125,-1.00714111328125
1759318056826,413484705,4249,28,-0.003173828125,-0.07086181640625,-1.00592041015625
1759318056826,413484705,4249,29,-0.004638671875,-0.06964111328125,-1.00445556640625
1759318056826,413484705,4249,30,-0.0078125,-0.07379150390625,-1.00909423828125
1759318056826,413484705,4249,31,-0.00537109375,-0.07159423828125,-1.00616455078125
1759318059358,413487248,4250,0,-0.005859375,-0.07110595703125,-1.00714111328125
1759318059358,413487248,4250,1,-0.005126953125,-0.07354736328125,-1.00592041015625
1759318059358,413487248,4250,2,-0.006103515625,-0.07745361328125,-1.00909423828125
1759318059358,413487248,4250,3,-0.00830078125,-0.07501220703125,-1.00714111328125
1759318059358,413487248,4250,4,-0.0087890625,-0.07354736328125,-1.00592041015625
1759318059358,413487248,4250,5,-0.010009765625,-0.07354736328125,-1.00640869140625
1759318059358,413487248,4250,6,-0.012451171875,-0.07525634765625,-1.00665283203125
1759318059358,413487248,4250,7,-0.010009765625,-0.08038330078125,-1.00860595703125
1759318059358,413487248,4250,8,-0.0107421875,-0.07720947265625,-1.00616455078125
1759318059358,413487248,4250,9,-0.01171875,-0.07647705078125,-1.00592041015625
1759318059358,413487248,4250,10,-0.00830078125,-0.08160400390625,-1.00811767578125
1759318059358,413487248,4250,11,-0.010009765625,-0.07745361328125,-1.00689697265625
1759318059358,413487248,4250,12,-0.01171875,-0.07525634765625,-1.00689697265625
1759318059358,413487248,4250,13,-0.011962890625,-0.07965087890625,-1.00811767578125
1759318059358,413487248,4250,14,-0.01318359375,-0.07574462890625,-1.00616455078125
1759318059358,413487248,4250,15,-0.0126953125,-0.07745361328125,-1.00665283203125
1759318059358,413487248,4250,16,-0.01171875,-0.07794189453125,-1.01007080078125
1759318059358,413487248,4250,17,-0.01220703125,-0.08184814453125,-1.00445556640625
1759318059358,413487248,4250,18,-0.01025390625,-0.07916259765625,-1.00421142578125
1759318059358,413487248,4250,19,-0.012939453125,-0.07867431640625,-1.00762939453125
1759318059358,413487248,4250,20,-0.013427734375,-0.07940673828125,-1.00787353515625
1759318059358,413487248,4250,21,-0.01220703125,-0.07720947265625,-1.00909423828125
1759318059358,413487248,4250,22,-0.01220703125,-0.07794189453125,-1.00787353515625
1759318059358,413487248,4250,23,-0.008544921875,-0.08282470703125,-1.00640869140625
1759318059358,413487248,4250,24,-0.01318359375,-0.07623291015625,-1.00787353515625
1759318059358,413487248,4250,25,-0.011962890625,-0.07989501953125,-1.00421142578125
1759318059358,413487248,4250,26,-0.012451171875,-0.07476806640625,-1.00836181640625
1759318059358,413487248,4250,27,-0.012451171875,-0.07427978515625,-1.00372314453125
1759318059358,413487248,4250,28,-0.01171875,-0.07232666015625,-1.00494384765625
1759318059358,413487248,4250,29,-0.013427734375,-0.07232666015625,-1.00494384765625
1759318059358,413487248,4250,30,-0.010986328125,-0.07403564453125,-1.00445556640625
1759318059358,413487248,4250,31,-0.01220703125,-0.07598876953125,-1.00958251953125
1759318061896,413489791,4251,0,-0.010498046875,-0.07037353515625,-1.00714111328125
1759318061896,413489791,4251,1,-0.01220703125,-0.06817626953125,-1.00762939453125
1759318061896,413489791,4251,2,-0.012451171875,-0.07135009765625,-1.00469970703125
1759318061896,413489791,4251,3,-0.009521484375,-0.07012939453125,-1.00567626953125
1759318061896,413489791,4251,4,-0.010986328125,-0.07061767578125,-1.00518798828125
1759318061896,413489791,4251,5,-0.009765625,-0.07135009765625,-1.00836181640625
1759318061896,413489791,4251,6,-0.01220703125,-0.07183837890625,-1.00543212890625
1759318061896,413489791,4251,7,-0.01171875,-0.07452392578125,-1.00543212890625
1759318061896,413489791,4251,8,-0.0126953125,-0.07623291015625,-1.00689697265625
1759318061896,413489791,4251,9,-0.01123046875,-0.07427978515625,-1.00665283203125
1759318061896,413489791,4251,10,-0.011962890625,-0.07427978515625,-1.00640869140625
1759318061896,413489791,4251,11,-0.01025390625,-0.07403564453125,-1.00518798828125
1759318061896,413489791,4251,12,-0.011474609375,-0.07525634765625,-1.00543212890625
1759318061896,413489791,4251,13,-0.013916015625,-0.07427978515625,-1.00543212890625
1759318061896,413489791,4251,14,-0.011962890625,-0.07281494140625,-1.00714111328125
1759318061896,413489791,4251,15,-0.010986328125,-0.07647705078125,-1.00665283203125
1759318061896,413489791,4251,16,-0.01171875,-0.07379150390625,-1.00665283203125
1759318061896,413489791,4251,17,-0.01171875,-0.07452392578125,-1.00616455078125
1759318061896,413489791,4251,18,-0.012939453125,-0.07867431640625,-1.00836181640625
1759318061896,413489791,4251,19,-0.00927734375,-0.07452392578125,-1.00616455078125
1759318061896,413489791,4251,20,-0.01416015625,-0.07452392578125,-1.00494384765625
1759318061896,413489791,4251,21,-0.011962890625,-0.07427978515625,-1.00445556640625
1759318061896,413489791,4251,22,-0.013671875,-0.07208251953125,-1.00640869140625
1759318061896,413489791,4251,23,-0.01611328125,-0.07110595703125,-1.00836181640625
1759318061896,413489791,4251,24,-0.013671875,-0.07696533203125,-1.00836181640625
1759318061896,413489791,4251,25,-0.013427734375,-0.07379150390625,-1.00372314453125
1759318061896,413489791,4251,26,-0.015869140625,-0.07379150390625,-1.00665283203125
1759318061896,413489791,4251,27,-0.016357421875,-0.07550048828125,-1.00836181640625
1759318061896,413489791,4251,28,-0.01416015625,-0.07330322265625,-1.00372314453125
1759318061896,413489791,4251,29,-0.01318359375,-0.07159423828125,-1.00762939453125
1759318061896,413489791,4251,30,-0.015869140625,-0.07403564453125,-1.00421142578125
1759318061896,413489791,4251,31,-0.01416015625,-0.07379150390625,-1.00640869140625
1759318064431,413492334,4252,0,-0.01416015625,-0.07330322265625,-1.00616455078125
1759318064431,413492334,4252,1,-0.01513671875,-0.07110595703125,-1.00860595703125
1759318064431,413492334,4252,2,-0.015869140625,-0.06915283203125,-1.00518798828125
1759318064431,413492334,4252,3,-0.0146484375,-0.06939697265625,-1.00616455078125
1759318064431,413492334,4252,4,-0.012451171875,-0.06890869140625,-1.00640869140625
1759318064431,413492334,4252,5,-0.014892578125,-0.06646728515625,-1.00543212890625
1759318064431,413492334,4252,6,-0.011474609375,-0.06353759765625,-1.00396728515625
1759318064431,413492334,4252,7,-0.011474609375,-0.06768798828125,-1.00762939453125
1759318064431,413492334,4252,8,-0.009521484375,-0.06744384765625,-1.00714111328125
1759318064431,413492334,4252,9,-0.00927734375,-0.06744384765625,-1.00738525390625
1759318064431,413492334,4252,10,-0.009765625,-0.06719970703125,-1.00689697265625
1759318064431,413492334,4252,11,-0.010498046875,-0.06622314453125,-1.00518798828125
1759318064431,413492334,4252,12,-0.0087890625,-0.06866455078125,-1.00762939453125
1759318064431,413492334,4252,13,-0.010986328125,-0.06842041015625,-1.00836181640625
1759318064431,413492334,4252,14,-0.013427734375,-0.07305908203125,-1.00836181640625
1759318064431,413492334,4252,15,-0.01025390625,-0.06842041015625,-1.00811767578125
1759318064431,413492334,4252,16,-0.0126953125,-0.07110595703125,-1.00640869140625
1759318064431,413492334,4252,17,-0.012451171875,-0.07305908203125,-1.00787353515625
1759318064431,413492334,4252,18,-0.013427734375,-0.07403564453125,-1.00787353515625
1759318064431,413492334,4252,19,-0.014404296875,-0.07476806640625,-1.00445556640625
1759318066966,413494877,4253,19,-0.020263671875,-0.05743408203125,-1.00738525390625
1759318066966,413494877,4253,20,-0.019287109375,-0.05792236328125,-1.00885009765625
1759318066966,413494877,4253,21,-0.021728515625,-0.05816650390625,-1.00665283203125
1759318066966,413494877,4253,22,-0.02099609375,-0.05621337890625,-1.00640869140625
1759318066966,413494877,4253,23,-0.01904296875,-0.05572509765625,-1.00567626953125
1759318066966,413494877,4253,24,-0.02001953125,-0.05499267578125,-1.01055908203125
1759318066966,413494877,4253,25,-0.01953125,-0.05596923828125,-1.01055908203125
1759318066966,413494877,4253,26,-0.018798828125,-0.05718994140625,-1.00592041015625
1759318066966,413494877,4253,27,-0.019775390625,-0.05743408203125,-1.00787353515625
1759318066966,413494877,4253,28,-0.020263671875,-0.05938720703125,-1.00860595703125
1759318066966,413494877,4253,29,-0.017578125,-0.06085205078125,-1.00933837890625
1759318066966,413494877,4253,30,-0.02001953125,-0.05938720703125,-1.00909423828125
1759318066966,413494877,4253,31,-0.018310546875,-0.06231689453125,-1.00860595703125
1759318070476,413497420,4254,0,-0.01904296875,-0.06231689453125,-1.00714111328125
1759318070476,413497420,4254,1,-0.020751953125,-0.06231689453125,-1.00616455078125
1759318070476,413497420,4254,2,-0.019287109375,-0.06109619140625,-1.00396728515625
1759318070476,413497420,4254,3,-0.02197265625,-0.06231689453125,-1.00714111328125
1759318070476,413497420,4254,4,-0.018798828125,-0.06182861328125,-1.01080322265625
1759318070476,413497420,4254,5,-0.020263671875,-0.06329345703125,-1.00714111328125
1759318070476,413497420,4254,6,-0.020751953125,-0.06182861328125,-1.01153564453125
1759318070476,413497420,4254,7,-0.02099609375,-0.06329345703125,-1.00811767578125
1759318070476,413497420,4254,8,-0.020263671875,-0.06304931640625,-1.00592041015625
1759318070476,413497420,4254,9,-0.021484375,-0.06329345703125,-1.00543212890625
1759318070476,413497420,4254,10,-0.022216796875,-0.06427001953125,-1.00469970703125
1759318070476,413497420,4254,11,-0.0205078125,-0.06304931640625,-1.00811767578125
1759318070476,413497420,4254,12,-0.0224609375,-0.06549072265625,-1.00372314453125
1759318070476,413497420,4254,13,-0.021728515625,-0.06304931640625,-1.00689697265625
1759318070476,413497420,4254,14,-0.02197265625,-0.06451416015625,-1.00616455078125
1759318070476,413497420,4254,15,-0.025146484375,-0.06304931640625,-1.00421142578125
1759318070476,413497420,4254,16,-0.02197265625,-0.06182861328125,-1.00347900390625
1759318070476,413497420,4254,17,-0.022705078125,-0.06549072265625,-1.00494384765625
1759318070476,413497420,4254,18,-0.024658203125,-0.06524658203125,-1.00640869140625
1759318070476,413497420,4254,19,-0.02294921875,-0.06280517578125,-1.00567626953125
1759318070476,413497420,4254,20,-0.026123046875,-0.06304931640625,-1.00592041015625
1759318070476,413497420,4254,21,-0.021240234375,-0.06768798828125,-1.00665283203125
1759318070476,413497420,4254,22,-0.021240234375,-0.06597900390625,-1.00616455078125
1759318070476,413497420,4254,23,-0.017578125,-0.06451416015625,-1.00616455078125
1759318070476,413497420,4254,24,-0.018798828125,-0.06402587890625,-1.00933837890625
1759318070476,413497420,4254,25,-0.01904296875,-0.06695556640625,-1.00787353515625
1759318070476,413497420,4254,26,-0.017822265625,-0.06451416015625,-1.00445556640625
1759318070476,413497420,4254,27,-0.017333984375,-0.06353759765625,-1.00689697265625
1759318070476,413497420,4254,28,-0.018798828125,-0.06182861328125,-1.00543212890625
1759318070476,413497420,4254,29,-0.018310546875,-0.06158447265625,-1.00762939453125
1759318070476,413497420,4254,30,-0.0185546875,-0.06256103515625,-1.00689697265625
1759318070476,413497420,4254,31,-0.017822265625,-0.05914306640625,-1.00738525390625
1759318072816,413499963,4255,0,-0.018310546875,-0.05987548828125,-1.00885009765625
1759318072816,413499963,4255,1,-0.017822265625,-0.06060791015625,-1.00836181640625
1759318072816,413499963,4255,2,-0.017578125,-0.06011962890625,-1.00689697265625
1759318072816,413499963,4255,3,-0.01708984375,-0.06109619140625,-1.00762939453125
1759318072816,413499963,4255,4,-0.01904296875,-0.06524658203125,-1.00616455078125
1759318072816,413499963,4255,5,-0.01953125,-0.06524658203125,-1.00445556640625
1759318072816,413499963,4255,6,-0.0185546875,-0.06768798828125,-1.00640869140625
1759318072816,413499963,4255,7,-0.01806640625,-0.06573486328125,-1.00811767578125
1759318072816,413499963,4255,8,-0.020751953125,-0.06622314453125,-1.00958251953125
1759318072816,413499963,4255,9,-0.021728515625,-0.06549072265625,-1.00445556640625
1759318072816,413499963,4255,10,-0.02294921875,-0.06573486328125,-1.00616455078125
1759318072816,413499963,4255,11,-0.023193359375,-0.06768798828125,-1.00885009765625
1759318072816,413499963,4255,12,-0.020751953125,-0.06744384765625,-1.00689697265625
1759318072816,413499963,4255,13,-0.020751953125,-0.07159423828125,-1.00738525390625
1759318072816,413499963,4255,14,-0.021240234375,-0.06939697265625,-1.00762939453125
1759318072816,413499963,4255,15,-0.022216796875,-0.07183837890625,-1.00982666015625
1759318072816,413499963,4255,16,-0.021728515625,-0.06988525390625,-1.00689697265625
1759318072816,413499963,4255,17,-0.020263671875,-0.06939697265625,-1.00469970703125
1759318072816,413499963,4255,18,-0.0224609375,-0.06573486328125,-1.00982666015625
1759318072816,413499963,4255,19,-0.02392578125,-0.06890869140625,-1.00616455078125
1759318072816,413499963,4255,20,-0.0234375,-0.06988525390625,-1.00494384765625
1759318072816,413499963,4255,21,-0.025146484375,-0.06890869140625,-1.00665283203125
1759318072816,413499963,4255,22,-0.02490234375,-0.06964111328125,-1.00909423828125
1759318072816,413499963,4255,23,-0.022705078125,-0.06768798828125,-1.00518798828125
1759318072816,413499963,4255,24,-0.021728515625,-0.06939697265625,-1.01007080078125
1759318072816,413499963,4255,25,-0.019775390625,-0.06915283203125,-1.00836181640625
1759318072816,413499963,4255,26,-0.0205078125,-0.06549072265625,-1.00762939453125
1759318072816,413499963,4255,27,-0.02099609375,-0.06671142578125,-1.00738525390625
1759318072816,413499963,4255,28,-0.017578125,-0.06842041015625,-1.00762939453125
1759318072816,413499963,4255,29,-0.01806640625,-0.06622314453125,-1.00543212890625
1759318072816,413499963,4255,30,-0.017578125,-0.06817626953125,-1.00543212890625
1759318072816,413499963,4255,31,-0.01611328125,-0.06475830078125,-1.00787353515625
1759318074766,413502507,4256,0,-0.01611328125,-0.06524658203125,-1.00714111328125
1759318074766,413502507,4256,1,-0.01513671875,-0.06817626953125,-1.00811767578125
1759318074766,413502507,4256,2,-0.01611328125,-0.06353759765625,-1.00811767578125
1759318074766,413502507,4256,3,-0.01611328125,-0.06304931640625,-1.00885009765625
1759318074766,413502507,4256,4,-0.0146484375,-0.06402587890625,-1.00811767578125
1759318074766,413502507,4256,5,-0.01220703125,-0.06378173828125,-1.00738525390625
1759318074766,413502507,4256,6,-0.011962890625,-0.06671142578125,-1.00567626953125
1759318074766,413502507,4256,7,-0.01123046875,-0.06524658203125,-1.00836181640625
1759318074766,413502507,4256,8,-0.01171875,-0.06573486328125,-1.00860595703125
1759318074766,413502507,4256,9,-0.008544921875,-0.06402587890625,-1.00738525390625
1759318074766,413502507,4256,10,-0.0126953125,-0.06524658203125,-1.00811767578125
1759318074766,413502507,4256,11,-0.0107421875,-0.06866455078125,-1.00738525390625
1759318074766,413502507,4256,12,-0.01318359375,-0.06744384765625,-1.00738525390625
1759318074766,413502507,4256,13,-0.013671875,-0.06817626953125,-1.00518798828125
1759318074766,413502507,4256,14,-0.0126953125,-0.06964111328125,-1.00689697265625
1759318074766,413502507,4256,15,-0.010986328125,-0.07012939453125,-1.00714111328125
1759318074766,413502507,4256,16,-0.011962890625,-0.06964111328125,-1.00592041015625
1759318074766,413502507,4256,17,-0.0126953125,-0.06988525390625,-1.00787353515625
1759318074766,413502507,4256,18,-0.011474609375,-0.07135009765625,-1.00689697265625
1759318074766,413502507,4256,19,-0.011962890625,-0.07159423828125,-1.00762939453125
1759318074766,413502507,4256,20,-0.01318359375,-0.07208251953125,-1.00518798828125
1759318074766,413502507,4256,21,-0.01220703125,-0.06768798828125,-1.00885009765625
1759318074766,413502507,4256,22,-0.012939453125,-0.06817626953125,-1.00445556640625
1759318074766,413502507,4256,23,-0.015625,-0.07183837890625,-1.00640869140625
1759318074766,413502507,4256,24,-0.013916015625,-0.06671142578125,-1.00714111328125
1759318074766,413502507,4256,25,-0.01171875,-0.06890869140625,-1.00762939453125
1759318074766,413502507,4256,26,-0.014404296875,-0.07110595703125,-1.00421142578125
1759318074766,413502507,4256,27,-0.014404296875,-0.07086181640625,-1.00787353515625
1759318074766,413502507,4256,28,-0.0146484375,-0.06915283203125,-1.00592041015625
1759318074766,413502507,4256,29,-0.01611328125,-0.06768798828125,-1.00543212890625
1759318074766,413502507,4256,30,-0.014892578125,-0.06768798828125,-1.00738525390625
1759318074766,413502507,4256,31,-0.015380859375,-0.06524658203125,-1.00860595703125
1759318077692,413505050,4257,0,-0.01318359375,-0.06646728515625,-1.00469970703125
1759318077692,413505050,4257,1,-0.01416015625,-0.06475830078125,-1.00616455078125
1759318077692,413505050,4257,2,-0.01708984375,-0.06329345703125,-1.00958251953125
1759318077692,413505050,4257,3,-0.015380859375,-0.06378173828125,-1.00811767578125
1759318077692,413505050,4257,4,-0.014892578125,-0.06304931640625,-1.00323486328125
1759318077692,413505050,4257,5,-0.015869140625,-0.06134033203125,-1.00933837890625
1759318077692,413505050,4257,6,-0.0166015625,-0.06109619140625,-1.00738525390625
1759318077692,413505050,4257,7,-0.01611328125,-0.06256103515625,-1.00738525390625
1759318077692,413505050,4257,8,-0.013916015625,-0.06060791015625,-1.00592041015625
1759318077692,413505050,4257,9,-0.0166015625,-0.06060791015625,-1.00616455078125
1759318077692,413505050,4257,10,-0.014404296875,-0.06085205078125,-1.00714111328125
1759318077692,413505050,4257,11,-0.016357421875,-0.05987548828125,-1.00616455078125
1759318077692,413505050,4257,12,-0.013427734375,-0.05889892578125,-1.00860595703125
1759318077692,413505050,4257,13,-0.013671875,-0.06011962890625,-1.00640869140625
1759318077692,413505050,4257,14,-0.013671875,-0.06060791015625,-1.00592041015625
1759318077692,413505050,4257,15,-0.015869140625,-0.06231689453125,-1.00762939453125
1759318077692,413505050,4257,16,-0.015625,-0.06256103515625,-1.00738525390625
1759318077692,413505050,4257,17,-0.016357421875,-0.06207275390625,-1.00665283203125
1759318077692,413505050,4257,18,-0.0166015625,-0.06280517578125,-1.00836181640625
1759318077692,413505050,4257,19,-0.01708984375,-0.06329345703125,-1.00543212890625
1759318077692,413505050,4257,20,-0.0166015625,-0.06304931640625,-1.00543212890625
1759318077692,413505050,4257,21,-0.017578125,-0.06304931640625,-1.00811767578125
1759318077692,413505050,4257,22,-0.018310546875,-0.06500244140625,-1.00665283203125
1759318077692,413505050,4257,23,-0.01611328125,-0.06549072265625,-1.00469970703125
1759318077692,413505050,4257,24,-0.018798828125,-0.06549072265625,-1.00396728515625
1759318077692,413505050,4257,25,-0.017578125,-0.06719970703125,-1.01104736328125
1759318077692,413505050,4257,26,-0.018310546875,-0.06304931640625,-1.00811767578125
1759318077692,413505050,4257,27,-0.018798828125,-0.06719970703125,-1.00762939453125
1759318077692,413505050,4257,28,-0.019287109375,-0.06500244140625,-1.00762939453125
1759318077692,413505050,4257,29,-0.01953125,-0.06622314453125,-1.00860595703125
1759318077692,413505050,4257,30,-0.0205078125,-0.06719970703125,-1.00811767578125
1759318077692,413505050,4257,31,-0.01806640625,-0.06573486328125,-1.00738525390625
1759318079837,413507593,4258,0,-0.01953125,-0.06451416015625,-1.00714111328125
1759318079837,413507593,4258,1,-0.017822265625,-0.06524658203125,-1.00592041015625
1759318079837,413507593,4258,2,-0.01806640625,-0.06402587890625,-1.00665283203125
1759318079837,413507593,4258,3,-0.0185546875,-0.06256103515625,-1.00909423828125
1759318079837,413507593,4258,4,-0.016845703125,-0.06524658203125,-1.00494384765625
1759318079837,413507593,4258,5,-0.016357421875,-0.06402587890625,-1.00592041015625
1759318079837,413507593,4258,6,-0.017822265625,-0.06500244140625,-1.00860595703125
1759318079837,413507593,4258,7,-0.015625,-0.06353759765625,-1.00518798828125
1759318079837,413507593,4258,8,-0.01708984375,-0.06378173828125,-1.00616455078125
1759318079837,413507593,4258,9,-0.01611328125,-0.06353759765625,-1.01129150390625
1759318079837,413507593,4258,10,-0.01513671875,-0.06378173828125,-1.00885009765625
1759318079837,413507593,4258,11,-0.017578125,-0.06304931640625,-1.00787353515625
1759318079837,413507593,4258,12,-0.01611328125,-0.06256103515625,-1.00469970703125
1759318079837,413507593,4258,13,-0.01513671875,-0.06134033203125,-1.00909423828125
1759318079837,413507593,4258,14,-0.013916015625,-0.06378173828125,-1.00494384765625
1759318079837,413507593,4258,15,-0.014892578125,-0.06109619140625,-1.00592041015625
1759318079837,413507593,4258,16,-0.013427734375,-0.06085205078125,-1.00836181640625
1759318079837,413507593,4258,17,-0.01611328125,-0.06109619140625,-1.00518798828125
1759318079837,413507593,4258,18,-0.013427734375,-0.05987548828125,-1.01055908203125
1759318079837,413507593,4258,19,-0.011962890625,-0.06158447265625,-1.00860595703125
1759318079837,413507593,4258,20,-0.013916015625,-0.05938720703125,-1.00738525390625
1759318079837,413507593,4258,21,-0.013671875,-0.05914306640625,-1.00860595703125
1759318079837,413507593,4258,22,-0.015869140625,-0.06060791015625,-1.00836181640625
1759318079837,413507593,4258,23,-0.01416015625,-0.05865478515625,-1.00885009765625
1759318079837,413507593,4258,24,-0.013427734375,-0.06134033203125,-1.00738525390625
1759318079837,413507593,4258,25,-0.013427734375,-0.06036376953125,-1.00518798828125
1759318079837,413507593,4258,26,-0.016845703125,-0.06182861328125,-1.00811767578125
1759318079837,413507593,4258,27,-0.016357421875,-0.06109619140625,-1.00616455078125
1759318079837,413507593,4258,28,-0.01611328125,-0.06182861328125,-1.00689697265625
1759318079837,413507593,4258,29,-0.01611328125,-0.06353759765625,-1.00665283203125
1759318079837,413507593,4258,30,-0.0146484375,-0.06256103515625,-1.00762939453125
1759318079837,413507593,4258,31,-0.016845703125,-0.06402587890625,-1.00787353515625
1759318082371,413510136,4259,0,-0.01513671875,-0.06329345703125,-1.00909423828125
1759318082371,413510136,4259,1,-0.016845703125,-0.06475830078125,-1.00811767578125
1759318082371,413510136,4259,2,-0.017333984375,-0.06158447265625,-1.00714111328125
1759318082371,413510136,4259,3,-0.018310546875,-0.06671142578125,-1.00787353515625
1759318082371,413510136,4259,4,-0.0185546875,-0.06524658203125,-1.00665283203125
1759318082371,413510136,4259,5,-0.017333984375,-0.06573486328125,-1.00421142578125
1759318082371,413510136,4259,6,-0.0205078125,-0.06890869140625,-1.00616455078125
1759318082371,413510136,4259,7,-0.01806640625,-0.06524658203125,-1.00616455078125
1759318082371,413510136,4259,8,-0.02001953125,-0.06182861328125,-1.00445556640625
1759318082371,413510136,4259,9,-0.017822265625,-0.06524658203125,-1.01007080078125
1759318082371,413510136,4259,10,-0.01904296875,-0.06573486328125,-1.00787353515625
1759318082371,413510136,4259,11,-0.01904296875,-0.06646728515625,-1.00811767578125
1759318082371,413510136,4259,12,-0.0185546875,-0.06402587890625,-1.00665283203125
1759318082371,413510136,4259,13,-0.019287109375,-0.06402587890625,-1.00616455078125
1759318082371,413510136,4259,14,-0.017333984375,-0.06427001953125,-1.00616455078125
1759318082371,413510136,4259,15,-0.017578125,-0.06304931640625,-1.00494384765625
1759318082371,413510136,4259,16,-0.018310546875,-0.06353759765625,-1.00421142578125
1759318082371,413510136,4259,17,-0.01708984375,-0.06109619140625,-1.00640869140625
1759318082371,413510136,4259,18,-0.017333984375,-0.05987548828125,-1.00592041015625
1759318082371,413510136,4259,19,-0.017578125,-0.06109619140625,-1.00909423828125
1759318082371,413510136,4259,20,-0.0185546875,-0.05987548828125,-1.00714111328125
1759318082371,413510136,4259,21,-0.016845703125,-0.06036376953125,-1.00836181640625
1759318082371,413510136,4259,22,-0.017578125,-0.06109619140625,-1.00787353515625
1759318082371,413510136,4259,23,-0.0166015625,-0.06036376953125,-1.00738525390625
1759318082371,413510136,4259,24,-0.014404296875,-0.05987548828125,-1.00689697265625
1759318082371,413510136,4259,25,-0.0166015625,-0.06036376953125,-1.00714111328125
1759318082371,413510136,4259,26,-0.017578125,-0.05889892578125,-1.00421142578125
1759318082371,413510136,4259,27,-0.017578125,-0.05792236328125,-1.00616455078125
1759318082371,413510136,4259,28,-0.018310546875,-0.05743408203125,-1.00689697265625
1759318082371,413510136,4259,29,-0.015625,-0.05670166015625,-1.00982666015625
1759318082371,413510136,4259,30,-0.018798828125,-0.05694580078125,-1.00958251953125
1759318082371,413510136,4259,31,-0.017333984375,-0.05792236328125,-1.00811767578125
1759318085294,413512679,4260,0,-0.017333984375,-0.05841064453125,-1.00665283203125
1759318085294,413512679,4260,1,-0.017822265625,-0.05865478515625,-1.00714111328125
1759318085294,413512679,4260,2,-0.01708984375,-0.05914306640625,-1.00616455078125
1759318085294,413512679,4260,3,-0.0185546875,-0.06158447265625,-1.00738525390625
1759318085294,413512679,4260,4,-0.018310546875,-0.05938720703125,-1.00982666015625
1759318085294,413512679,4260,5,-0.0205078125,-0.05865478515625,-1.00714111328125
1759318085294,413512679,4260,6,-0.01953125,-0.06011962890625,-1.00543212890625
1759318085294,413512679,4260,7,-0.020263671875,-0.06280517578125,-1.00787353515625
1759318085294,413512679,4260,8,-0.0205078125,-0.06207275390625,-1.00592041015625
1759318085294,413512679,4260,9,-0.0224609375,-0.06524658203125,-1.00860595703125
1759318085294,413512679,4260,10,-0.02197265625,-0.06402587890625,-1.00640869140625
1759318085294,413512679,4260,11,-0.023193359375,-0.06353759765625,-1.01007080078125
1759318085294,413512679,4260,12,-0.023193359375,-0.06793212890625,-1.01080322265625
1759318085294,413512679,4260,13,-0.021240234375,-0.06451416015625,-1.00958251953125
1759318085294,413512679,4260,14,-0.02294921875,-0.06646728515625,-1.00616455078125
1759318085294,413512679,4260,15,-0.0234375,-0.06549072265625,-1.00958251953125
1759318085294,413512679,4260,16,-0.022705078125,-0.06622314453125,-1.00543212890625
1759318085294,413512679,4260,17,-0.021728515625,-0.06646728515625,-1.00592041015625
1759318085294,413512679,4260,18,-0.020263671875,-0.06671142578125,-1.00860595703125
1759318085294,413512679,4260,19,-0.020751953125,-0.06622314453125,-1.00616455078125
1759318085294,413512679,4260,20,-0.02197265625,-0.06890869140625,-1.00860595703125
1759318085294,413512679,4260,21,-0.0205078125,-0.06500244140625,-1.00543212890625
1759318085294,413512679,4260,22,-0.021240234375,-0.06573486328125,-1.00958251953125
1759318085294,413512679,4260,23,-0.021728515625,-0.06353759765625,-1.00714111328125
1759318085294,413512679,4260,24,-0.022705078125,-0.06134033203125,-1.00592041015625
1759318085294,413512679,4260,25,-0.021728515625,-0.06280517578125,-1.00909423828125
1759318085294,413512679,4260,26,-0.0205078125,-0.06427001953125,-1.01007080078125
1759318085294,413512679,4260,27,-0.022705078125,-0.06134033203125,-1.00714111328125
1759318085294,413512679,4260,28,-0.02392578125,-0.06109619140625,-1.00494384765625
1759318085294,413512679,4260,29,-0.020751953125,-0.05987548828125,-1.00518798828125
1759318085294,413512679,4260,30,-0.021240234375,-0.05914306640625,-1.00787353515625
1759318085294,413512679,4260,31,-0.020751953125,-0.06011962890625,-1.00860595703125
1759318087633,413515222,4261,0,-0.020263671875,-0.05963134765625,-1.00762939453125
1759318087633,413515222,4261,1,-0.019775390625,-0.05938720703125,-1.00787353515625
1759318087633,413515222,4261,2,-0.020751953125,-0.05718994140625,-1.00665283203125
1759318087633,413515222,4261,3,-0.020263671875,-0.05963134765625,-1.00933837890625
1759318087633,413515222,4261,4,-0.0185546875,-0.05767822265625,-1.00738525390625
1759318087633,413515222,4261,5,-0.019775390625,-0.06011962890625,-1.00494384765625
1759318087633,413515222,4261,6,-0.021484375,-0.05596923828125,-1.00909423828125
1759318087633,413515222,4261,7,-0.01904296875,-0.05938720703125,-1.00592041015625
1759318087633,413515222,4261,8,-0.016845703125,-0.05987548828125,-1.00567626953125
1759318087633,413515222,4261,9,-0.020263671875,-0.06011962890625,-1.00885009765625
1759318087633,413515222,4261,10,-0.020263671875,-0.05792236328125,-1.00787353515625
1759318087633,413515222,4261,11,-0.02099609375,-0.06109619140625,-1.00762939453125
1759318087633,413515222,4261,12,-0.0244140625,-0.06158447265625,-1.00933837890625
