receivedPhoneTimestamp,respeckTimestamp,packetSeqNum,sampleSeqNum,accelX,accelY,accelZ
1760226663158,1350369175,21972,26,-0.208984375,-0.97442626953125,0.10906982421875
1760226663158,1350369175,21972,27,-0.2109375,-0.97760009765625,0.11419677734375
1760226663158,1350369175,21972,28,-0.20751953125,-0.97955322265625,0.10711669921875
1760226663158,1350369175,21972,29,-0.20556640625,-0.97711181640625,0.10394287109375
1760226663158,1350369175,21972,30,-0.206787109375,-0.98101806640625,0.10028076171875
1760226663158,1350369175,21972,31,-0.2021484375,-0.97808837890625,0.09515380859375
1760226665715,1350371694,21973,0,-0.201416015625,-0.98077392578125,0.09149169921875
1760226665715,1350371694,21973,1,-0.197021484375,-0.98028564453125,0.08807373046875
1760226665715,1350371694,21973,2,-0.193603515625,-0.98223876953125,0.08123779296875
1760226665715,1350371694,21973,3,-0.18115234375,-0.98907470703125,0.06976318359375
1760226665715,1350371694,21973,4,-0.17626953125,-0.98785400390625,0.06072998046875
1760226665715,1350371694,21973,5,-0.177734375,-0.98541259765625,0.06024169921875
1760226665715,1350371694,21973,6,-0.189697265625,-0.98443603515625,0.06121826171875
1760226665715,1350371694,21973,7,-0.181884765625,-0.98834228515625,0.05462646484375
1760226665715,1350371694,21973,8,-0.179443359375,-0.99053955078125,0.05682373046875
1760226665715,1350371694,21973,9,-0.184814453125,-0.98663330078125,0.05413818359375
1760226665715,1350371694,21973,10,-0.185546875,-0.98590087890625,0.05755615234375
1760226665715,1350371694,21973,11,-0.186767578125,-0.99005126953125,0.05145263671875
1760226665715,1350371694,21973,12,-0.1787109375,-0.99005126953125,0.04461669921875
1760226665715,1350371694,21973,13,-0.179443359375,-0.98858642578125,0.04779052734375
1760226665715,1350371694,21973,14,-0.184326171875,-0.98907470703125,0.04779052734375
1760226665715,1350371694,21973,15,-0.17919921875,-0.98687744140625,0.03948974609375
1760226665715,1350371694,21973,16,-0.17919921875,-0.98712158203125,0.03778076171875
1760226665715,1350371694,21973,17,-0.1806640625,-0.98907470703125,0.03729248046875
1760226665715,1350371694,21973,18,-0.17578125,-0.98834228515625,0.03778076171875
1760226665715,1350371694,21973,19,-0.179931640625,-0.99078369140625,0.03143310546875
1760226665715,1350371694,21973,20,-0.17333984375,-0.99273681640625,0.03265380859375
1760226665715,1350371694,21973,21,-0.173583984375,-0.99127197265625,0.03314208984375
1760226665715,1350371694,21973,22,-0.179931640625,-0.98785400390625,0.03607177734375
1760226665715,1350371694,21973,23,-0.171630859375,-0.99053955078125,0.03558349609375
1760226665715,1350371694,21973,24,-0.17138671875,-0.99395751953125,0.03387451171875
1760226665715,1350371694,21973,25,-0.17822265625,-0.98834228515625,0.04022216796875
1760226665715,1350371694,21973,26,-0.176513671875,-0.99200439453125,0.03997802734375
1760226665715,1350371694,21973,27,-0.17333984375,-0.98980712890625,0.03656005859375
1760226665715,1350371694,21973,28,-0.171875,-0.99029541015625,0.04046630859375
1760226665715,1350371694,21973,29,-0.173095703125,-0.99420166015625,0.03948974609375
1760226665715,1350371694,21973,30,-0.171875,-0.99102783203125,0.03704833984375
1760226665715,1350371694,21973,31,-0.174560546875,-0.98858642578125,0.03948974609375
1760226668244,1350374213,21974,0,-0.1787109375,-0.99200439453125,0.03631591796875
1760226668244,1350374213,21974,1,-0.1728515625,-0.99273681640625,0.03485107421875
1760226668244,1350374213,21974,2,-0.176513671875,-0.99273681640625,0.03875732421875
1760226668244,1350374213,21974,3,-0.177978515625,-0.99029541015625,0.03582763671875
1760226668244,1350374213,21974,4,-0.177001953125,-0.99053955078125,0.04193115234375
1760226668244,1350374213,21974,5,-0.183349609375,-0.98663330078125,0.04412841796875
1760226668244,1350374213,21974,6,-0.178955078125,-0.98931884765625,0.04315185546875
1760226668244,1350374213,21974,7,-0.182373046875,-0.98907470703125,0.04437255859375
1760226668244,1350374213,21974,8,-0.18359375,-0.98883056640625,0.05316162109375
1760226668244,1350374213,21974,9,-0.1875,-0.98492431640625,0.05364990234375
1760226668244,1350374213,21974,10,-0.18603515625,-0.98931884765625,0.05023193359375
1760226668244,1350374213,21974,11,-0.186279296875,-0.98858642578125,0.05535888671875
1760226668244,1350374213,21974,12,-0.189453125,-0.99102783203125,0.04852294921875
1760226668244,1350374213,21974,13,-0.1826171875,-0.98907470703125,0.04656982421875
1760226668244,1350374213,21974,14,-0.183837890625,-0.99078369140625,0.04339599609375
1760226668244,1350374213,21974,15,-0.181884765625,-0.98858642578125,0.04583740234375
1760226668244,1350374213,21974,16,-0.182373046875,-0.99053955078125,0.03973388671875
1760226668244,1350374213,21974,17,-0.182373046875,-0.98907470703125,0.03973388671875
1760226668244,1350374213,21974,18,-0.181396484375,-0.99005126953125,0.03436279296875
1760226668244,1350374213,21974,19,-0.190673828125,-0.99176025390625,0.03900146484375
1760226668244,1350374213,21974,20,-0.190185546875,-0.99468994140625,0.03118896484375
1760226668244,1350374213,21974,21,-0.177490234375,-0.99029541015625,0.02020263671875
1760226668244,1350374213,21974,22,-0.16845703125,-0.99322509765625,0.02337646484375
1760226668244,1350374213,21974,23,-0.175048828125,-0.99176025390625,0.01849365234375
1760226668244,1350374213,21974,24,-0.18212890625,-0.98956298828125,0.02044677734375
1760226668244,1350374213,21974,25,-0.18310546875,-0.99298095703125,0.01922607421875
1760226668244,1350374213,21974,26,-0.17626953125,-0.99298095703125,0.01385498046875
1760226668244,1350374213,21974,27,-0.181396484375,-0.98931884765625,0.02703857421875
1760226668244,1350374213,21974,28,-0.178466796875,-0.99224853515625,0.02215576171875
1760226668244,1350374213,21974,29,-0.167236328125,-0.99371337890625,0.01507568359375
1760226668244,1350374213,21974,30,-0.17431640625,-0.99176025390625,0.02044677734375
1760226668244,1350374213,21974,31,-0.180419921875,-0.99029541015625,0.01898193359375
1760226670782,1350376732,21975,0,-0.177490234375,-0.99249267578125,0.01702880859375
1760226670782,1350376732,21975,1,-0.17626953125,-0.98883056640625,0.01629638671875
1760226670782,1350376732,21975,2,-0.17626953125,-0.99249267578125,0.01580810546875
1760226670782,1350376732,21975,3,-0.177978515625,-0.98809814453125,0.02044677734375
1760226670782,1350376732,21975,4,-0.172607421875,-0.99176025390625,0.01605224609375
1760226670782,1350376732,21975,5,-0.1748046875,-0.99517822265625,0.01263427734375
1760226670782,1350376732,21975,6,-0.1728515625,-0.99249267578125,0.01483154296875
1760226670782,1350376732,21975,7,-0.168701171875,-0.99176025390625,0.00726318359375
1760226670782,1350376732,21975,8,-0.17236328125,-0.99786376953125,0.00897216796875
1760226670782,1350376732,21975,9,-0.171875,-0.99395751953125,0.00677490234375
1760226670782,1350376732,21975,10,-0.1708984375,-0.99615478515625,0.00799560546875
1760226670782,1350376732,21975,11,-0.16650390625,-0.99102783203125,0.00311279296875
1760226670782,1350376732,21975,12,-0.169677734375,-0.99249267578125,0.00701904296875
1760226670782,1350376732,21975,13,-0.170654296875,-0.99346923828125,0.00457763671875
1760226670782,1350376732,21975,14,-0.171875,-0.98980712890625,0.00457763671875
1760226670782,1350376732,21975,15,-0.16748046875,-0.99151611328125,0.00360107421875
1760226670782,1350376732,21975,16,-0.173583984375,-0.99249267578125,0.00994873046875
1760226670782,1350376732,21975,17,-0.169677734375,-0.99224853515625,0.00775146484375
1760226670782,1350376732,21975,18,-0.175048828125,-0.99444580078125,0.01287841796875
1760226670782,1350376732,21975,19,-0.16748046875,-0.99371337890625,0.00408935546875
1760226670782,1350376732,21975,20,-0.166748046875,-0.99176025390625,0.00433349609375
1760226670782,1350376732,21975,21,-0.16943359375,-0.99395751953125,0.00384521484375
1760226670782,1350376732,21975,22,-0.168701171875,-0.99517822265625,0.00286865234375
1760226670782,1350376732,21975,23,-0.169921875,-0.99395751953125,-0.00079345703125
1760226670782,1350376732,21975,24,-0.166748046875,-0.99224853515625,0.00311279296875
1760226670782,1350376732,21975,25,-0.16455078125,-0.99371337890625,-0.00177001953125
1760226670782,1350376732,21975,26,-0.163330078125,-0.99127197265625,0.00433349609375
1760226670782,1350376732,21975,27,-0.171630859375,-0.99322509765625,0.00653076171875
1760226670782,1350376732,21975,28,-0.172119140625,-0.99444580078125,0.00482177734375
1760226670782,1350376732,21975,29,-0.162841796875,-0.99151611328125,0.00238037109375
1760226670782,1350376732,21975,30,-0.163330078125,-0.99371337890625,-6.103515625e-05
1760226670782,1350376732,21975,31,-0.164794921875,-0.99151611328125,-0.00372314453125
1760226673323,1350379251,21976,0,-0.166015625,-0.99371337890625,-0.00103759765625
1760226673323,1350379251,21976,1,-0.16796875,-0.99200439453125,-0.00445556640625
1760226673323,1350379251,21976,2,-0.166259765625,-0.99273681640625,-0.00689697265625
1760226673323,1350379251,21976,3,-0.158447265625,-0.99517822265625,-0.01226806640625
1760226673323,1350379251,21976,4,-0.15673828125,-0.99517822265625,-0.01641845703125
1760226673323,1350379251,21976,5,-0.150634765625,-0.99542236328125,-0.02178955078125
1760226673323,1350379251,21976,6,-0.15234375,-0.99615478515625,-0.02154541015625
1760226673323,1350379251,21976,7,-0.153564453125,-0.99664306640625,-0.02276611328125
1760226673323,1350379251,21976,8,-0.150146484375,-0.99713134765625,-0.02569580078125
1760226673323,1350379251,21976,9,-0.14111328125,-1.00152587890625,-0.02838134765625
1760226673323,1350379251,21976,10,-0.1474609375,-1.00030517578125,-0.02545166015625
1760226673323,1350379251,21976,11,-0.144775390625,-1.00054931640625,-0.02545166015625
1760226673323,1350379251,21976,12,-0.143310546875,-0.99468994140625,-0.02374267578125
1760226673323,1350379251,21976,13,-0.147216796875,-0.99517822265625,-0.01861572265625
1760226673323,1350379251,21976,14,-0.149169921875,-0.99444580078125,-0.01788330078125
1760226673323,1350379251,21976,15,-0.1494140625,-0.99786376953125,-0.02178955078125
1760226673323,1350379251,21976,16,-0.14453125,-0.99615478515625,-0.01519775390625
1760226673323,1350379251,21976,17,-0.147216796875,-0.99859619140625,-0.00299072265625
1760226673323,1350379251,21976,18,-0.154296875,-0.99615478515625,0.00604248046875
1760226673323,1350379251,21976,19,-0.16162109375,-0.99371337890625,0.01239013671875
1760226673323,1350379251,21976,20,-0.15673828125,-0.99176025390625,0.01654052734375
1760226673323,1350379251,21976,21,-0.15625,-0.99493408203125,0.00750732421875
1760226673323,1350379251,21976,22,-0.159912109375,-0.99322509765625,0.02142333984375
1760226673323,1350379251,21976,23,-0.162841796875,-0.99493408203125,0.01922607421875
1760226673323,1350379251,21976,24,-0.15869140625,-0.99151611328125,0.01239013671875
1760226673323,1350379251,21976,25,-0.15478515625,-0.99053955078125,0.01068115234375
1760226673323,1350379251,21976,26,-0.159912109375,-0.99395751953125,0.00408935546875
1760226673323,1350379251,21976,27,-0.165283203125,-0.99249267578125,0.01019287109375
1760226673323,1350379251,21976,28,-0.152587890625,-0.99493408203125,-0.00225830078125
1760226673323,1350379251,21976,29,-0.155029296875,-0.99591064453125,0.00482177734375
1760226673323,1350379251,21976,30,-0.160400390625,-0.99371337890625,0.00482177734375
1760226673323,1350379251,21976,31,-0.16015625,-0.99371337890625,0.00286865234375
1760226675849,1350381770,21977,0,-0.160888671875,-0.99371337890625,-0.00177001953125
1760226675849,1350381770,21977,1,-0.16357421875,-0.99444580078125,0.00408935546875
1760226675849,1350381770,21977,2,-0.16259765625,-0.99639892578125,-0.00225830078125
1760226675849,1350381770,21977,3,-0.159423828125,-0.99224853515625,-0.00567626953125
1760226675849,1350381770,21977,4,-0.160400390625,-0.99395751953125,-0.00469970703125
1760226675849,1350381770,21977,5,-0.160888671875,-0.99639892578125,-0.00299072265625
1760226675849,1350381770,21977,6,-0.16552734375,-0.99517822265625,-0.00567626953125
1760226675849,1350381770,21977,7,-0.16552734375,-0.99615478515625,-0.00543212890625
1760226675849,1350381770,21977,8,-0.16552734375,-0.99591064453125,-0.01275634765625
1760226675849,1350381770,21977,9,-0.166015625,-0.99273681640625,-0.00494384765625
1760226675849,1350381770,21977,10,-0.16748046875,-0.99371337890625,-0.00860595703125
1760226675849,1350381770,21977,11,-0.165771484375,-0.99493408203125,-0.01397705078125
1760226675849,1350381770,21977,12,-0.164306640625,-0.99542236328125,-0.00909423828125
1760226675849,1350381770,21977,13,-0.16455078125,-0.99127197265625,-0.01324462890625
1760226675849,1350381770,21977,14,-0.166259765625,-0.99346923828125,-0.01153564453125
1760226675849,1350381770,21977,15,-0.166259765625,-0.99346923828125,-0.01202392578125
1760226675849,1350381770,21977,16,-0.164306640625,-0.99298095703125,-0.01300048828125
1760226675849,1350381770,21977,17,-0.1669921875,-0.99200439453125,-0.00592041015625
1760226675849,1350381770,21977,18,-0.16796875,-0.99346923828125,-0.00543212890625
1760226675849,1350381770,21977,19,-0.166748046875,-0.99542236328125,-0.01348876953125
1760226675849,1350381770,21977,20,-0.166748046875,-0.99151611328125,-0.00567626953125
1760226675849,1350381770,21977,21,-0.1689453125,-0.99542236328125,-0.00860595703125
1760226675849,1350381770,21977,22,-0.173583984375,-0.99298095703125,-0.00421142578125
1760226675849,1350381770,21977,23,-0.171630859375,-0.99444580078125,-0.00592041015625
1760226675849,1350381770,21977,24,-0.16845703125,-0.99322509765625,-0.01031494140625
1760226675849,1350381770,21977,25,-0.16748046875,-0.99444580078125,-0.00567626953125
1760226675849,1350381770,21977,26,-0.169677734375,-0.99639892578125,-0.01153564453125
1760226675849,1350381770,21977,27,-0.16552734375,-0.99468994140625,-0.00762939453125
1760226675849,1350381770,21977,28,-0.1640625,-0.99444580078125,-0.01422119140625
1760226675849,1350381770,21977,29,-0.160400390625,-0.99420166015625,-0.01275634765625
1760226675849,1350381770,21977,30,-0.166748046875,-0.99395751953125,-0.01153564453125
1760226675849,1350381770,21977,31,-0.16796875,-0.99371337890625,-0.01104736328125
1760226678384,1350384289,21978,0,-0.169677734375,-0.99615478515625,-0.00616455078125
1760226678384,1350384289,21978,1,-0.157958984375,-0.99298095703125,-0.01226806640625
1760226678384,1350384289,21978,2,-0.1630859375,-0.99835205078125,-0.01763916015625
1760226678384,1350384289,21978,3,-0.166015625,-0.99517822265625,-0.00616455078125
1760226678384,1350384289,21978,4,-0.16455078125,-0.99542236328125,-0.01007080078125
1760226678384,1350384289,21978,5,-0.16259765625,-0.99517822265625,-0.01031494140625
1760226678384,1350384289,21978,6,-0.158935546875,-0.99322509765625,-0.01031494140625
1760226678384,1350384289,21978,7,-0.155029296875,-0.99468994140625,-0.00469970703125
1760226678384,1350384289,21978,8,-0.155029296875,-0.99566650390625,-0.01104736328125
1760226678384,1350384289,21978,9,-0.1513671875,-0.99444580078125,-0.00958251953125
1760226678384,1350384289,21978,10,-0.161376953125,-0.99835205078125,-0.00885009765625
1760226678384,1350384289,21978,11,-0.156005859375,-0.99395751953125,-0.01593017578125
1760226678384,1350384289,21978,12,-0.13720703125,-1.00128173828125,-0.02496337890625
1760226678384,1350384289,21978,13,-0.14990234375,-0.99298095703125,-0.02911376953125
1760226678384,1350384289,21978,14,-0.147216796875,-1.00128173828125,-0.01959228515625
1760226678384,1350384289,21978,15,-0.15234375,-0.99273681640625,-0.03497314453125
1760226678384,1350384289,21978,16,-0.152099609375,-0.99200439453125,-0.02203369140625
1760226678384,1350384289,21978,17,-0.137451171875,-0.99639892578125,-0.03594970703125
1760226678384,1350384289,21978,18,-0.13330078125,-0.99713134765625,-0.04669189453125
1760226678384,1350384289,21978,19,-0.14013671875,-0.99884033203125,-0.03204345703125
1760226678384,1350384289,21978,20,-0.133544921875,-0.99859619140625,-0.03350830078125
1760226678384,1350384289,21978,21,-0.141357421875,-0.99835205078125,-0.03765869140625
1760226678384,1350384289,21978,22,-0.142333984375,-0.99688720703125,-0.02520751953125
1760226678384,1350384289,21978,23,-0.156982421875,-0.99810791015625,-0.02056884765625
1760226678384,1350384289,21978,24,-0.155517578125,-0.99713134765625,-0.02813720703125
1760226678384,1350384289,21978,25,-0.153076171875,-0.99615478515625,-0.01837158203125
1760226678384,1350384289,21978,26,-0.149169921875,-0.99542236328125,-0.01910400390625
1760226678384,1350384289,21978,27,-0.15185546875,-0.99542236328125,-0.01275634765625
1760226678384,1350384289,21978,28,-0.156494140625,-0.99786376953125,-0.01446533203125
1760226678384,1350384289,21978,29,-0.15234375,-0.99249267578125,-0.01300048828125
1760226678384,1350384289,21978,30,-0.156005859375,-0.99102783203125,-0.01641845703125
1760226678384,1350384289,21978,31,-0.156005859375,-0.99444580078125,-0.01593017578125
1760226680724,1350386808,21979,0,-0.1533203125,-0.99542236328125,-0.02227783203125
1760226680724,1350386808,21979,1,-0.1552734375,-0.99664306640625,-0.01226806640625
1760226680724,1350386808,21979,2,-0.15576171875,-0.99566650390625,-0.01641845703125
1760226680724,1350386808,21979,3,-0.160888671875,-0.99639892578125,-0.01666259765625
1760226680724,1350386808,21979,4,-0.16064453125,-0.99664306640625,-0.01983642578125
1760226680724,1350386808,21979,5,-0.159423828125,-0.99615478515625,-0.02105712890625
1760226680724,1350386808,21979,6,-0.156494140625,-0.99273681640625,-0.01885986328125
1760226680724,1350386808,21979,7,-0.15869140625,-0.99786376953125,-0.01300048828125
1760226680724,1350386808,21979,8,-0.1630859375,-0.99273681640625,-0.01617431640625
1760226680724,1350386808,21979,9,-0.1630859375,-0.99395751953125,-0.01300048828125
1760226680724,1350386808,21979,10,-0.158203125,-0.99664306640625,-0.01007080078125
1760226680724,1350386808,21979,11,-0.15576171875,-0.99395751953125,-0.01568603515625
1760226680724,1350386808,21979,12,-0.15576171875,-0.99688720703125,-0.01324462890625
1760226680724,1350386808,21979,13,-0.152099609375,-0.99493408203125,-0.02105712890625
1760226680724,1350386808,21979,14,-0.15478515625,-0.99468994140625,-0.01446533203125
1760226680724,1350386808,21979,15,-0.154296875,-0.99688720703125,-0.01544189453125
1760226680724,1350386808,21979,16,-0.150390625,-0.99639892578125,-0.02105712890625
1760226680724,1350386808,21979,17,-0.154052734375,-0.99639892578125,-0.01397705078125
1760226680724,1350386808,21979,18,-0.151123046875,-0.99542236328125,-0.02569580078125
1760226680724,1350386808,21979,19,-0.150146484375,-0.99566650390625,-0.02667236328125
1760226680724,1350386808,21979,20,-0.15087890625,-0.99298095703125,-0.02593994140625
1760226680724,1350386808,21979,21,-0.151611328125,-0.99493408203125,-0.03546142578125
1760226680724,1350386808,21979,22,-0.15234375,-0.99859619140625,-0.02984619140625
1760226680724,1350386808,21979,23,-0.14990234375,-0.99639892578125,-0.02618408203125
1760226680724,1350386808,21979,24,-0.146240234375,-0.99542236328125,-0.03033447265625
1760226680724,1350386808,21979,25,-0.14990234375,-0.99468994140625,-0.02740478515625
1760226680724,1350386808,21979,26,-0.153564453125,-0.99737548828125,-0.02935791015625
1760226680724,1350386808,21979,27,-0.151611328125,-0.99884033203125,-0.03179931640625
1760226680724,1350386808,21979,28,-0.1455078125,-0.99615478515625,-0.04254150390625
1760226680724,1350386808,21979,29,-0.151611328125,-0.99517822265625,-0.04425048828125
1760226680724,1350386808,21979,30,-0.145751953125,-0.99835205078125,-0.04742431640625
1760226680724,1350386808,21979,31,-0.15380859375,-0.99761962890625,-0.04693603515625
1760226683259,1350389327,21980,0,-0.15185546875,-0.99615478515625,-0.04718017578125
1760226683259,1350389327,21980,1,-0.144775390625,-0.99615478515625,-0.04986572265625
1760226683259,1350389327,21980,2,-0.144775390625,-0.99859619140625,-0.05206298828125
1760226683259,1350389327,21980,3,-0.15380859375,-0.99884033203125,-0.04302978515625
1760226683259,1350389327,21980,4,-0.144775390625,-0.99420166015625,-0.04791259765625
1760226683259,1350389327,21980,5,-0.1455078125,-0.99517822265625,-0.04351806640625
1760226683259,1350389327,21980,6,-0.14599609375,-0.99810791015625,-0.04571533203125
1760226683259,1350389327,21980,7,-0.1455078125,-0.99713134765625,-0.04425048828125
1760226683259,1350389327,21980,8,-0.144775390625,-0.99542236328125,-0.04205322265625
1760226683259,1350389327,21980,9,-0.146728515625,-0.99639892578125,-0.04400634765625
1760226683259,1350389327,21980,10,-0.1513671875,-1.00006103515625,-0.03692626953125
1760226683259,1350389327,21980,11,-0.153076171875,-0.99639892578125,-0.03619384765625
1760226683259,1350389327,21980,12,-0.15234375,-0.99761962890625,-0.03594970703125
1760226683259,1350389327,21980,13,-0.15234375,-0.99639892578125,-0.02960205078125
1760226683259,1350389327,21980,14,-0.153076171875,-0.99810791015625,-0.02984619140625
1760226683259,1350389327,21980,15,-0.152099609375,-0.99566650390625,-0.02862548828125
1760226683259,1350389327,21980,16,-0.154052734375,-0.99639892578125,-0.02301025390625
1760226683259,1350389327,21980,17,-0.15185546875,-0.99420166015625,-0.02496337890625
1760226683259,1350389327,21980,18,-0.15576171875,-0.99786376953125,-0.02545166015625
1760226683259,1350389327,21980,19,-0.152587890625,-0.99591064453125,-0.02911376953125
1760226683259,1350389327,21980,20,-0.156494140625,-0.99542236328125,-0.01837158203125
1760226683259,1350389327,21980,21,-0.15234375,-0.99713134765625,-0.02008056640625
1760226683259,1350389327,21980,22,-0.157470703125,-0.99713134765625,-0.01275634765625
1760226683259,1350389327,21980,23,-0.152099609375,-0.99664306640625,-0.01373291015625
1760226683259,1350389327,21980,24,-0.147216796875,-0.99298095703125,-0.01959228515625
1760226683259,1350389327,21980,25,-0.1533203125,-0.99566650390625,-0.01104736328125
1760226683259,1350389327,21980,26,-0.153076171875,-0.99395751953125,-0.01202392578125
1760226683259,1350389327,21980,27,-0.156005859375,-0.99420166015625,-0.00982666015625
1760226683259,1350389327,21980,28,-0.14990234375,-0.99420166015625,-0.00738525390625
1760226683259,1350389327,21980,29,-0.152099609375,-0.99932861328125,-0.00836181640625
1760226683259,1350389327,21980,30,-0.1474609375,-0.99688720703125,-0.00885009765625
1760226683259,1350389327,21980,31,-0.150634765625,-0.99884033203125,-0.00665283203125
1760226685793,1350391846,21981,0,-0.153564453125,-0.99151611328125,-0.01031494140625
1760226685793,1350391846,21981,1,-0.150146484375,-0.99566650390625,-0.00543212890625
1760226685793,1350391846,21981,2,-0.15185546875,-0.99761962890625,-0.00762939453125
1760226685793,1350391846,21981,3,-0.15478515625,-0.99786376953125,-0.00714111328125
1760226685793,1350391846,21981,4,-0.151123046875,-0.99444580078125,-0.01275634765625
1760226685793,1350391846,21981,5,-0.14697265625,-0.99371337890625,-0.01690673828125
1760226685793,1350391846,21981,6,-0.145263671875,-0.99591064453125,-0.01275634765625
1760226685793,1350391846,21981,7,-0.158203125,-0.99664306640625,-0.01080322265625
1760226685793,1350391846,21981,8,-0.1484375,-0.99468994140625,-0.01763916015625
1760226685793,1350391846,21981,9,-0.151123046875,-0.99298095703125,-0.01495361328125
1760226685793,1350391846,21981,10,-0.15234375,-0.99639892578125,-0.01202392578125
1760226685793,1350391846,21981,11,-0.1513671875,-0.99542236328125,-0.01470947265625
1760226685793,1350391846,21981,12,-0.1591796875,-0.99688720703125,-0.00836181640625
1760226685793,1350391846,21981,13,-0.162353515625,-0.99517822265625,-0.01251220703125
1760226685793,1350391846,21981,14,-0.157958984375,-0.99615478515625,-0.01470947265625
1760226685793,1350391846,21981,15,-0.166259765625,-0.99615478515625,-0.01690673828125
1760226685793,1350391846,21981,16,-0.16357421875,-0.99591064453125,-0.02008056640625
1760226685793,1350391846,21981,17,-0.16455078125,-0.99688720703125,-0.01470947265625
1760226685793,1350391846,21981,18,-0.160400390625,-0.99395751953125,-0.02056884765625
1760226685793,1350391846,21981,19,-0.157958984375,-0.99615478515625,-0.01837158203125
1760226685793,1350391846,21981,20,-0.1591796875,-0.99908447265625,-0.01763916015625
1760226685793,1350391846,21981,21,-0.1611328125,-0.99493408203125,-0.02008056640625
1760226685793,1350391846,21981,22,-0.163330078125,-0.99395751953125,-0.01715087890625
1760226685793,1350391846,21981,23,-0.157958984375,-0.99493408203125,-0.01251220703125
1760226685793,1350391846,21981,24,-0.1669921875,-0.99273681640625,-0.01055908203125
1760226685793,1350391846,21981,25,-0.16357421875,-0.99688720703125,-0.01031494140625
1760226685793,1350391846,21981,26,-0.16162109375,-0.99420166015625,-0.01446533203125
1760226685793,1350391846,21981,27,-0.1630859375,-0.99468994140625,-0.01837158203125
1760226685793,1350391846,21981,28,-0.16455078125,-0.99298095703125,-0.01715087890625
1760226685793,1350391846,21981,29,-0.158447265625,-0.99493408203125,-0.02349853515625
1760226685793,1350391846,21981,30,-0.160400390625,-0.99493408203125,-0.02325439453125
1760226685793,1350391846,21981,31,-0.15869140625,-0.99713134765625,-0.01617431640625
1760226688341,1350394365,21982,0,-0.164306640625,-0.99468994140625,-0.02276611328125
1760226688341,1350394365,21982,1,-0.16357421875,-0.99591064453125,-0.01983642578125
1760226688341,1350394365,21982,2,-0.158203125,-0.99615478515625,-0.01885986328125
1760226688341,1350394365,21982,3,-0.16455078125,-0.99566650390625,-0.01861572265625
1760226688341,1350394365,21982,4,-0.16259765625,-0.99713134765625,-0.01348876953125
1760226688341,1350394365,21982,5,-0.159912109375,-0.99420166015625,-0.01470947265625
1760226688341,1350394365,21982,6,-0.164306640625,-0.99639892578125,-0.01080322265625
1760226688341,1350394365,21982,7,-0.163818359375,-0.99566650390625,-0.00787353515625
1760226688341,1350394365,21982,8,-0.166748046875,-0.99664306640625,0.00115966796875
1760226688341,1350394365,21982,9,-0.1630859375,-0.99298095703125,-0.00469970703125
1760226688341,1350394365,21982,10,-0.16455078125,-0.99591064453125,0.01043701171875
1760226688341,1350394365,21982,11,-0.162353515625,-0.99420166015625,0.00775146484375
1760226688341,1350394365,21982,12,-0.1572265625,-0.99224853515625,0.00457763671875
1760226688341,1350394365,21982,13,-0.159423828125,-0.99468994140625,0.01068115234375
1760226688341,1350394365,21982,14,-0.16162109375,-0.99371337890625,0.00653076171875
1760226688341,1350394365,21982,15,-0.1572265625,-0.99517822265625,0.00750732421875
1760226688341,1350394365,21982,16,-0.162353515625,-0.99444580078125,0.01531982421875
1760226688341,1350394365,21982,17,-0.15625,-0.99542236328125,0.00384521484375
1760226688341,1350394365,21982,18,-0.15087890625,-0.99273681640625,0.00555419921875
1760226688341,1350394365,21982,19,-0.15478515625,-0.99468994140625,0.00628662109375
1760226688341,1350394365,21982,20,-0.150390625,-0.99591064453125,0.00067138671875
1760226688341,1350394365,21982,21,-0.147216796875,-0.99517822265625,-0.00274658203125
1760226688341,1350394365,21982,22,-0.15185546875,-0.99371337890625,-0.00592041015625
1760226688341,1350394365,21982,23,-0.14990234375,-0.99664306640625,-0.00665283203125
1760226688341,1350394365,21982,24,-0.145263671875,-0.99908447265625,-0.01470947265625
1760226688341,1350394365,21982,25,-0.153076171875,-0.99298095703125,-0.01300048828125
1760226688341,1350394365,21982,26,-0.147705078125,-0.99420166015625,-0.01129150390625
1760226688341,1350394365,21982,27,-0.1494140625,-0.99713134765625,-0.01397705078125
1760226688341,1350394365,21982,28,-0.1474609375,-0.99395751953125,-0.01593017578125
1760226688341,1350394365,21982,29,-0.150390625,-0.99737548828125,-0.01519775390625
1760226688341,1350394365,21982,30,-0.14453125,-0.99346923828125,-0.01397705078125
1760226688341,1350394365,21982,31,-0.14208984375,-0.99420166015625,-0.02252197265625
1760226690873,1350396884,21983,0,-0.15283203125,-0.99786376953125,-0.02105712890625
1760226690873,1350396884,21983,1,-0.160888671875,-0.99468994140625,-0.01177978515625
1760226690873,1350396884,21983,2,-0.157470703125,-0.99664306640625,-0.01934814453125
1760226690873,1350396884,21983,3,-0.153564453125,-0.99713134765625,-0.02447509765625
1760226690873,1350396884,21983,4,-0.158935546875,-0.99615478515625,-0.02203369140625
1760226690873,1350396884,21983,5,-0.15673828125,-0.99615478515625,-0.02520751953125
1760226690873,1350396884,21983,6,-0.154541015625,-0.99639892578125,-0.02593994140625
1760226690873,1350396884,21983,7,-0.150390625,-0.99761962890625,-0.02496337890625
1760226690873,1350396884,21983,8,-0.15185546875,-0.99761962890625,-0.02374267578125
1760226690873,1350396884,21983,9,-0.144287109375,-0.99810791015625,-0.03277587890625
1760226690873,1350396884,21983,10,-0.1474609375,-0.99615478515625,-0.01983642578125
1760226690873,1350396884,21983,11,-0.1474609375,-0.99444580078125,-0.02447509765625
1760226690873,1350396884,21983,12,-0.154541015625,-0.99566650390625,-0.02056884765625
1760226690873,1350396884,21983,13,-0.1513671875,-0.99493408203125,-0.02569580078125
1760226690873,1350396884,21983,14,-0.1376953125,-0.99835205078125,-0.01983642578125
1760226690873,1350396884,21983,15,-0.14208984375,-0.99688720703125,-0.01812744140625
1760226690873,1350396884,21983,16,-0.14501953125,-0.99200439453125,-0.02032470703125
1760226690873,1350396884,21983,17,-0.153076171875,-1.00567626953125,-0.01080322265625
1760226690873,1350396884,21983,18,-0.146484375,-0.99346923828125,-0.01470947265625
1760226690873,1350396884,21983,19,-0.14453125,-1.00103759765625,-0.00982666015625
1760226690873,1350396884,21983,20,-0.14208984375,-0.99713134765625,-0.01129150390625
1760226690873,1350396884,21983,21,-0.146240234375,-0.99176025390625,-0.00909423828125
1760226690873,1350396884,21983,22,-0.146484375,-0.99029541015625,-0.00616455078125
1760226690873,1350396884,21983,23,-0.1484375,-0.99224853515625,0.00213623046875
1760226690873,1350396884,21983,24,-0.147705078125,-0.99688720703125,0.00213623046875
1760226690873,1350396884,21983,25,-0.14892578125,-0.99615478515625,0.00848388671875
1760226690873,1350396884,21983,26,-0.140380859375,-0.99810791015625,0.00701904296875
1760226690873,1350396884,21983,27,-0.142578125,-0.99444580078125,0.00360107421875
1760226690873,1350396884,21983,28,-0.151611328125,-0.99542236328125,0.00628662109375
1760226690873,1350396884,21983,29,-0.157470703125,-0.99249267578125,0.00067138671875
1760226690873,1350396884,21983,30,-0.15380859375,-0.99591064453125,0.00335693359375
1760226690873,1350396884,21983,31,-0.153564453125,-0.99566650390625,0.00384521484375
1760226693401,1350399403,21984,0,-0.15576171875,-0.99517822265625,0.01092529296875
1760226693401,1350399403,21984,1,-0.154541015625,-0.99615478515625,0.01629638671875
1760226693401,1350399403,21984,2,-0.160400390625,-0.99542236328125,0.01751708984375
1760226693401,1350399403,21984,3,-0.158447265625,-0.99176025390625,0.01824951171875
1760226693401,1350399403,21984,4,-0.160400390625,-0.99493408203125,0.02655029296875
1760226693401,1350399403,21984,5,-0.158203125,-0.99566650390625,0.02337646484375
1760226693401,1350399403,21984,6,-0.162353515625,-0.99298095703125,0.02703857421875
1760226693401,1350399403,21984,7,-0.161376953125,-0.99395751953125,0.03192138671875
1760226693401,1350399403,21984,8,-0.156494140625,-0.99298095703125,0.02362060546875
1760226693401,1350399403,21984,9,-0.162109375,-0.99371337890625,0.02655029296875
1760226693401,1350399403,21984,10,-0.159912109375,-0.99346923828125,0.02288818359375
1760226693401,1350399403,21984,11,-0.158935546875,-0.99371337890625,0.02093505859375
1760226693401,1350399403,21984,12,-0.161865234375,-0.99346923828125,0.02386474609375
1760226693401,1350399403,21984,13,-0.1630859375,-0.99371337890625,0.01995849609375
1760226693401,1350399403,21984,14,-0.1591796875,-0.99298095703125,0.02093505859375
1760226693401,1350399403,21984,15,-0.161376953125,-0.99395751953125,0.01751708984375
1760226693401,1350399403,21984,16,-0.156494140625,-0.99224853515625,0.01458740234375
