receivedPhoneTimestamp,respeckTimestamp,packetSeqNum,sampleSeqNum,accelX,accelY,accelZ
1759491110106,1472930,574,0,-0.11376953125,-0.99981689453125,0.17108154296875
1759491110106,1472930,574,1,-0.1123046875,-1.00445556640625,0.16888427734375
1759491110106,1472930,574,2,-0.113037109375,-0.99786376953125,0.17449951171875
1759491110106,1472930,574,3,-0.109619140625,-0.99981689453125,0.17596435546875
1759491110106,1472930,574,4,-0.1201171875,-0.98883056640625,0.18695068359375
1759491110106,1472930,574,5,-0.121337890625,-0.99688720703125,0.19036865234375
1759491110106,1472930,574,6,-0.118896484375,-0.99298095703125,0.19451904296875
1759491110106,1472930,574,7,-0.11572265625,-0.99200439453125,0.19256591796875
1759491110106,1472930,574,8,-0.117919921875,-0.99395751953125,0.19281005859375
1759491110106,1472930,574,9,-0.120361328125,-0.99468994140625,0.19207763671875
1759491110106,1472930,574,10,-0.12255859375,-0.99493408203125,0.18768310546875
1759491110106,1472930,574,11,-0.119140625,-0.99493408203125,0.19403076171875
1759491110106,1472930,574,12,-0.116943359375,-0.99053955078125,0.18060302734375
1759491110106,1472930,574,13,-0.122314453125,-0.99835205078125,0.19549560546875
1759491110106,1472930,574,14,-0.121826171875,-0.99322509765625,0.19281005859375
1759491110106,1472930,574,15,-0.123291015625,-0.99493408203125,0.19110107421875
1759491110106,1472930,574,16,-0.123779296875,-0.99249267578125,0.19427490234375
1759491110106,1472930,574,17,-0.120849609375,-0.99200439453125,0.18524169921875
1759491110106,1472930,574,18,-0.12158203125,-0.99517822265625,0.18426513671875
1759491110106,1472930,574,19,-0.12451171875,-0.99542236328125,0.18475341796875
1759491110106,1472930,574,20,-0.124267578125,-0.99639892578125,0.18133544921875
1759491110106,1472930,574,21,-0.121826171875,-0.99273681640625,0.17840576171875
1759491110106,1472930,574,22,-0.123779296875,-1.00030517578125,0.18865966796875
1759491110106,1472930,574,23,-0.124755859375,-0.98907470703125,0.17987060546875
1759491110106,1472930,574,24,-0.12890625,-0.99615478515625,0.18890380859375
1759491110106,1472930,574,25,-0.124755859375,-0.99053955078125,0.17864990234375
1759491110106,1472930,574,26,-0.12255859375,-0.99468994140625,0.18206787109375
1759491110106,1472930,574,27,-0.123291015625,-0.99420166015625,0.17791748046875
1759491110106,1472930,574,28,-0.127197265625,-0.99591064453125,0.18206787109375
1759491110106,1472930,574,29,-0.12646484375,-0.99444580078125,0.18060302734375
1759491110106,1472930,574,30,-0.122802734375,-0.99078369140625,0.18304443359375
1759491110106,1472930,574,31,-0.124755859375,-1.00054931640625,0.18426513671875
1759491112686,1475498,575,0,-0.125244140625,-0.99249267578125,0.18109130859375
1759491112686,1475498,575,1,-0.128662109375,-0.99542236328125,0.19134521484375
1759491112686,1475498,575,2,-0.127685546875,-0.99346923828125,0.18475341796875
1759491112686,1475498,575,3,-0.11962890625,-0.99493408203125,0.18695068359375
1759491112686,1475498,575,4,-0.12109375,-0.99493408203125,0.19036865234375
1759491112686,1475498,575,5,-0.126220703125,-0.99444580078125,0.19183349609375
1759491112686,1475498,575,6,-0.125732421875,-0.99127197265625,0.19281005859375
1759491112686,1475498,575,7,-0.12158203125,-0.99420166015625,0.19036865234375
1759491112686,1475498,575,8,-0.1240234375,-0.99591064453125,0.19915771484375
1759491112686,1475498,575,9,-0.125244140625,-0.98980712890625,0.19842529296875
1759491112686,1475498,575,10,-0.12841796875,-0.99127197265625,0.21282958984375
1759491112686,1475498,575,11,-0.1337890625,-0.98345947265625,0.22015380859375
1759491112686,1475498,575,12,-0.1318359375,-0.98858642578125,0.21820068359375
1759491112686,1475498,575,13,-0.129638671875,-0.98394775390625,0.22113037109375
1759491112686,1475498,575,14,-0.13134765625,-0.98516845703125,0.22088623046875
1759491112686,1475498,575,15,-0.13134765625,-0.98443603515625,0.22210693359375
1759491112686,1475498,575,16,-0.129638671875,-0.98370361328125,0.22088623046875
1759491112686,1475498,575,17,-0.129150390625,-0.98443603515625,0.22430419921875
1759491112686,1475498,575,18,-0.12890625,-0.98419189453125,0.22064208984375
1759491112686,1475498,575,19,-0.12841796875,-0.98419189453125,0.22332763671875
1759491112686,1475498,575,20,-0.134765625,-0.98614501953125,0.21429443359375
1759491112686,1475498,575,21,-0.130615234375,-0.98590087890625,0.22161865234375
1759491112686,1475498,575,22,-0.1298828125,-0.98419189453125,0.21917724609375
1759491112686,1475498,575,23,-0.128173828125,-0.98712158203125,0.21624755859375
1759491112686,1475498,575,24,-0.1298828125,-0.98760986328125,0.21429443359375
1759491112686,1475498,575,25,-0.128662109375,-0.98858642578125,0.20819091796875
1759491112686,1475498,575,26,-0.12939453125,-0.98858642578125,0.20379638671875
1759491112686,1475498,575,27,-0.129638671875,-0.98883056640625,0.20770263671875
1759491112686,1475498,575,28,-0.129150390625,-0.98980712890625,0.20355224609375
1759491112686,1475498,575,29,-0.12646484375,-0.99200439453125,0.20208740234375
1759491112686,1475498,575,30,-0.126953125,-0.99468994140625,0.19891357421875
1759491112686,1475498,575,31,-0.127685546875,-0.98565673828125,0.19305419921875
1759491115268,1478065,576,0,-0.130859375,-0.99371337890625,0.19818115234375
1759491115268,1478065,576,1,-0.12841796875,-0.98590087890625,0.19647216796875
1759491115268,1478065,576,2,-0.130859375,-0.99346923828125,0.20330810546875
1759491115268,1478065,576,3,-0.132080078125,-0.98614501953125,0.19647216796875
1759491115268,1478065,576,4,-0.130126953125,-0.99176025390625,0.19842529296875
1759491115268,1478065,576,5,-0.12939453125,-0.98931884765625,0.19451904296875
1759491115268,1478065,576,6,-0.1279296875,-0.99127197265625,0.19183349609375
1759491115268,1478065,576,7,-0.13037109375,-0.98907470703125,0.19622802734375
1759491115268,1478065,576,8,-0.12939453125,-0.99029541015625,0.19696044921875
1759491115268,1478065,576,9,-0.12939453125,-0.98980712890625,0.19842529296875
1759491115268,1478065,576,10,-0.12939453125,-0.99298095703125,0.20159912109375
1759491115268,1478065,576,11,-0.1298828125,-0.98541259765625,0.20037841796875
1759491115268,1478065,576,12,-0.1298828125,-0.99298095703125,0.20574951171875
1759491115268,1478065,576,13,-0.130615234375,-0.98834228515625,0.19842529296875
1759491115268,1478065,576,14,-0.1279296875,-0.99005126953125,0.20355224609375
1759491115268,1478065,576,15,-0.1279296875,-0.98834228515625,0.20135498046875
1759491115268,1478065,576,16,-0.1298828125,-0.99029541015625,0.20135498046875
1759491115268,1478065,576,17,-0.13037109375,-0.99005126953125,0.20379638671875
1759491115268,1478065,576,18,-0.12744140625,-0.98980712890625,0.20111083984375
1759491115268,1478065,576,19,-0.12353515625,-0.98638916015625,0.20697021484375
1759491115268,1478065,576,20,-0.123291015625,-0.98419189453125,0.20281982421875
1759491115268,1478065,576,21,-0.123291015625,-0.99273681640625,0.21356201171875
1759491115268,1478065,576,22,-0.130859375,-0.98492431640625,0.21087646484375
1759491115268,1478065,576,23,-0.133056640625,-0.98614501953125,0.22088623046875
1759491115268,1478065,576,24,-0.13134765625,-0.98101806640625,0.21868896484375
1759491115268,1478065,576,25,-0.126953125,-0.98272705078125,0.22015380859375
1759491115268,1478065,576,26,-0.1298828125,-0.98321533203125,0.21966552734375
1759491115268,1478065,576,27,-0.131591796875,-0.98223876953125,0.22283935546875
1759491115268,1478065,576,28,-0.134033203125,-0.98419189453125,0.22283935546875
1759491115268,1478065,576,29,-0.128662109375,-0.98419189453125,0.22552490234375
1759491115268,1478065,576,30,-0.128173828125,-0.98297119140625,0.22137451171875
1759491115268,1478065,576,31,-0.130859375,-0.98370361328125,0.22210693359375
1759491117857,1480632,577,0,-0.1318359375,-0.98223876953125,0.22601318359375
1759491117857,1480632,577,1,-0.129638671875,-0.98248291015625,0.21868896484375
1759491117857,1480632,577,2,-0.12939453125,-0.98638916015625,0.22454833984375
1759491117857,1480632,577,3,-0.132568359375,-0.98101806640625,0.22454833984375
1759491117857,1480632,577,4,-0.13037109375,-0.98468017578125,0.22772216796875
1759491117857,1480632,577,5,-0.130859375,-0.98321533203125,0.22406005859375
1759491117857,1480632,577,6,-0.127685546875,-0.98443603515625,0.21966552734375
1759491117857,1480632,577,7,-0.132080078125,-0.98394775390625,0.21697998046875
1759491117857,1480632,577,8,-0.133056640625,-0.98565673828125,0.21160888671875
1759491117857,1480632,577,9,-0.13330078125,-0.98809814453125,0.21478271484375
1759491117857,1480632,577,10,-0.13134765625,-0.98687744140625,0.21209716796875
1759491117857,1480632,577,11,-0.131591796875,-0.98614501953125,0.20916748046875
1759491117857,1480632,577,12,-0.13134765625,-0.98712158203125,0.20648193359375
1759491117857,1480632,577,13,-0.131103515625,-0.99078369140625,0.20672607421875
1759491117857,1480632,577,14,-0.12890625,-0.98492431640625,0.20233154296875
1759491117857,1480632,577,15,-0.13134765625,-0.99224853515625,0.20330810546875
1759491117857,1480632,577,16,-0.13330078125,-0.98272705078125,0.20599365234375
1759491117857,1480632,577,17,-0.134033203125,-0.98883056640625,0.20428466796875
1759491117857,1480632,577,18,-0.13330078125,-0.98516845703125,0.20111083984375
1759491117857,1480632,577,19,-0.13134765625,-0.99273681640625,0.20379638671875
1759491117857,1480632,577,20,-0.133056640625,-0.98858642578125,0.20648193359375
1759491117857,1480632,577,21,-0.1318359375,-0.98663330078125,0.20843505859375
1759491117857,1480632,577,22,-0.129638671875,-0.98834228515625,0.20599365234375
1759491117857,1480632,577,23,-0.13134765625,-0.98638916015625,0.20526123046875
1759491117857,1480632,577,24,-0.134765625,-0.99053955078125,0.20794677734375
1759491117857,1480632,577,25,-0.130126953125,-0.98663330078125,0.20672607421875
1759491117857,1480632,577,26,-0.1298828125,-0.98883056640625,0.21258544921875
1759491117857,1480632,577,27,-0.128173828125,-0.98614501953125,0.20989990234375
1759491117857,1480632,577,28,-0.130126953125,-0.98590087890625,0.21453857421875
1759491117857,1480632,577,29,-0.13134765625,-0.98712158203125,0.21502685546875
1759491117857,1480632,577,30,-0.13037109375,-0.98443603515625,0.21917724609375
1759491117857,1480632,577,31,-0.131103515625,-0.98614501953125,0.22479248046875
1759491120238,1483199,578,0,-0.12939453125,-0.98175048828125,0.21600341796875
1759491120238,1483199,578,1,-0.12939453125,-0.98345947265625,0.22113037109375
1759491120238,1483199,578,2,-0.131591796875,-0.98419189453125,0.22088623046875
1759491120238,1483199,578,3,-0.130126953125,-0.98443603515625,0.22088623046875
1759491120238,1483199,578,4,-0.1328125,-0.98248291015625,0.22698974609375
1759491120238,1483199,578,5,-0.12890625,-0.98468017578125,0.22552490234375
1759491120238,1483199,578,6,-0.12939453125,-0.98004150390625,0.22235107421875
1759491120238,1483199,578,7,-0.131103515625,-0.98394775390625,0.22601318359375
1759491120238,1483199,578,8,-0.130126953125,-0.98272705078125,0.22698974609375
1759491120238,1483199,578,9,-0.13037109375,-0.98126220703125,0.22528076171875
1759491120238,1483199,578,10,-0.13134765625,-0.98150634765625,0.23162841796875
1759491120238,1483199,578,11,-0.13330078125,-0.97760009765625,0.23114013671875
1759491120238,1483199,578,12,-0.13134765625,-0.98028564453125,0.23406982421875
1759491120238,1483199,578,13,-0.131591796875,-0.98077392578125,0.23529052734375
1759491120238,1483199,578,14,-0.13232421875,-0.97930908203125,0.23016357421875
1759491120238,1483199,578,15,-0.131591796875,-0.98175048828125,0.23333740234375
1759491120238,1483199,578,16,-0.134521484375,-0.98101806640625,0.23284912109375
1759491120238,1483199,578,17,-0.132568359375,-0.98223876953125,0.23431396484375
1759491120238,1483199,578,18,-0.13037109375,-0.98321533203125,0.23040771484375
1759491120238,1483199,578,19,-0.13134765625,-0.98321533203125,0.23065185546875
1759491120238,1483199,578,20,-0.131591796875,-0.98028564453125,0.22576904296875
1759491120238,1483199,578,21,-0.1318359375,-0.98956298828125,0.22161865234375
1759491120238,1483199,578,22,-0.130126953125,-0.98468017578125,0.21966552734375
1759491120238,1483199,578,23,-0.128662109375,-0.98443603515625,0.21087646484375
1759491120238,1483199,578,24,-0.130126953125,-0.98834228515625,0.22235107421875
1759491120238,1483199,578,25,-0.1328125,-0.98223876953125,0.21649169921875
1759491120238,1483199,578,26,-0.13232421875,-0.98907470703125,0.22064208984375
1759491120238,1483199,578,27,-0.13330078125,-0.98150634765625,0.21795654296875
1759491120238,1483199,578,28,-0.1328125,-0.98638916015625,0.21356201171875
1759491120238,1483199,578,29,-0.133544921875,-0.98394775390625,0.21405029296875
1759491120238,1483199,578,30,-0.137451171875,-0.98736572265625,0.21356201171875
1759491120238,1483199,578,31,-0.1328125,-0.98541259765625,0.21209716796875
1759491122823,1485766,579,0,-0.129150390625,-0.99029541015625,0.20941162109375
1759491122823,1485766,579,1,-0.1318359375,-0.98687744140625,0.20989990234375
1759491122823,1485766,579,2,-0.13330078125,-0.98687744140625,0.20648193359375
1759491122823,1485766,579,3,-0.13671875,-0.99102783203125,0.20501708984375
1759491122823,1485766,579,4,-0.129150390625,-0.98468017578125,0.20379638671875
1759491122823,1485766,579,5,-0.133056640625,-0.99346923828125,0.21380615234375
1759491122823,1485766,579,6,-0.13037109375,-0.98052978515625,0.21112060546875
1759491122823,1485766,579,7,-0.135009765625,-0.99078369140625,0.21429443359375
1759491122823,1485766,579,8,-0.134765625,-0.98248291015625,0.20599365234375
1759491122823,1485766,579,9,-0.1337890625,-0.99053955078125,0.21063232421875
1759491122823,1485766,579,10,-0.135009765625,-0.98394775390625,0.21185302734375
1759491122823,1485766,579,11,-0.135009765625,-0.98394775390625,0.21575927734375
1759491122823,1485766,579,12,-0.141845703125,-0.99029541015625,0.22088623046875
1759491122823,1485766,579,13,-0.133544921875,-0.98516845703125,0.20794677734375
1759491122823,1485766,579,14,-0.132568359375,-0.98907470703125,0.21234130859375
1759491122823,1485766,579,15,-0.130615234375,-0.98394775390625,0.21282958984375
1759491122823,1485766,579,16,-0.13330078125,-0.98883056640625,0.21014404296875
1759491122823,1485766,579,17,-0.1328125,-0.98834228515625,0.20941162109375
1759491122823,1485766,579,18,-0.135986328125,-0.98199462890625,0.21551513671875
1759491122823,1485766,579,19,-0.135498046875,-0.98883056640625,0.21429443359375
1759491122823,1485766,579,20,-0.1328125,-0.98370361328125,0.21600341796875
1759491122823,1485766,579,21,-0.13671875,-0.98541259765625,0.21942138671875
1759491122823,1485766,579,22,-0.135009765625,-0.98541259765625,0.21893310546875
1759491122823,1485766,579,23,-0.13427734375,-0.98345947265625,0.22088623046875
1759491122823,1485766,579,24,-0.13427734375,-0.98223876953125,0.22137451171875
1759491122823,1485766,579,25,-0.1357421875,-0.98394775390625,0.22943115234375
1759491122823,1485766,579,26,-0.139892578125,-0.98345947265625,0.22332763671875
1759491122823,1485766,579,27,-0.130859375,-0.98248291015625,0.22430419921875
1759491122823,1485766,579,28,-0.1318359375,-0.98223876953125,0.22601318359375
1759491122823,1485766,579,29,-0.13232421875,-0.98175048828125,0.22601318359375
1759491122823,1485766,579,30,-0.135009765625,-0.98199462890625,0.22186279296875
1759491122823,1485766,579,31,-0.13427734375,-0.98907470703125,0.22088623046875
1759491125407,1488333,580,0,-0.128662109375,-0.98687744140625,0.22137451171875
1759491125407,1488333,580,1,-0.13134765625,-0.98297119140625,0.22528076171875
1759491125407,1488333,580,2,-0.128662109375,-0.98248291015625,0.22088623046875
1759491125407,1488333,580,3,-0.1328125,-0.98175048828125,0.22943115234375
1759491125407,1488333,580,4,-0.137939453125,-0.97955322265625,0.23284912109375
1759491125407,1488333,580,5,-0.13330078125,-0.98370361328125,0.22821044921875
1759491125407,1488333,580,6,-0.130859375,-0.98321533203125,0.22796630859375
1759491125407,1488333,580,7,-0.12548828125,-0.97979736328125,0.22918701171875
1759491125407,1488333,580,8,-0.134765625,-0.98590087890625,0.22796630859375
1759491125407,1488333,580,9,-0.13037109375,-0.98297119140625,0.22406005859375
1759491125407,1488333,580,10,-0.131591796875,-0.98468017578125,0.22186279296875
1759491125407,1488333,580,11,-0.127685546875,-0.98297119140625,0.22235107421875
1759491125407,1488333,580,12,-0.130126953125,-0.98516845703125,0.22015380859375
1759491125407,1488333,580,13,-0.130126953125,-0.98760986328125,0.21502685546875
1759491125407,1488333,580,14,-0.13037109375,-0.98345947265625,0.21307373046875
1759491125407,1488333,580,15,-0.127685546875,-0.98712158203125,0.21038818359375
1759491125407,1488333,580,16,-0.129638671875,-0.99151611328125,0.21063232421875
1759491125407,1488333,580,17,-0.127685546875,-0.98858642578125,0.20208740234375
1759491125407,1488333,580,18,-0.128662109375,-0.99029541015625,0.20550537109375
1759491125407,1488333,580,19,-0.130859375,-0.98834228515625,0.21063232421875
1759491125407,1488333,580,20,-0.131103515625,-0.98980712890625,0.21014404296875
1759491125407,1488333,580,21,-0.126708984375,-0.98687744140625,0.20550537109375
1759491125407,1488333,580,22,-0.12939453125,-0.98956298828125,0.20501708984375
1759491125407,1488333,580,23,-0.12841796875,-0.98834228515625,0.20428466796875
1759491125407,1488333,580,24,-0.1318359375,-0.98760986328125,0.20208740234375
1759491125407,1488333,580,25,-0.129638671875,-0.98907470703125,0.20452880859375
1759491125407,1488333,580,26,-0.13232421875,-0.98883056640625,0.20355224609375
1759491125407,1488333,580,27,-0.130615234375,-0.98663330078125,0.20526123046875
1759491125407,1488333,580,28,-0.130859375,-0.98834228515625,0.20404052734375
1759491125407,1488333,580,29,-0.1337890625,-0.98541259765625,0.20526123046875
1759491125407,1488333,580,30,-0.133544921875,-0.98907470703125,0.20550537109375
1759491125407,1488333,580,31,-0.130126953125,-0.98492431640625,0.20794677734375
1759491127991,1490900,581,0,-0.135986328125,-0.98760986328125,0.21112060546875
1759491127991,1490900,581,1,-0.132568359375,-0.98907470703125,0.21185302734375
1759491127991,1490900,581,2,-0.129638671875,-0.98492431640625,0.21038818359375
1759491127991,1490900,581,3,-0.128662109375,-0.98663330078125,0.21014404296875
1759491127991,1490900,581,4,-0.12939453125,-0.98516845703125,0.20941162109375
1759491127991,1490900,581,5,-0.1298828125,-0.98590087890625,0.21136474609375
1759491127991,1490900,581,6,-0.131591796875,-0.98809814453125,0.21600341796875
1759491127991,1490900,581,7,-0.1328125,-0.98712158203125,0.21209716796875
1759491127991,1490900,581,8,-0.126708984375,-0.98541259765625,0.21551513671875
1759491127991,1490900,581,9,-0.128173828125,-0.98419189453125,0.21990966796875
1759491127991,1490900,581,10,-0.124755859375,-0.98126220703125,0.22381591796875
1759491127991,1490900,581,11,-0.12841796875,-0.98565673828125,0.23016357421875
1759491127991,1490900,581,12,-0.1298828125,-0.98345947265625,0.22869873046875
1759491127991,1490900,581,13,-0.130615234375,-0.97662353515625,0.22918701171875
1759491127991,1490900,581,14,-0.12841796875,-0.98370361328125,0.23724365234375
1759491127991,1490900,581,15,-0.135498046875,-0.97515869140625,0.23748779296875
1759491127991,1490900,581,16,-0.132568359375,-0.98272705078125,0.23919677734375
1759491127991,1490900,581,17,-0.133056640625,-0.97735595703125,0.24017333984375
1759491127991,1490900,581,18,-0.131103515625,-0.98126220703125,0.23992919921875
1759491127991,1490900,581,19,-0.130859375,-0.97882080078125,0.23724365234375
1759491127991,1490900,581,20,-0.13427734375,-0.97979736328125,0.23895263671875
1759491127991,1490900,581,21,-0.131103515625,-0.98052978515625,0.23406982421875
1759491127991,1490900,581,22,-0.1337890625,-0.98199462890625,0.23260498046875
1759491127991,1490900,581,23,-0.131591796875,-0.98248291015625,0.22601318359375
1759491127991,1490900,581,24,-0.129150390625,-0.98297119140625,0.22698974609375
1759491127991,1490900,581,25,-0.12939453125,-0.98345947265625,0.22308349609375
1759491127991,1490900,581,26,-0.12841796875,-0.98419189453125,0.21844482421875
1759491127991,1490900,581,27,-0.1279296875,-0.98760986328125,0.21527099609375
1759491127991,1490900,581,28,-0.1328125,-0.98565673828125,0.22015380859375
1759491127991,1490900,581,29,-0.130859375,-0.98516845703125,0.21527099609375
1759491127991,1490900,581,30,-0.130859375,-0.98468017578125,0.21600341796875
1759491127991,1490900,581,31,-0.13232421875,-0.98419189453125,0.21600341796875
1759491130578,1493467,582,0,-0.131591796875,-0.98590087890625,0.21649169921875
1759491130578,1493467,582,1,-0.133056640625,-0.98468017578125,0.22015380859375
1759491130578,1493467,582,2,-0.1318359375,-0.98809814453125,0.21356201171875
1759491130578,1493467,582,3,-0.132568359375,-0.98590087890625,0.21331787109375
1759491130578,1493467,582,4,-0.135009765625,-0.98638916015625,0.21307373046875
1759491130578,1493467,582,5,-0.133544921875,-0.98760986328125,0.21063232421875
1759491130578,1493467,582,6,-0.130859375,-0.98980712890625,0.21234130859375
1759491130578,1493467,582,7,-0.1328125,-0.98614501953125,0.21380615234375
1759491130578,1493467,582,8,-0.13330078125,-0.98590087890625,0.21160888671875
1759491130578,1493467,582,9,-0.13134765625,-0.98638916015625,0.21697998046875
1759491130578,1493467,582,10,-0.131103515625,-0.98834228515625,0.20794677734375
1759491130578,1493467,582,11,-0.1328125,-0.98785400390625,0.21478271484375
1759491130578,1493467,582,12,-0.13427734375,-0.98760986328125,0.21551513671875
1759491130578,1493467,582,13,-0.133056640625,-0.98931884765625,0.21795654296875
1759491130578,1493467,582,14,-0.13134765625,-0.98248291015625,0.21258544921875
1759491130578,1493467,582,15,-0.1318359375,-0.98516845703125,0.21453857421875
1759491130578,1493467,582,16,-0.13623046875,-0.98248291015625,0.21820068359375
1759491130578,1493467,582,17,-0.131591796875,-0.98565673828125,0.22039794921875
1759491130578,1493467,582,18,-0.130615234375,-0.98443603515625,0.21527099609375
1759491130578,1493467,582,19,-0.134033203125,-0.98541259765625,0.21649169921875
1759491130578,1493467,582,20,-0.131103515625,-0.98443603515625,0.22137451171875
1759491130578,1493467,582,21,-0.129150390625,-0.98687744140625,0.21429443359375
1759491130578,1493467,582,22,-0.127685546875,-0.98468017578125,0.21527099609375
1759491130578,1493467,582,23,-0.130126953125,-0.98175048828125,0.22137451171875
1759491130578,1493467,582,24,-0.13232421875,-0.98272705078125,0.21795654296875
1759491130578,1493467,582,25,-0.130126953125,-0.98516845703125,0.22088623046875
1759491130578,1493467,582,26,-0.128662109375,-0.98687744140625,0.21893310546875
1759491130578,1493467,582,27,-0.128662109375,-0.98297119140625,0.22723388671875
1759491130578,1493467,582,28,-0.129638671875,-0.98297119140625,0.22845458984375
1759491130578,1493467,582,29,-0.12939453125,-0.98394775390625,0.22723388671875
1759491130578,1493467,582,30,-0.126953125,-0.98101806640625,0.22528076171875
1759491130578,1493467,582,31,-0.12841796875,-0.98272705078125,0.23236083984375
1759491133159,1496034,583,0,-0.131103515625,-0.98126220703125,0.22943115234375
1759491133159,1496034,583,1,-0.12939453125,-0.98272705078125,0.22698974609375
1759491133159,1496034,583,2,-0.130126953125,-0.98394775390625,0.22991943359375
1759491133159,1496034,583,3,-0.125244140625,-0.98223876953125,0.23040771484375
1759491133159,1496034,583,4,-0.12646484375,-0.98101806640625,0.22869873046875
1759491133159,1496034,583,5,-0.125732421875,-0.98175048828125,0.22747802734375
1759491133159,1496034,583,6,-0.127685546875,-0.98297119140625,0.22503662109375
1759491133159,1496034,583,7,-0.12890625,-0.98321533203125,0.22161865234375
1759491133159,1496034,583,8,-0.128662109375,-0.98492431640625,0.22430419921875
1759491133159,1496034,583,9,-0.12548828125,-0.98223876953125,0.21771240234375
1759491133159,1496034,583,10,-0.124267578125,-0.98956298828125,0.22113037109375
1759491133159,1496034,583,11,-0.12939453125,-0.98150634765625,0.21746826171875
1759491133159,1496034,583,12,-0.12890625,-0.98809814453125,0.22015380859375
1759491133159,1496034,583,13,-0.127197265625,-0.98394775390625,0.21649169921875
1759491133159,1496034,583,14,-0.126708984375,-0.98858642578125,0.21453857421875
1759491133159,1496034,583,15,-0.126708984375,-0.98443603515625,0.21551513671875
1759491133159,1496034,583,16,-0.1298828125,-0.98809814453125,0.21234130859375
1759491133159,1496034,583,17,-0.129638671875,-0.98736572265625,0.21185302734375
1759491133159,1496034,583,18,-0.13037109375,-0.98565673828125,0.21307373046875
1759491133159,1496034,583,19,-0.12841796875,-0.98834228515625,0.21063232421875
1759491133159,1496034,583,20,-0.131103515625,-0.98614501953125,0.21331787109375
1759491133159,1496034,583,21,-0.1298828125,-0.98712158203125,0.21185302734375
1759491133159,1496034,583,22,-0.130615234375,-0.98809814453125,0.20623779296875
1759491133159,1496034,583,23,-0.129150390625,-0.98663330078125,0.20892333984375
1759491133159,1496034,583,24,-0.130615234375,-0.98883056640625,0.20526123046875
1759491133159,1496034,583,25,-0.1279296875,-0.98687744140625,0.20428466796875
1759491133159,1496034,583,26,-0.13037109375,-0.98907470703125,0.20721435546875
1759491133159,1496034,583,27,-0.127197265625,-0.98907470703125,0.20697021484375
1759491133159,1496034,583,28,-0.129638671875,-0.98614501953125,0.20721435546875
1759491133159,1496034,583,29,-0.126708984375,-0.99053955078125,0.20867919921875
1759491133159,1496034,583,30,-0.130615234375,-0.98931884765625,0.21160888671875
1759491133159,1496034,583,31,-0.130859375,-0.98663330078125,0.21112060546875
1759491135744,1498601,584,0,-0.131103515625,-0.98370361328125,0.21160888671875
1759491135744,1498601,584,1,-0.12890625,-0.98687744140625,0.20965576171875
1759491135744,1498601,584,2,-0.12890625,-0.98541259765625,0.21502685546875
1759491135744,1498601,584,3,-0.130615234375,-0.98565673828125,0.21478271484375
1759491135744,1498601,584,4,-0.127197265625,-0.98760986328125,0.21429443359375
1759491135744,1498601,584,5,-0.126708984375,-0.98760986328125,0.21600341796875
1759491135744,1498601,584,6,-0.128173828125,-0.98638916015625,0.21746826171875
1759491135744,1498601,584,7,-0.126953125,-0.98419189453125,0.21112060546875
1759491135744,1498601,584,8,-0.1279296875,-0.98712158203125,0.22430419921875
1759491135744,1498601,584,9,-0.128662109375,-0.98126220703125,0.22503662109375
1759491135744,1498601,584,10,-0.129150390625,-0.98931884765625,0.22869873046875
1759491135744,1498601,584,11,-0.127685546875,-0.98248291015625,0.22601318359375
1759491135744,1498601,584,12,-0.125732421875,-0.98712158203125,0.22698974609375
1759491135744,1498601,584,13,-0.1259765625,-0.97882080078125,0.22698974609375
1759491135744,1498601,584,14,-0.1279296875,-0.98272705078125,0.22845458984375
1759491135744,1498601,584,15,-0.130859375,-0.98345947265625,0.23065185546875
1759491135744,1498601,584,16,-0.126708984375,-0.98248291015625,0.22430419921875
1759491135744,1498601,584,17,-0.1279296875,-0.97906494140625,0.23406982421875
1759491135744,1498601,584,18,-0.13525390625,-0.97906494140625,0.23553466796875
1759491135744,1498601,584,19,-0.130126953125,-0.97369384765625,0.22674560546875
1759491135744,1498601,584,20,-0.14404296875,-0.98370361328125,0.24456787109375
1759491135744,1498601,584,21,-0.15478515625,-0.96783447265625,0.25213623046875
1759491135744,1498601,584,22,-0.157470703125,-0.97979736328125,0.25140380859375
1759491135744,1498601,584,23,-0.14697265625,-0.97442626953125,0.24530029296875
1759491135744,1498601,584,24,-0.15966796875,-0.96978759765625,0.25164794921875
1759491138326,1501169,585,9,-0.1455078125,-0.97515869140625,0.24725341796875
1759491138326,1501169,585,10,-0.146728515625,-0.97540283203125,0.24505615234375
1759491138326,1501169,585,11,-0.147705078125,-0.97662353515625,0.23992919921875
1759491138326,1501169,585,12,-0.157470703125,-0.97589111328125,0.24407958984375
1759491138326,1501169,585,13,-0.15185546875,-0.97247314453125,0.24261474609375
1759491138326,1501169,585,14,-0.146484375,-0.97393798828125,0.24456787109375
1759491138326,1501169,585,15,-0.147705078125,-0.97320556640625,0.24945068359375
1759491138326,1501169,585,16,-0.145751953125,-0.97564697265625,0.24603271484375
1759491138326,1501169,585,17,-0.14892578125,-0.97491455078125,0.24749755859375
1759491138326,1501169,585,18,-0.1455078125,-0.97174072265625,0.23919677734375
1759491138326,1501169,585,19,-0.1474609375,-0.97906494140625,0.25140380859375
1759491138326,1501169,585,20,-0.154296875,-0.97027587890625,0.25115966796875
1759491138326,1501169,585,21,-0.145263671875,-0.97344970703125,0.24798583984375
1759491138326,1501169,585,22,-0.1484375,-0.97052001953125,0.25115966796875
1759491138326,1501169,585,23,-0.14599609375,-0.97662353515625,0.25433349609375
1759491138326,1501169,585,24,-0.148681640625,-0.97296142578125,0.25140380859375
1759491138326,1501169,585,25,-0.1533203125,-0.97174072265625,0.25262451171875
1759491138326,1501169,585,26,-0.153564453125,-0.97393798828125,0.25384521484375
1759491138326,1501169,585,27,-0.147216796875,-0.97198486328125,0.24920654296875
1759491138326,1501169,585,28,-0.14453125,-0.97735595703125,0.25115966796875
1759491138326,1501169,585,29,-0.143310546875,-0.97076416015625,0.25140380859375
1759491138326,1501169,585,30,-0.14599609375,-0.97467041015625,0.25067138671875
1759491138326,1501169,585,31,-0.146728515625,-0.97125244140625,0.25360107421875
