receivedPhoneTimestamp,respeckTimestamp,packetSeqNum,sampleSeqNum,accelX,accelY,accelZ
1759666517932,794542073,5292,15,0.88818359375,0.03167724609375,0.30145263671875
1759666517932,794542073,5292,16,0.877685546875,0.03167724609375,0.30169677734375
1759666517932,794542073,5292,17,0.878173828125,0.03118896484375,0.31390380859375
1759666517932,794542073,5292,18,0.882568359375,0.03436279296875,0.30950927734375
1759666517932,794542073,5292,19,0.87744140625,0.03094482421875,0.31658935546875
1759666517932,794542073,5292,20,0.870849609375,0.03607177734375,0.32366943359375
1759666517932,794542073,5292,21,0.8740234375,0.03387451171875,0.31585693359375
1759666517932,794542073,5292,22,0.8759765625,0.03143310546875,0.32000732421875
1759666517932,794542073,5292,23,0.877685546875,0.03021240234375,0.32073974609375
1759666517932,794542073,5292,24,0.8818359375,0.03363037109375,0.31951904296875
1759666517932,794542073,5292,25,0.876953125,0.03118896484375,0.31146240234375
1759666517932,794542073,5292,26,0.873779296875,0.02947998046875,0.31732177734375
1759666517932,794542073,5292,27,0.879638671875,0.02679443359375,0.31365966796875
1759666517932,794542073,5292,28,0.88134765625,0.03045654296875,0.30902099609375
1759666517932,794542073,5292,29,0.887939453125,0.02850341796875,0.30511474609375
1759666517932,794542073,5292,30,0.88232421875,0.02996826171875,0.30340576171875
1759666517932,794542073,5292,31,0.8857421875,0.02899169921875,0.29364013671875
1759666520486,794544652,5293,0,0.890380859375,0.02166748046875,0.29998779296875
1759666520486,794544652,5293,1,0.8876953125,0.02801513671875,0.29412841796875
1759666520486,794544652,5293,2,0.88037109375,0.02606201171875,0.29364013671875
1759666520486,794544652,5293,3,0.88525390625,0.02532958984375,0.29046630859375
1759666520486,794544652,5293,4,0.89306640625,0.02386474609375,0.28460693359375
1759666520486,794544652,5293,5,0.888916015625,0.02508544921875,0.28704833984375
1759666520486,794544652,5293,6,0.89013671875,0.02606201171875,0.28167724609375
1759666520486,794544652,5293,7,0.889404296875,0.02606201171875,0.28094482421875
1759666520486,794544652,5293,8,0.890869140625,0.02899169921875,0.28289794921875
1759666520486,794544652,5293,9,0.8876953125,0.02239990234375,0.28948974609375
1759666520486,794544652,5293,10,0.896728515625,0.02850341796875,0.28363037109375
1759666520486,794544652,5293,11,0.88916015625,0.02630615234375,0.28192138671875
1759666520486,794544652,5293,12,0.888427734375,0.02532958984375,0.27996826171875
1759666520486,794544652,5293,13,0.894775390625,0.02606201171875,0.28021240234375
1759666520486,794544652,5293,14,0.887939453125,0.02484130859375,0.28240966796875
1759666520486,794544652,5293,15,0.8935546875,0.02703857421875,0.28167724609375
1759666520486,794544652,5293,16,0.887451171875,0.02703857421875,0.28436279296875
1759666520486,794544652,5293,17,0.89111328125,0.02923583984375,0.28240966796875
1759666520486,794544652,5293,18,0.8876953125,0.03167724609375,0.28607177734375
1759666520486,794544652,5293,19,0.88916015625,0.02288818359375,0.29095458984375
1759666520486,794544652,5293,20,0.890869140625,0.03118896484375,0.29339599609375
1759666520486,794544652,5293,21,0.88525390625,0.03021240234375,0.30023193359375
1759666520486,794544652,5293,22,0.88134765625,0.02801513671875,0.29754638671875
1759666520486,794544652,5293,23,0.8876953125,0.02752685546875,0.30291748046875
1759666520486,794544652,5293,24,0.8818359375,0.03216552734375,0.29925537109375
1759666520486,794544652,5293,25,0.882568359375,0.03021240234375,0.30780029296875
1759666520486,794544652,5293,26,0.8837890625,0.03143310546875,0.30560302734375
1759666520486,794544652,5293,27,0.880126953125,0.03094482421875,0.30462646484375
1759666520486,794544652,5293,28,0.8798828125,0.03680419921875,0.30877685546875
1759666520486,794544652,5293,29,0.879150390625,0.02825927734375,0.31707763671875
1759666520486,794544652,5293,30,0.883544921875,0.03289794921875,0.31170654296875
1759666520486,794544652,5293,31,0.876220703125,0.03387451171875,0.31146240234375
1759666523037,794547231,5294,0,0.871826171875,0.03070068359375,0.31317138671875
1759666523037,794547231,5294,1,0.876953125,0.03118896484375,0.31951904296875
1759666523037,794547231,5294,2,0.880126953125,0.02947998046875,0.32147216796875
1759666523037,794547231,5294,3,0.8798828125,0.03143310546875,0.31488037109375
1759666523037,794547231,5294,4,0.879150390625,0.02996826171875,0.31243896484375
1759666523037,794547231,5294,5,0.878662109375,0.03289794921875,0.31414794921875
1759666523037,794547231,5294,6,0.88037109375,0.02728271484375,0.31951904296875
1759666523037,794547231,5294,7,0.88134765625,0.03338623046875,0.31292724609375
1759666523037,794547231,5294,8,0.879150390625,0.03778076171875,0.31292724609375
1759666523037,794547231,5294,9,0.87451171875,0.02508544921875,0.31585693359375
1759666523037,794547231,5294,10,0.87939453125,0.03045654296875,0.31439208984375
1759666523037,794547231,5294,11,0.877685546875,0.03167724609375,0.31390380859375
1759666523037,794547231,5294,12,0.884765625,0.03167724609375,0.30633544921875
1759666523037,794547231,5294,13,0.8798828125,0.02825927734375,0.30560302734375
1759666523037,794547231,5294,14,0.88037109375,0.03509521484375,0.30853271484375
1759666523037,794547231,5294,15,0.879638671875,0.02703857421875,0.30804443359375
1759666523037,794547231,5294,16,0.8837890625,0.03192138671875,0.30169677734375
1759666523037,794547231,5294,17,0.88330078125,0.02630615234375,0.30169677734375
1759666523037,794547231,5294,18,0.88720703125,0.02850341796875,0.29119873046875
1759666523037,794547231,5294,19,0.88720703125,0.02825927734375,0.29730224609375
1759666523037,794547231,5294,20,0.884521484375,0.02508544921875,0.29705810546875
1759666523037,794547231,5294,21,0.888427734375,0.02459716796875,0.28973388671875
1759666523037,794547231,5294,22,0.886962890625,0.02484130859375,0.28314208984375
1759666523037,794547231,5294,23,0.88916015625,0.02606201171875,0.28240966796875
1759666523037,794547231,5294,24,0.895263671875,0.03387451171875,0.27874755859375
1759666523037,794547231,5294,25,0.891357421875,0.02435302734375,0.27801513671875
1759666523037,794547231,5294,26,0.898681640625,0.02972412109375,0.27191162109375
1759666523037,794547231,5294,27,0.894287109375,0.02606201171875,0.27484130859375
1759666523037,794547231,5294,28,0.890869140625,0.02679443359375,0.27264404296875
1759666523037,794547231,5294,29,0.891357421875,0.02874755859375,0.27801513671875
1759666523037,794547231,5294,30,0.892333984375,0.02825927734375,0.27508544921875
1759666523037,794547231,5294,31,0.89404296875,0.02752685546875,0.27410888671875
1759666525586,794549811,5295,0,0.893798828125,0.02557373046875,0.26898193359375
1759666525586,794549811,5295,1,0.894287109375,0.02777099609375,0.27069091796875
1759666525586,794549811,5295,2,0.8955078125,0.02655029296875,0.27459716796875
1759666525586,794549811,5295,3,0.892333984375,0.02801513671875,0.26800537109375
1759666525586,794549811,5295,4,0.897216796875,0.02947998046875,0.26995849609375
1759666525586,794549811,5295,5,0.89501953125,0.02850341796875,0.27044677734375
1759666525586,794549811,5295,6,0.892333984375,0.02850341796875,0.26824951171875
1759666525586,794549811,5295,7,0.898193359375,0.02752685546875,0.27288818359375
1759666525586,794549811,5295,8,0.894287109375,0.02801513671875,0.27191162109375
1759666525586,794549811,5295,9,0.8955078125,0.02655029296875,0.26849365234375
1759666525586,794549811,5295,10,0.896240234375,0.02850341796875,0.27435302734375
1759666525586,794549811,5295,11,0.8955078125,0.02972412109375,0.26971435546875
1759666525586,794549811,5295,12,0.893310546875,0.02947998046875,0.27484130859375
1759666525586,794549811,5295,13,0.893798828125,0.03192138671875,0.27020263671875
1759666525586,794549811,5295,14,0.89453125,0.02532958984375,0.28509521484375
1759666525586,794549811,5295,15,0.89208984375,0.03363037109375,0.27630615234375
1759666525586,794549811,5295,16,0.886962890625,0.03240966796875,0.28094482421875
1759666525586,794549811,5295,17,0.886962890625,0.02777099609375,0.28436279296875
1759666525586,794549811,5295,18,0.88916015625,0.03509521484375,0.28436279296875
1759666525586,794549811,5295,19,0.88671875,0.03509521484375,0.28533935546875
1759666525586,794549811,5295,20,0.89208984375,0.03289794921875,0.28948974609375
1759666525586,794549811,5295,21,0.886962890625,0.03948974609375,0.29583740234375
1759666525586,794549811,5295,22,0.884765625,0.03851318359375,0.30096435546875
1759666525586,794549811,5295,23,0.879638671875,0.03851318359375,0.29559326171875
1759666525586,794549811,5295,24,0.888427734375,0.03851318359375,0.30487060546875
1759666525586,794549811,5295,25,0.875,0.04510498046875,0.30413818359375
1759666525586,794549811,5295,26,0.879150390625,0.03826904296875,0.30364990234375
1759666525586,794549811,5295,27,0.881591796875,0.03143310546875,0.31365966796875
1759666525586,794549811,5295,28,0.86962890625,0.03338623046875,0.31512451171875
1759666525586,794549811,5295,29,0.877685546875,0.03607177734375,0.31195068359375
1759666525586,794549811,5295,30,0.880126953125,0.03533935546875,0.30926513671875
1759666525586,794549811,5295,31,0.880859375,0.03558349609375,0.30706787109375
1759666528136,794552390,5296,0,0.8818359375,0.03704833984375,0.30072021484375
1759666528136,794552390,5296,1,0.88232421875,0.03167724609375,0.30340576171875
1759666528136,794552390,5296,2,0.884765625,0.03363037109375,0.30316162109375
1759666528136,794552390,5296,3,0.88037109375,0.03265380859375,0.30389404296875
1759666528136,794552390,5296,4,0.88330078125,0.03265380859375,0.29388427734375
1759666528136,794552390,5296,5,0.88818359375,0.02899169921875,0.29534912109375
1759666528136,794552390,5296,6,0.889892578125,0.03021240234375,0.29193115234375
1759666528136,794552390,5296,7,0.892822265625,0.03045654296875,0.28460693359375
1759666528136,794552390,5296,8,0.890869140625,0.02996826171875,0.28338623046875
1759666528136,794552390,5296,9,0.8896484375,0.02728271484375,0.28680419921875
1759666528136,794552390,5296,10,0.890869140625,0.03167724609375,0.28143310546875
1759666528136,794552390,5296,11,0.886474609375,0.02606201171875,0.28948974609375
1759666528136,794552390,5296,12,0.89306640625,0.03289794921875,0.28704833984375
1759666528136,794552390,5296,13,0.88623046875,0.02777099609375,0.28045654296875
1759666528136,794552390,5296,14,0.889892578125,0.02630615234375,0.28338623046875
1759666528136,794552390,5296,15,0.892822265625,0.02825927734375,0.28216552734375
1759666528136,794552390,5296,16,0.88671875,0.02752685546875,0.28875732421875
1759666528136,794552390,5296,17,0.890380859375,0.02850341796875,0.28021240234375
1759666528136,794552390,5296,18,0.88916015625,0.02508544921875,0.27996826171875
1759666528136,794552390,5296,19,0.892578125,0.02825927734375,0.28265380859375
1759666528136,794552390,5296,20,0.894287109375,0.02899169921875,0.27825927734375
1759666528136,794552390,5296,21,0.890380859375,0.02606201171875,0.28387451171875
1759666528136,794552390,5296,22,0.893798828125,0.02947998046875,0.28167724609375
1759666528136,794552390,5296,23,0.889404296875,0.02825927734375,0.27972412109375
1759666528136,794552390,5296,24,0.88818359375,0.02899169921875,0.28216552734375
1759666528136,794552390,5296,25,0.892333984375,0.03094482421875,0.28118896484375
1759666528136,794552390,5296,26,0.89111328125,0.02825927734375,0.28021240234375
1759666528136,794552390,5296,27,0.893798828125,0.02825927734375,0.28265380859375
1759666528136,794552390,5296,28,0.891357421875,0.02874755859375,0.28094482421875
1759666528136,794552390,5296,29,0.891357421875,0.02557373046875,0.28118896484375
1759666528136,794552390,5296,30,0.89013671875,0.03167724609375,0.28485107421875
1759666528136,794552390,5296,31,0.889892578125,0.02557373046875,0.28387451171875
1759666530837,794554969,5297,0,0.89306640625,0.03192138671875,0.28143310546875
1759666530837,794554969,5297,1,0.889892578125,0.02850341796875,0.28485107421875
1759666530837,794554969,5297,2,0.882568359375,0.02996826171875,0.29022216796875
1759666530837,794554969,5297,3,0.887939453125,0.03216552734375,0.29779052734375
1759666530837,794554969,5297,4,0.88671875,0.03070068359375,0.30047607421875
1759666530837,794554969,5297,5,0.884033203125,0.03314208984375,0.29779052734375
1759666530837,794554969,5297,6,0.882568359375,0.03363037109375,0.30023193359375
1759666530837,794554969,5297,7,0.881103515625,0.03509521484375,0.29705810546875
1759666530837,794554969,5297,8,0.885498046875,0.03680419921875,0.30218505859375
1759666530837,794554969,5297,9,0.88330078125,0.03045654296875,0.30731201171875
1759666530837,794554969,5297,10,0.8837890625,0.03900146484375,0.30657958984375
1759666530837,794554969,5297,11,0.879150390625,0.03753662109375,0.31146240234375
1759666530837,794554969,5297,12,0.875,0.03509521484375,0.31292724609375
1759666530837,794554969,5297,13,0.877197265625,0.03436279296875,0.32000732421875
1759666530837,794554969,5297,14,0.872314453125,0.03924560546875,0.31219482421875
1759666530837,794554969,5297,15,0.88037109375,0.03997802734375,0.31243896484375
1759666530837,794554969,5297,16,0.8818359375,0.03656005859375,0.31097412109375
1759666530837,794554969,5297,17,0.87841796875,0.03558349609375,0.30877685546875
1759666530837,794554969,5297,18,0.877197265625,0.03094482421875,0.31927490234375
1759666530837,794554969,5297,19,0.881103515625,0.03582763671875,0.31463623046875
1759666530837,794554969,5297,20,0.87646484375,0.03363037109375,0.30633544921875
1759666530837,794554969,5297,21,0.87939453125,0.03118896484375,0.31097412109375
1759666530837,794554969,5297,22,0.881591796875,0.03485107421875,0.30706787109375
1759666530837,794554969,5297,23,0.882080078125,0.02874755859375,0.30926513671875
1759666530837,794554969,5297,24,0.88525390625,0.02972412109375,0.30780029296875
1759666530837,794554969,5297,25,0.8837890625,0.03533935546875,0.30072021484375
1759666530837,794554969,5297,26,0.8818359375,0.03045654296875,0.29827880859375
1759666530837,794554969,5297,27,0.88720703125,0.03192138671875,0.29730224609375
1759666530837,794554969,5297,28,0.887451171875,0.02850341796875,0.29608154296875
1759666530837,794554969,5297,29,0.88037109375,0.03265380859375,0.28826904296875
1759666530837,794554969,5297,30,0.88720703125,0.02703857421875,0.29119873046875
1759666530837,794554969,5297,31,0.893310546875,0.03045654296875,0.28485107421875
1759666533379,794557548,5298,0,0.890869140625,0.02947998046875,0.27850341796875
1759666533379,794557548,5298,1,0.89453125,0.03216552734375,0.27508544921875
1759666533379,794557548,5298,2,0.892822265625,0.02825927734375,0.27825927734375
1759666533379,794557548,5298,3,0.89599609375,0.03021240234375,0.26898193359375
1759666533379,794557548,5298,4,0.89404296875,0.02435302734375,0.27484130859375
1759666533379,794557548,5298,5,0.896484375,0.02972412109375,0.26849365234375
1759666533379,794557548,5298,6,0.893310546875,0.02703857421875,0.26898193359375
1759666533379,794557548,5298,7,0.892578125,0.02728271484375,0.26727294921875
1759666533379,794557548,5298,8,0.895751953125,0.02752685546875,0.27142333984375
1759666533379,794557548,5298,9,0.89599609375,0.02728271484375,0.26849365234375
1759666533379,794557548,5298,10,0.898193359375,0.02777099609375,0.26751708984375
1759666533379,794557548,5298,11,0.89453125,0.02923583984375,0.26629638671875
1759666533379,794557548,5298,12,0.89306640625,0.02777099609375,0.27313232421875
1759666533379,794557548,5298,13,0.8935546875,0.02801513671875,0.26800537109375
1759666533379,794557548,5298,14,0.896728515625,0.02313232421875,0.27459716796875
1759666533379,794557548,5298,15,0.897705078125,0.03289794921875,0.27239990234375
1759666533379,794557548,5298,16,0.896484375,0.02777099609375,0.26947021484375
1759666533379,794557548,5298,17,0.89990234375,0.02655029296875,0.27191162109375
1759666533379,794557548,5298,18,0.890625,0.02923583984375,0.27313232421875
1759666533379,794557548,5298,19,0.8876953125,0.02581787109375,0.28387451171875
1759666533379,794557548,5298,20,0.89013671875,0.02923583984375,0.28363037109375
1759666533379,794557548,5298,21,0.888427734375,0.02606201171875,0.28338623046875
1759666533379,794557548,5298,22,0.88720703125,0.03021240234375,0.28533935546875
1759666533379,794557548,5298,23,0.888427734375,0.03338623046875,0.28900146484375
1759666533379,794557548,5298,24,0.88916015625,0.02484130859375,0.29925537109375
1759666533379,794557548,5298,25,0.884033203125,0.03533935546875,0.29583740234375
1759666533379,794557548,5298,26,0.87646484375,0.03070068359375,0.30145263671875
1759666533379,794557548,5298,27,0.878662109375,0.02899169921875,0.30584716796875
1759666533379,794557548,5298,28,0.87939453125,0.03558349609375,0.30755615234375
1759666533379,794557548,5298,29,0.879638671875,0.03411865234375,0.30780029296875
1759666533379,794557548,5298,30,0.88232421875,0.03729248046875,0.31048583984375
1759666533379,794557548,5298,31,0.875244140625,0.03363037109375,0.30755615234375
1759666535936,794560127,5299,0,0.877197265625,0.03704833984375,0.31488037109375
1759666535936,794560127,5299,1,0.878662109375,0.02655029296875,0.31390380859375
1759666535936,794560127,5299,2,0.8798828125,0.03656005859375,0.31219482421875
1759666535936,794560127,5299,3,0.8779296875,0.03314208984375,0.31072998046875
1759666535936,794560127,5299,4,0.87646484375,0.02801513671875,0.31072998046875
1759666535936,794560127,5299,5,0.880126953125,0.03192138671875,0.31219482421875
1759666535936,794560127,5299,6,0.880615234375,0.03240966796875,0.30706787109375
1759666535936,794560127,5299,7,0.88232421875,0.02874755859375,0.30267333984375
1759666535936,794560127,5299,8,0.881103515625,0.02801513671875,0.30047607421875
1759666535936,794560127,5299,9,0.881103515625,0.03094482421875,0.30438232421875
1759666535936,794560127,5299,10,0.881591796875,0.02459716796875,0.30389404296875
1759666535936,794560127,5299,11,0.88916015625,0.03192138671875,0.29608154296875
1759666535936,794560127,5299,12,0.886474609375,0.02703857421875,0.29534912109375
1759666535936,794560127,5299,13,0.88671875,0.02581787109375,0.28851318359375
1759666535936,794560127,5299,14,0.888671875,0.02752685546875,0.28875732421875
1759666535936,794560127,5299,15,0.8916015625,0.02703857421875,0.28509521484375
1759666535936,794560127,5299,16,0.893310546875,0.02386474609375,0.28118896484375
1759666535936,794560127,5299,17,0.89208984375,0.02557373046875,0.28094482421875
1759666535936,794560127,5299,18,0.890625,0.02630615234375,0.27923583984375
1759666535936,794560127,5299,19,0.892822265625,0.02801513671875,0.27117919921875
1759666535936,794560127,5299,20,0.892822265625,0.02239990234375,0.27874755859375
1759666535936,794560127,5299,21,0.896484375,0.03094482421875,0.27679443359375
1759666535936,794560127,5299,22,0.893310546875,0.02752685546875,0.26727294921875
1759666535936,794560127,5299,23,0.892578125,0.02703857421875,0.27288818359375
1759666535936,794560127,5299,24,0.8955078125,0.02703857421875,0.27337646484375
1759666535936,794560127,5299,25,0.89111328125,0.02508544921875,0.27044677734375
1759666535936,794560127,5299,26,0.89697265625,0.02484130859375,0.26800537109375
1759666535936,794560127,5299,27,0.89404296875,0.02655029296875,0.26849365234375
1759666535936,794560127,5299,28,0.89599609375,0.02679443359375,0.26849365234375
1759666535936,794560127,5299,29,0.8935546875,0.02679443359375,0.26751708984375
1759666535936,794560127,5299,30,0.892578125,0.02435302734375,0.26873779296875
1759666535936,794560127,5299,31,0.903076171875,0.02703857421875,0.26995849609375
1759666538485,794562706,5300,0,0.8916015625,0.02777099609375,0.26678466796875
1759666538485,794562706,5300,1,0.891357421875,0.02655029296875,0.26824951171875
1759666538485,794562706,5300,2,0.898193359375,0.02801513671875,0.27166748046875
1759666538485,794562706,5300,3,0.890869140625,0.02557373046875,0.27093505859375
1759666538485,794562706,5300,4,0.892578125,0.02801513671875,0.27142333984375
1759666538485,794562706,5300,5,0.89306640625,0.03021240234375,0.27264404296875
1759666538485,794562706,5300,6,0.88818359375,0.03143310546875,0.27923583984375
1759666538485,794562706,5300,7,0.89208984375,0.03094482421875,0.28070068359375
1759666538485,794562706,5300,8,0.88623046875,0.02825927734375,0.28387451171875
1759666538485,794562706,5300,9,0.893310546875,0.03094482421875,0.28509521484375
1759666538485,794562706,5300,10,0.889404296875,0.03192138671875,0.29656982421875
1759666538485,794562706,5300,11,0.8798828125,0.03509521484375,0.29144287109375
1759666538485,794562706,5300,12,0.886962890625,0.03216552734375,0.29974365234375
1759666538485,794562706,5300,13,0.887939453125,0.03631591796875,0.29656982421875
1759666538485,794562706,5300,14,0.88623046875,0.03533935546875,0.29266357421875
1759666538485,794562706,5300,15,0.8876953125,0.03582763671875,0.29974365234375
1759666538485,794562706,5300,16,0.879638671875,0.03411865234375,0.30047607421875
1759666538485,794562706,5300,17,0.880126953125,0.03729248046875,0.30242919921875
1759666538485,794562706,5300,18,0.879638671875,0.03143310546875,0.30242919921875
1759666538485,794562706,5300,19,0.8837890625,0.03680419921875,0.30340576171875
1759666538485,794562706,5300,20,0.88525390625,0.03338623046875,0.29632568359375
1759666538485,794562706,5300,21,0.885009765625,0.03216552734375,0.29412841796875
1759666538485,794562706,5300,22,0.88671875,0.03167724609375,0.30047607421875
1759666538485,794562706,5300,23,0.88232421875,0.03192138671875,0.29656982421875
1759666538485,794562706,5300,24,0.885986328125,0.03167724609375,0.29022216796875
1759666538485,794562706,5300,25,0.88623046875,0.02996826171875,0.28924560546875
1759666538485,794562706,5300,26,0.8896484375,0.03045654296875,0.28729248046875
1759666538485,794562706,5300,27,0.886474609375,0.02655029296875,0.27581787109375
1759666538485,794562706,5300,28,0.8916015625,0.02972412109375,0.28411865234375
1759666538485,794562706,5300,29,0.895263671875,0.02899169921875,0.27777099609375
1759666538485,794562706,5300,30,0.89208984375,0.02752685546875,0.27435302734375
1759666538485,794562706,5300,31,0.89306640625,0.02581787109375,0.27191162109375
1759666541185,794565285,5301,0,0.896484375,0.02801513671875,0.26800537109375
1759666541185,794565285,5301,1,0.895751953125,0.02655029296875,0.26776123046875
1759666541185,794565285,5301,2,0.895751953125,0.02679443359375,0.26654052734375
1759666541185,794565285,5301,3,0.89453125,0.02703857421875,0.26531982421875
1759666541185,794565285,5301,4,0.895751953125,0.03192138671875,0.27020263671875
1759666541185,794565285,5301,5,0.892333984375,0.02630615234375,0.26458740234375
1759666541185,794565285,5301,6,0.8974609375,0.03045654296875,0.26531982421875
1759666541185,794565285,5301,7,0.895751953125,0.02947998046875,0.26287841796875
1759666541185,794565285,5301,8,0.893310546875,0.02899169921875,0.26361083984375
1759666541185,794565285,5301,9,0.896728515625,0.02606201171875,0.26727294921875
1759666541185,794565285,5301,10,0.892822265625,0.02899169921875,0.26507568359375
1759666541185,794565285,5301,11,0.897705078125,0.02679443359375,0.26361083984375
1759666541185,794565285,5301,12,0.89794921875,0.02996826171875,0.26507568359375
1759666541185,794565285,5301,13,0.897705078125,0.02825927734375,0.26165771484375
1759666541185,794565285,5301,14,0.8984375,0.02679443359375,0.25994873046875
1759666541185,794565285,5301,15,0.896484375,0.02435302734375,0.26800537109375
1759666541185,794565285,5301,16,0.901611328125,0.03021240234375,0.26239013671875
1759666541185,794565285,5301,17,0.897216796875,0.02874755859375,0.25994873046875
1759666541185,794565285,5301,18,0.895263671875,0.02728271484375,0.26654052734375
1759666541185,794565285,5301,19,0.898681640625,0.02801513671875,0.26727294921875
1759666541185,794565285,5301,20,0.89404296875,0.02655029296875,0.26605224609375
1759666541185,794565285,5301,21,0.896484375,0.02874755859375,0.26214599609375
1759666541185,794565285,5301,22,0.899169921875,0.02972412109375,0.26458740234375
1759666541185,794565285,5301,23,0.89599609375,0.02899169921875,0.26751708984375
1759666541185,794565285,5301,24,0.895751953125,0.02728271484375,0.26068115234375
1759666541185,794565285,5301,25,0.897705078125,0.02752685546875,0.26263427734375
1759666541185,794565285,5301,26,0.89990234375,0.02972412109375,0.26385498046875
1759666541185,794565285,5301,27,0.89599609375,0.02947998046875,0.26116943359375
1759666541185,794565285,5301,28,0.89599609375,0.02532958984375,0.26776123046875
1759666541185,794565285,5301,29,0.897705078125,0.02825927734375,0.26800537109375
1759666541185,794565285,5301,30,0.893798828125,0.02850341796875,0.26336669921875
1759666541185,794565285,5301,31,0.896728515625,0.02679443359375,0.26507568359375
1759666543735,794567865,5302,0,0.8974609375,0.03045654296875,0.26483154296875
1759666543735,794567865,5302,1,0.897216796875,0.02874755859375,0.26361083984375
1759666543735,794567865,5302,2,0.894287109375,0.02850341796875,0.25994873046875
1759666543735,794567865,5302,3,0.900146484375,0.02752685546875,0.26654052734375
1759666543735,794567865,5302,4,0.8974609375,0.02923583984375,0.26922607421875
1759666543735,794567865,5302,5,0.891845703125,0.02899169921875,0.26824951171875
1759666543735,794567865,5302,6,0.899169921875,0.02557373046875,0.27069091796875
1759666543735,794567865,5302,7,0.897705078125,0.02899169921875,0.26873779296875
1759666543735,794567865,5302,8,0.895751953125,0.02947998046875,0.26776123046875
1759666543735,794567865,5302,9,0.89501953125,0.02947998046875,0.27825927734375
1759666543735,794567865,5302,10,0.891357421875,0.03070068359375,0.27752685546875
1759666543735,794567865,5302,11,0.88818359375,0.03021240234375,0.28070068359375
1759666543735,794567865,5302,12,0.892333984375,0.02532958984375,0.28656005859375
1759666543735,794567865,5302,13,0.894287109375,0.03265380859375,0.28631591796875
1759666543735,794567865,5302,14,0.884033203125,0.03167724609375,0.28948974609375
1759666543735,794567865,5302,15,0.884765625,0.02972412109375,0.29071044921875
1759666543735,794567865,5302,16,0.88916015625,0.03143310546875,0.29486083984375
1759666543735,794567865,5302,17,0.882080078125,0.03021240234375,0.29022216796875
1759666543735,794567865,5302,18,0.8876953125,0.02996826171875,0.29852294921875
1759666543735,794567865,5302,19,0.880126953125,0.03192138671875,0.30023193359375
1759666543735,794567865,5302,20,0.87841796875,0.03192138671875,0.29608154296875
1759666543735,794567865,5302,21,0.885498046875,0.02996826171875,0.30316162109375
1759666543735,794567865,5302,22,0.883056640625,0.03021240234375,0.30218505859375
1759666543735,794567865,5302,23,0.882080078125,0.03363037109375,0.29925537109375
1759666543735,794567865,5302,24,0.8828125,0.03045654296875,0.30169677734375
1759666543735,794567865,5302,25,0.884765625,0.03045654296875,0.29852294921875
1759666543735,794567865,5302,26,0.884765625,0.02947998046875,0.29779052734375
1759666543735,794567865,5302,27,0.8837890625,0.02947998046875,0.29901123046875
1759666543735,794567865,5302,28,0.88671875,0.02996826171875,0.29241943359375
1759666543735,794567865,5302,29,0.88671875,0.02679443359375,0.29339599609375
1759666543735,794567865,5302,30,0.889404296875,0.02923583984375,0.29168701171875
1759666543735,794567865,5302,31,0.888671875,0.02728271484375,0.28924560546875
1759666546284,794570444,5303,0,0.884521484375,0.02825927734375,0.28167724609375
1759666546284,794570444,5303,1,0.891357421875,0.02752685546875,0.28045654296875
1759666546284,794570444,5303,2,0.894775390625,0.02508544921875,0.27972412109375
1759666546284,794570444,5303,3,0.897705078125,0.02850341796875,0.27093505859375
1759666546284,794570444,5303,4,0.896484375,0.02532958984375,0.26849365234375
1759666546284,794570444,5303,5,0.894775390625,0.02874755859375,0.26605224609375
1759666546284,794570444,5303,6,0.8994140625,0.02508544921875,0.27239990234375
1759666546284,794570444,5303,7,0.900146484375,0.02655029296875,0.26605224609375
1759666546284,794570444,5303,8,0.892822265625,0.02801513671875,0.26116943359375
1759666546284,794570444,5303,9,0.89697265625,0.02606201171875,0.26776123046875
1759666546284,794570444,5303,10,0.898193359375,0.02606201171875,0.26483154296875
1759666546284,794570444,5303,11,0.898681640625,0.02630615234375,0.26190185546875
1759666546284,794570444,5303,12,0.89794921875,0.02484130859375,0.26287841796875
1759666546284,794570444,5303,13,0.89697265625,0.02703857421875,0.25872802734375
1759666546284,794570444,5303,14,0.899169921875,0.02703857421875,0.26434326171875
1759666546284,794570444,5303,15,0.8974609375,0.02655029296875,0.25970458984375
1759666546284,794570444,5303,16,0.902099609375,0.02947998046875,0.25994873046875
1759666546284,794570444,5303,17,0.898681640625,0.02459716796875,0.26141357421875
1759666546284,794570444,5303,18,0.89599609375,0.02777099609375,0.26019287109375
1759666546284,794570444,5303,19,0.898681640625,0.02508544921875,0.26458740234375
1759666546284,794570444,5303,20,0.897216796875,0.02679443359375,0.26190185546875
1759666546284,794570444,5303,21,0.89794921875,0.02947998046875,0.25921630859375
1759666546284,794570444,5303,22,0.898193359375,0.02484130859375,0.25897216796875
1759666546284,794570444,5303,23,0.897705078125,0.02508544921875,0.26141357421875
1759666546284,794570444,5303,24,0.89697265625,0.02581787109375,0.26361083984375
1759666546284,794570444,5303,25,0.894287109375,0.02655029296875,0.25897216796875
1759666546284,794570444,5303,26,0.8984375,0.02581787109375,0.26483154296875
1759666546284,794570444,5303,27,0.8974609375,0.02679443359375,0.26507568359375
1759666546284,794570444,5303,28,0.895263671875,0.02801513671875,0.25531005859375
1759666546284,794570444,5303,29,0.899169921875,0.02557373046875,0.26165771484375
1759666546284,794570444,5303,30,0.89453125,0.02874755859375,0.26190185546875
1759666546284,794570444,5303,31,0.896240234375,0.02777099609375,0.26434326171875
1759666548835,794573023,5304,0,0.895263671875,0.02679443359375,0.26727294921875
1759666548835,794573023,5304,1,0.89453125,0.02801513671875,0.27044677734375
1759666548835,794573023,5304,2,0.893310546875,0.02679443359375,0.27508544921875
1759666548835,794573023,5304,3,0.889892578125,0.03240966796875,0.27239990234375
1759666548835,794573023,5304,4,0.892333984375,0.02581787109375,0.27679443359375
1759666548835,794573023,5304,5,0.89306640625,0.03289794921875,0.27557373046875
1759666548835,794573023,5304,6,0.892333984375,0.02850341796875,0.28265380859375
1759666548835,794573023,5304,7,0.8857421875,0.02923583984375,0.28240966796875
1759666548835,794573023,5304,8,0.888671875,0.03240966796875,0.28240966796875
1759666548835,794573023,5304,9,0.88818359375,0.03021240234375,0.28631591796875
1759666548835,794573023,5304,10,0.88916015625,0.03216552734375,0.28216552734375
1759666548835,794573023,5304,11,0.89013671875,0.03314208984375,0.28216552734375
1759666548835,794573023,5304,12,0.889892578125,0.02923583984375,0.28265380859375
1759666548835,794573023,5304,13,0.88671875,0.03582763671875,0.28631591796875
1759666548835,794573023,5304,14,0.885986328125,0.02752685546875,0.28485107421875
1759666548835,794573023,5304,15,0.891845703125,0.03289794921875,0.28216552734375
1759666548835,794573023,5304,16,0.8916015625,0.03314208984375,0.28509521484375
1759666548835,794573023,5304,17,0.888671875,0.02679443359375,0.28607177734375
1759666548835,794573023,5304,18,0.889404296875,0.02996826171875,0.28289794921875
1759666548835,794573023,5304,19,0.889404296875,0.02825927734375,0.28289794921875
1759666548835,794573023,5304,20,0.8916015625,0.02777099609375,0.27752685546875
1759666548835,794573023,5304,21,0.892578125,0.02947998046875,0.27581787109375
1759666548835,794573023,5304,22,0.894775390625,0.02630615234375,0.27777099609375
1759666548835,794573023,5304,23,0.89453125,0.02996826171875,0.27655029296875
1759666548835,794573023,5304,24,0.890380859375,0.02606201171875,0.27020263671875
1759666548835,794573023,5304,25,0.89599609375,0.02850341796875,0.27288818359375
1759666548835,794573023,5304,26,0.8955078125,0.02703857421875,0.27166748046875
1759666548835,794573023,5304,27,0.889404296875,0.02777099609375,0.26507568359375
1759666548835,794573023,5304,28,0.89697265625,0.02532958984375,0.26727294921875
