receivedPhoneTimestamp,respeckTimestamp,packetSeqNum,sampleSeqNum,accelX,accelY,accelZ
1759594955956,696478590,12788,0,-0.667724609375,-0.29766845703125,0.67352294921875
1759594955956,696478590,12788,1,-0.668212890625,-0.30450439453125,0.67303466796875
1759594955956,696478590,12788,2,-0.67236328125,-0.29815673828125,0.67523193359375
1759594955956,696478590,12788,3,-0.66552734375,-0.30181884765625,0.67694091796875
1759594955956,696478590,12788,4,-0.670654296875,-0.29888916015625,0.67083740234375
1759594955956,696478590,12788,5,-0.66943359375,-0.30035400390625,0.68304443359375
1759594955956,696478590,12788,6,-0.66845703125,-0.30181884765625,0.67254638671875
1759594955956,696478590,12788,7,-0.670654296875,-0.30255126953125,0.67547607421875
1759594955956,696478590,12788,8,-0.67236328125,-0.29791259765625,0.67352294921875
1759594955956,696478590,12788,9,-0.6689453125,-0.29962158203125,0.67742919921875
1759594955956,696478590,12788,10,-0.669921875,-0.30255126953125,0.67156982421875
1759594955956,696478590,12788,11,-0.66943359375,-0.29864501953125,0.68011474609375
1759594955956,696478590,12788,12,-0.664306640625,-0.30303955078125,0.68060302734375
1759594955956,696478590,12788,13,-0.669921875,-0.30303955078125,0.67376708984375
1759594955956,696478590,12788,14,-0.667236328125,-0.29766845703125,0.67816162109375
1759594955956,696478590,12788,15,-0.667724609375,-0.30303955078125,0.67572021484375
1759594955956,696478590,12788,16,-0.667724609375,-0.30133056640625,0.67523193359375
1759594955956,696478590,12788,17,-0.6689453125,-0.29815673828125,0.67645263671875
1759594955956,696478590,12788,18,-0.668212890625,-0.29840087890625,0.67352294921875
1759594955956,696478590,12788,19,-0.67041015625,-0.29815673828125,0.67401123046875
1759594955956,696478590,12788,20,-0.67236328125,-0.29937744140625,0.68182373046875
1759594955956,696478590,12788,21,-0.6689453125,-0.30206298828125,0.67596435546875
1759594955956,696478590,12788,22,-0.672119140625,-0.29669189453125,0.67205810546875
1759594955956,696478590,12788,23,-0.669921875,-0.29864501953125,0.67864990234375
1759594955956,696478590,12788,24,-0.66943359375,-0.29913330078125,0.67401123046875
1759594955956,696478590,12788,25,-0.669921875,-0.29913330078125,0.67425537109375
1759594955956,696478590,12788,26,-0.66650390625,-0.30157470703125,0.67498779296875
1759594955956,696478590,12788,27,-0.666748046875,-0.30035400390625,0.67791748046875
1759594955956,696478590,12788,28,-0.669189453125,-0.30279541015625,0.66986083984375
1759594955956,696478590,12788,29,-0.67431640625,-0.29522705078125,0.67327880859375
1759594955956,696478590,12788,30,-0.66552734375,-0.30133056640625,0.68011474609375
1759594955956,696478590,12788,31,-0.66650390625,-0.30010986328125,0.67132568359375
1759594958655,696481157,12789,0,-0.666259765625,-0.29937744140625,0.68157958984375
1759594958655,696481157,12789,1,-0.6689453125,-0.30181884765625,0.67376708984375
1759594958655,696481157,12789,2,-0.66943359375,-0.30206298828125,0.67962646484375
1759594958655,696481157,12789,3,-0.66845703125,-0.29913330078125,0.67791748046875
1759594958655,696481157,12789,4,-0.670166015625,-0.30133056640625,0.67962646484375
1759594958655,696481157,12789,5,-0.66796875,-0.30377197265625,0.67352294921875
1759594958655,696481157,12789,6,-0.6689453125,-0.29669189453125,0.67596435546875
1759594958655,696481157,12789,7,-0.666259765625,-0.30303955078125,0.67987060546875
1759594958655,696481157,12789,8,-0.670166015625,-0.30108642578125,0.67425537109375
1759594958655,696481157,12789,9,-0.668212890625,-0.30035400390625,0.67913818359375
1759594958655,696481157,12789,10,-0.66943359375,-0.30181884765625,0.67645263671875
1759594958655,696481157,12789,11,-0.6669921875,-0.29986572265625,0.67938232421875
1759594958655,696481157,12789,12,-0.6669921875,-0.30352783203125,0.67767333984375
1759594958655,696481157,12789,13,-0.6748046875,-0.29913330078125,0.67572021484375
1759594958655,696481157,12789,14,-0.665283203125,-0.30596923828125,0.67864990234375
1759594958655,696481157,12789,15,-0.67138671875,-0.29840087890625,0.67132568359375
1759594958655,696481157,12789,16,-0.6669921875,-0.30401611328125,0.67889404296875
1759594958655,696481157,12789,17,-0.66796875,-0.30133056640625,0.67938232421875
1759594958655,696481157,12789,18,-0.670166015625,-0.30108642578125,0.67767333984375
1759594958655,696481157,12789,19,-0.668212890625,-0.30401611328125,0.67694091796875
1759594958655,696481157,12789,20,-0.66943359375,-0.30133056640625,0.67181396484375
1759594958655,696481157,12789,21,-0.671875,-0.30059814453125,0.67669677734375
1759594958655,696481157,12789,22,-0.66650390625,-0.30548095703125,0.67645263671875
1759594958655,696481157,12789,23,-0.6748046875,-0.29473876953125,0.67352294921875
1759594958655,696481157,12789,24,-0.66650390625,-0.30328369140625,0.68157958984375
1759594958655,696481157,12789,25,-0.6708984375,-0.30230712890625,0.67669677734375
1759594958655,696481157,12789,26,-0.66796875,-0.30328369140625,0.67816162109375
1759594958655,696481157,12789,27,-0.66796875,-0.30377197265625,0.67401123046875
1759594958655,696481157,12789,28,-0.669921875,-0.30377197265625,0.67352294921875
1759594958655,696481157,12789,29,-0.671142578125,-0.29791259765625,0.67816162109375
1759594958655,696481157,12789,30,-0.665771484375,-0.30621337890625,0.67376708984375
1759594958655,696481157,12789,31,-0.67529296875,-0.29742431640625,0.67376708984375
1759594961175,696483724,12790,0,-0.664794921875,-0.30255126953125,0.67840576171875
1759594961175,696483724,12790,1,-0.669677734375,-0.30279541015625,0.67425537109375
1759594961175,696483724,12790,2,-0.67041015625,-0.30181884765625,0.67791748046875
1759594961175,696483724,12790,3,-0.6669921875,-0.30035400390625,0.67205810546875
1759594961175,696483724,12790,4,-0.668701171875,-0.30059814453125,0.67620849609375
1759594961175,696483724,12790,5,-0.672119140625,-0.30157470703125,0.67108154296875
1759594961175,696483724,12790,6,-0.662841796875,-0.30230712890625,0.68133544921875
1759594961175,696483724,12790,7,-0.67138671875,-0.30059814453125,0.67132568359375
1759594961175,696483724,12790,8,-0.667724609375,-0.30157470703125,0.67669677734375
1759594961175,696483724,12790,9,-0.669189453125,-0.30255126953125,0.67254638671875
1759594961175,696483724,12790,10,-0.66943359375,-0.30303955078125,0.67425537109375
1759594961175,696483724,12790,11,-0.666748046875,-0.30230712890625,0.67742919921875
1759594961175,696483724,12790,12,-0.667724609375,-0.30181884765625,0.67913818359375
1759594961175,696483724,12790,13,-0.669189453125,-0.30352783203125,0.67279052734375
1759594961175,696483724,12790,14,-0.673095703125,-0.30084228515625,0.68133544921875
1759594961175,696483724,12790,15,-0.66650390625,-0.30450439453125,0.67767333984375
1759594961175,696483724,12790,16,-0.6728515625,-0.30328369140625,0.67279052734375
1759594961175,696483724,12790,17,-0.670166015625,-0.30255126953125,0.67572021484375
1759594961175,696483724,12790,18,-0.674560546875,-0.30450439453125,0.67352294921875
1759594961175,696483724,12790,19,-0.677978515625,-0.30596923828125,0.66961669921875
1759594961175,696483724,12790,20,-0.676513671875,-0.30474853515625,0.66937255859375
1759594961175,696483724,12790,21,-0.6796875,-0.31134033203125,0.66253662109375
1759594961175,696483724,12790,22,-0.6865234375,-0.30279541015625,0.66448974609375
1759594961175,696483724,12790,23,-0.68359375,-0.30694580078125,0.66033935546875
1759594961175,696483724,12790,24,-0.6884765625,-0.30523681640625,0.66278076171875
1759594961175,696483724,12790,25,-0.6875,-0.30230712890625,0.65423583984375
1759594961175,696483724,12790,26,-0.690673828125,-0.30328369140625,0.66009521484375
1759594961175,696483724,12790,27,-0.692138671875,-0.30377197265625,0.65570068359375
1759594961175,696483724,12790,28,-0.694580078125,-0.30401611328125,0.65325927734375
1759594961175,696483724,12790,29,-0.69140625,-0.29937744140625,0.65814208984375
1759594961175,696483724,12790,30,-0.68798828125,-0.30255126953125,0.65472412109375
1759594961175,696483724,12790,31,-0.693115234375,-0.29840087890625,0.65203857421875
1759594963695,696486291,12791,0,-0.69140625,-0.30352783203125,0.65521240234375
1759594963695,696486291,12791,1,-0.69140625,-0.29864501953125,0.65594482421875
1759594963695,696486291,12791,2,-0.6923828125,-0.29986572265625,0.65667724609375
1759594963695,696486291,12791,3,-0.69189453125,-0.30230712890625,0.65814208984375
1759594963695,696486291,12791,4,-0.69189453125,-0.29766845703125,0.65936279296875
1759594963695,696486291,12791,5,-0.691162109375,-0.30157470703125,0.65814208984375
1759594963695,696486291,12791,6,-0.69140625,-0.29718017578125,0.65472412109375
1759594963695,696486291,12791,7,-0.683837890625,-0.30279541015625,0.66424560546875
1759594963695,696486291,12791,8,-0.690185546875,-0.29473876953125,0.65643310546875
1759594963695,696486291,12791,9,-0.68505859375,-0.30206298828125,0.66473388671875
1759594963695,696486291,12791,10,-0.685546875,-0.30108642578125,0.66497802734375
1759594963695,696486291,12791,11,-0.690185546875,-0.29547119140625,0.66668701171875
1759594963695,696486291,12791,12,-0.68359375,-0.30206298828125,0.66302490234375
1759594963695,696486291,12791,13,-0.684814453125,-0.30157470703125,0.66448974609375
1759594963695,696486291,12791,14,-0.68359375,-0.29864501953125,0.66156005859375
1759594963695,696486291,12791,15,-0.6826171875,-0.30133056640625,0.66717529296875
1759594963695,696486291,12791,16,-0.6826171875,-0.30059814453125,0.66351318359375
1759594963695,696486291,12791,17,-0.6787109375,-0.29595947265625,0.67279052734375
1759594963695,696486291,12791,18,-0.679443359375,-0.30035400390625,0.67108154296875
1759594963695,696486291,12791,19,-0.677734375,-0.30010986328125,0.67279052734375
1759594963695,696486291,12791,20,-0.6767578125,-0.29840087890625,0.67034912109375
1759594963695,696486291,12791,21,-0.677001953125,-0.29864501953125,0.66986083984375
1759594963695,696486291,12791,22,-0.6748046875,-0.30328369140625,0.67279052734375
1759594963695,696486291,12791,23,-0.678466796875,-0.29547119140625,0.67059326171875
1759594963695,696486291,12791,24,-0.67529296875,-0.30328369140625,0.66912841796875
1759594963695,696486291,12791,25,-0.673828125,-0.30059814453125,0.67156982421875
1759594963695,696486291,12791,26,-0.676025390625,-0.30352783203125,0.66864013671875
1759594963695,696486291,12791,27,-0.66943359375,-0.29888916015625,0.67669677734375
1759594963695,696486291,12791,28,-0.67333984375,-0.30181884765625,0.67108154296875
1759594963695,696486291,12791,29,-0.669921875,-0.30206298828125,0.67645263671875
1759594963695,696486291,12791,30,-0.66943359375,-0.30181884765625,0.67303466796875
1759594963695,696486291,12791,31,-0.67236328125,-0.30230712890625,0.67376708984375
1759594966214,696488858,12792,0,-0.668701171875,-0.30572509765625,0.67474365234375
1759594966214,696488858,12792,1,-0.67041015625,-0.30230712890625,0.67498779296875
1759594966214,696488858,12792,2,-0.672119140625,-0.30328369140625,0.67425537109375
1759594966214,696488858,12792,3,-0.670166015625,-0.30230712890625,0.67889404296875
1759594966214,696488858,12792,4,-0.66943359375,-0.30670166015625,0.67230224609375
1759594966214,696488858,12792,5,-0.67041015625,-0.30230712890625,0.68157958984375
1759594966214,696488858,12792,6,-0.669921875,-0.30401611328125,0.67498779296875
1759594966214,696488858,12792,7,-0.669677734375,-0.30572509765625,0.67083740234375
1759594966214,696488858,12792,8,-0.668212890625,-0.30084228515625,0.67620849609375
1759594966214,696488858,12792,9,-0.670166015625,-0.30328369140625,0.67132568359375
1759594966214,696488858,12792,10,-0.67041015625,-0.30523681640625,0.67474365234375
1759594966214,696488858,12792,11,-0.671142578125,-0.30401611328125,0.67254638671875
1759594966214,696488858,12792,12,-0.66845703125,-0.30596923828125,0.67669677734375
1759594966214,696488858,12792,13,-0.67236328125,-0.30426025390625,0.66888427734375
1759594966214,696488858,12792,14,-0.666259765625,-0.30816650390625,0.67987060546875
1759594966214,696488858,12792,15,-0.67041015625,-0.30230712890625,0.66741943359375
1759594966214,696488858,12792,16,-0.667724609375,-0.30596923828125,0.67425537109375
1759594966214,696488858,12792,17,-0.66748046875,-0.30450439453125,0.67230224609375
1759594966214,696488858,12792,18,-0.671875,-0.30670166015625,0.67498779296875
1759594966214,696488858,12792,19,-0.669189453125,-0.30572509765625,0.67303466796875
1759594966214,696488858,12792,20,-0.668212890625,-0.30426025390625,0.67425537109375
1759594966214,696488858,12792,21,-0.66748046875,-0.30596923828125,0.67523193359375
1759594966214,696488858,12792,22,-0.67236328125,-0.30279541015625,0.67083740234375
1759594966214,696488858,12792,23,-0.666015625,-0.30792236328125,0.67694091796875
1759594966214,696488858,12792,24,-0.671875,-0.30303955078125,0.67401123046875
1759594966214,696488858,12792,25,-0.66748046875,-0.30645751953125,0.67816162109375
1759594966214,696488858,12792,26,-0.67138671875,-0.30865478515625,0.67303466796875
1759594966214,696488858,12792,27,-0.67236328125,-0.30450439453125,0.67620849609375
1759594966214,696488858,12792,28,-0.670166015625,-0.30377197265625,0.67205810546875
1759594966214,696488858,12792,29,-0.670166015625,-0.30499267578125,0.67474365234375
1759594966214,696488858,12792,30,-0.669189453125,-0.30767822265625,0.67864990234375
1759594966214,696488858,12792,31,-0.6708984375,-0.30523681640625,0.67156982421875
1759594968915,696491425,12793,0,-0.66845703125,-0.30889892578125,0.67791748046875
1759594968915,696491425,12793,1,-0.677490234375,-0.30450439453125,0.66937255859375
1759594968915,696491425,12793,2,-0.669921875,-0.31085205078125,0.67425537109375
1759594968915,696491425,12793,3,-0.67529296875,-0.30914306640625,0.67156982421875
1759594968915,696491425,12793,4,-0.6748046875,-0.31011962890625,0.67059326171875
1759594968915,696491425,12793,5,-0.6748046875,-0.31280517578125,0.66693115234375
1759594968915,696491425,12793,6,-0.67822265625,-0.30841064453125,0.66253662109375
1759594968915,696491425,12793,7,-0.677978515625,-0.30914306640625,0.66546630859375
1759594968915,696491425,12793,8,-0.68310546875,-0.31011962890625,0.66082763671875
1759594968915,696491425,12793,9,-0.679931640625,-0.31329345703125,0.66741943359375
1759594968915,696491425,12793,10,-0.683837890625,-0.31060791015625,0.65545654296875
1759594968915,696491425,12793,11,-0.68359375,-0.31182861328125,0.66009521484375
1759594968915,696491425,12793,12,-0.686279296875,-0.30963134765625,0.65814208984375
1759594968915,696491425,12793,13,-0.685546875,-0.30548095703125,0.65521240234375
1759594968915,696491425,12793,14,-0.687744140625,-0.30938720703125,0.65399169921875
1759594968915,696491425,12793,15,-0.6875,-0.30474853515625,0.66009521484375
1759594968915,696491425,12793,16,-0.69140625,-0.30694580078125,0.65301513671875
1759594968915,696491425,12793,17,-0.6904296875,-0.31011962890625,0.65374755859375
1759594968915,696491425,12793,18,-0.688720703125,-0.30841064453125,0.65911865234375
1759594968915,696491425,12793,19,-0.6875,-0.30523681640625,0.65252685546875
1759594968915,696491425,12793,20,-0.69287109375,-0.30694580078125,0.65594482421875
1759594968915,696491425,12793,21,-0.689697265625,-0.30474853515625,0.64984130859375
1759594968915,696491425,12793,22,-0.691650390625,-0.30596923828125,0.65008544921875
1759594968915,696491425,12793,23,-0.690673828125,-0.30670166015625,0.65106201171875
1759594968915,696491425,12793,24,-0.6884765625,-0.30401611328125,0.64959716796875
1759594968915,696491425,12793,25,-0.68994140625,-0.30621337890625,0.65570068359375
1759594968915,696491425,12793,26,-0.68994140625,-0.30621337890625,0.65008544921875
1759594968915,696491425,12793,27,-0.685546875,-0.30523681640625,0.66156005859375
1759594968915,696491425,12793,28,-0.687744140625,-0.30401611328125,0.65789794921875
1759594968915,696491425,12793,29,-0.685791015625,-0.30767822265625,0.66302490234375
1759594968915,696491425,12793,30,-0.6845703125,-0.30303955078125,0.65789794921875
1759594968915,696491425,12793,31,-0.6826171875,-0.30572509765625,0.66595458984375
1759594971435,696493992,12794,0,-0.679443359375,-0.30694580078125,0.66595458984375
1759594971435,696493992,12794,1,-0.680419921875,-0.30621337890625,0.66668701171875
1759594971435,696493992,12794,2,-0.679443359375,-0.30621337890625,0.66644287109375
1759594971435,696493992,12794,3,-0.677978515625,-0.30474853515625,0.66937255859375
1759594971435,696493992,12794,4,-0.677978515625,-0.30743408203125,0.66058349609375
1759594971435,696493992,12794,5,-0.678466796875,-0.29913330078125,0.66864013671875
1759594971435,696493992,12794,6,-0.673583984375,-0.30499267578125,0.67108154296875
1759594971435,696493992,12794,7,-0.676513671875,-0.30523681640625,0.66644287109375
1759594971435,696493992,12794,8,-0.67431640625,-0.30352783203125,0.66790771484375
1759594971435,696493992,12794,9,-0.675537109375,-0.30694580078125,0.66864013671875
1759594971435,696493992,12794,10,-0.67333984375,-0.30596923828125,0.67181396484375
1759594971435,696493992,12794,11,-0.6748046875,-0.30596923828125,0.66961669921875
1759594971435,696493992,12794,12,-0.67431640625,-0.30841064453125,0.67230224609375
1759594971435,696493992,12794,13,-0.677734375,-0.30426025390625,0.67059326171875
1759594971435,696493992,12794,14,-0.671142578125,-0.30963134765625,0.66717529296875
1759594971435,696493992,12794,15,-0.677490234375,-0.30572509765625,0.66815185546875
1759594971435,696493992,12794,16,-0.669189453125,-0.31085205078125,0.67181396484375
1759594971435,696493992,12794,17,-0.67724609375,-0.30816650390625,0.66815185546875
1759594971435,696493992,12794,18,-0.670654296875,-0.30767822265625,0.67279052734375
1759594971435,696493992,12794,19,-0.672119140625,-0.31109619140625,0.67181396484375
1759594971435,696493992,12794,20,-0.672607421875,-0.30914306640625,0.67156982421875
1759594971435,696493992,12794,21,-0.672119140625,-0.30889892578125,0.67156982421875
1759594971435,696493992,12794,22,-0.67236328125,-0.30865478515625,0.66986083984375
1759594971435,696493992,12794,23,-0.6767578125,-0.31060791015625,0.66815185546875
1759594971435,696493992,12794,24,-0.67333984375,-0.30841064453125,0.67791748046875
1759594971435,696493992,12794,25,-0.67236328125,-0.31109619140625,0.66693115234375
1759594971435,696493992,12794,26,-0.675048828125,-0.31475830078125,0.67181396484375
1759594971435,696493992,12794,27,-0.6708984375,-0.31304931640625,0.67327880859375
1759594971435,696493992,12794,28,-0.676025390625,-0.31304931640625,0.66571044921875
1759594971435,696493992,12794,29,-0.6767578125,-0.31280517578125,0.66375732421875
1759594971435,696493992,12794,30,-0.677001953125,-0.31182861328125,0.66107177734375
1759594971435,696493992,12794,31,-0.67529296875,-0.31622314453125,0.66864013671875
1759594973956,696496560,12795,0,-0.684326171875,-0.31280517578125,0.65765380859375
1759594973956,696496560,12795,1,-0.679443359375,-0.31573486328125,0.66351318359375
1759594973956,696496560,12795,2,-0.686767578125,-0.31256103515625,0.65179443359375
1759594973956,696496560,12795,3,-0.68505859375,-0.31622314453125,0.65643310546875
1759594973956,696496560,12795,4,-0.686279296875,-0.31500244140625,0.65496826171875
1759594973956,696496560,12795,5,-0.6923828125,-0.31036376953125,0.64764404296875
1759594973956,696496560,12795,6,-0.69140625,-0.30963134765625,0.64666748046875
1759594973956,696496560,12795,7,-0.69189453125,-0.30694580078125,0.64544677734375
1759594973956,696496560,12795,8,-0.693603515625,-0.30865478515625,0.65179443359375
1759594973956,696496560,12795,9,-0.694091796875,-0.30572509765625,0.64520263671875
1759594973956,696496560,12795,10,-0.691650390625,-0.31158447265625,0.65228271484375
1759594973956,696496560,12795,11,-0.69091796875,-0.30230712890625,0.65032958984375
1759594973956,696496560,12795,12,-0.689697265625,-0.30841064453125,0.65472412109375
1759594973956,696496560,12795,13,-0.689208984375,-0.30499267578125,0.65228271484375
1759594973956,696496560,12795,14,-0.686767578125,-0.30621337890625,0.65863037109375
1759594973956,696496560,12795,15,-0.685791015625,-0.30572509765625,0.65399169921875
1759594973956,696496560,12795,16,-0.68408203125,-0.30523681640625,0.66790771484375
1759594973956,696496560,12795,17,-0.6845703125,-0.30743408203125,0.66448974609375
1759594973956,696496560,12795,18,-0.677978515625,-0.30596923828125,0.66571044921875
1759594973956,696496560,12795,19,-0.67578125,-0.30987548828125,0.66278076171875
1759594973956,696496560,12795,20,-0.677001953125,-0.30328369140625,0.67132568359375
1759594973956,696496560,12795,21,-0.673583984375,-0.31060791015625,0.66839599609375
1759594973956,696496560,12795,22,-0.67822265625,-0.30767822265625,0.66497802734375
1759594973956,696496560,12795,23,-0.67138671875,-0.30670166015625,0.67205810546875
1759594973956,696496560,12795,24,-0.67236328125,-0.30914306640625,0.66815185546875
1759594973956,696496560,12795,25,-0.672607421875,-0.31060791015625,0.67010498046875
1759594973956,696496560,12795,26,-0.67529296875,-0.30841064453125,0.67059326171875
1759594973956,696496560,12795,27,-0.67626953125,-0.30963134765625,0.67181396484375
1759594973956,696496560,12795,28,-0.673828125,-0.30792236328125,0.66668701171875
1759594973956,696496560,12795,29,-0.669921875,-0.30987548828125,0.67694091796875
1759594973956,696496560,12795,30,-0.671630859375,-0.30865478515625,0.66937255859375
1759594973956,696496560,12795,31,-0.6708984375,-0.31280517578125,0.67034912109375
1759594976835,696499127,12796,0,-0.670654296875,-0.30889892578125,0.67132568359375
1759594976835,696499127,12796,1,-0.673095703125,-0.31085205078125,0.67034912109375
1759594976835,696499127,12796,2,-0.669677734375,-0.31085205078125,0.67108154296875
1759594976835,696499127,12796,3,-0.673095703125,-0.31036376953125,0.67230224609375
1759594976835,696499127,12796,4,-0.673095703125,-0.31231689453125,0.67083740234375
1759594976835,696499127,12796,5,-0.673583984375,-0.30889892578125,0.66424560546875
1759594976835,696499127,12796,6,-0.668212890625,-0.31134033203125,0.67498779296875
1759594976835,696499127,12796,7,-0.67529296875,-0.30743408203125,0.67010498046875
1759594976835,696499127,12796,8,-0.669189453125,-0.31500244140625,0.67254638671875
1759594976835,696499127,12796,9,-0.67236328125,-0.31134033203125,0.66790771484375
1759594976835,696499127,12796,10,-0.672607421875,-0.31304931640625,0.66741943359375
1759594976835,696499127,12796,11,-0.670654296875,-0.31304931640625,0.66937255859375
1759594976835,696499127,12796,12,-0.673828125,-0.31085205078125,0.67059326171875
1759594976835,696499127,12796,13,-0.6708984375,-0.31011962890625,0.67327880859375
1759594976835,696499127,12796,14,-0.677734375,-0.30938720703125,0.66888427734375
1759594976835,696499127,12796,15,-0.667724609375,-0.31646728515625,0.67254638671875
1759594976835,696499127,12796,16,-0.67529296875,-0.30889892578125,0.66864013671875
1759594976835,696499127,12796,17,-0.670166015625,-0.31719970703125,0.66912841796875
1759594976835,696499127,12796,18,-0.67333984375,-0.31549072265625,0.66693115234375
1759594976835,696499127,12796,19,-0.673828125,-0.31549072265625,0.66864013671875
1759594976835,696499127,12796,20,-0.67529296875,-0.31622314453125,0.66253662109375
1759594976835,696499127,12796,21,-0.67578125,-0.31646728515625,0.66375732421875
1759594976835,696499127,12796,22,-0.67578125,-0.31890869140625,0.66278076171875
1759594976835,696499127,12796,23,-0.683349609375,-0.31353759765625,0.65765380859375
1759594976835,696499127,12796,24,-0.678466796875,-0.32281494140625,0.65814208984375
1759594976835,696499127,12796,25,-0.688720703125,-0.31549072265625,0.65496826171875
1759594976835,696499127,12796,26,-0.682373046875,-0.32012939453125,0.65863037109375
1759594976835,696499127,12796,27,-0.688720703125,-0.31597900390625,0.65496826171875
1759594976835,696499127,12796,28,-0.689208984375,-0.31280517578125,0.65081787109375
1759594976835,696499127,12796,29,-0.68896484375,-0.31378173828125,0.64886474609375
1759594976835,696499127,12796,30,-0.689697265625,-0.31329345703125,0.65008544921875
1759594976835,696499127,12796,31,-0.690185546875,-0.31402587890625,0.65277099609375
1759594979175,696501694,12797,0,-0.693115234375,-0.31231689453125,0.64837646484375
1759594979175,696501694,12797,1,-0.684814453125,-0.31402587890625,0.65594482421875
1759594979175,696501694,12797,2,-0.688232421875,-0.30767822265625,0.65155029296875
1759594979175,696501694,12797,3,-0.684814453125,-0.31475830078125,0.66278076171875
1759594979175,696501694,12797,4,-0.68359375,-0.31134033203125,0.65716552734375
1759594979175,696501694,12797,5,-0.68603515625,-0.31011962890625,0.65228271484375
1759594979175,696501694,12797,6,-0.6826171875,-0.31085205078125,0.66009521484375
1759594979175,696501694,12797,7,-0.682861328125,-0.31109619140625,0.65985107421875
1759594979175,696501694,12797,8,-0.680419921875,-0.31085205078125,0.66351318359375
1759594979175,696501694,12797,9,-0.680419921875,-0.31329345703125,0.66033935546875
1759594979175,696501694,12797,10,-0.67724609375,-0.30889892578125,0.66937255859375
1759594979175,696501694,12797,11,-0.6787109375,-0.30865478515625,0.66571044921875
1759594979175,696501694,12797,12,-0.673583984375,-0.31109619140625,0.66741943359375
1759594979175,696501694,12797,13,-0.67626953125,-0.31109619140625,0.66839599609375
1759594979175,696501694,12797,14,-0.67529296875,-0.31256103515625,0.66741943359375
1759594979175,696501694,12797,15,-0.67333984375,-0.31402587890625,0.66790771484375
1759594979175,696501694,12797,16,-0.6728515625,-0.30987548828125,0.66473388671875
1759594979175,696501694,12797,17,-0.673583984375,-0.31085205078125,0.67108154296875
1759594979175,696501694,12797,18,-0.679443359375,-0.31134033203125,0.66082763671875
1759594979175,696501694,12797,19,-0.671875,-0.31280517578125,0.67425537109375
1759594979175,696501694,12797,20,-0.67529296875,-0.31036376953125,0.66546630859375
1759594979175,696501694,12797,21,-0.672607421875,-0.31256103515625,0.66693115234375
1759594979175,696501694,12797,22,-0.673095703125,-0.31158447265625,0.66912841796875
1759594979175,696501694,12797,23,-0.674560546875,-0.31182861328125,0.66741943359375
1759594979175,696501694,12797,24,-0.67333984375,-0.31500244140625,0.66912841796875
1759594979175,696501694,12797,25,-0.6728515625,-0.31158447265625,0.66815185546875
1759594979175,696501694,12797,26,-0.675537109375,-0.31207275390625,0.67279052734375
1759594979175,696501694,12797,27,-0.674560546875,-0.31304931640625,0.66278076171875
1759594979175,696501694,12797,28,-0.675537109375,-0.31085205078125,0.67376708984375
1759594979175,696501694,12797,29,-0.670166015625,-0.31353759765625,0.66741943359375
1759594979175,696501694,12797,30,-0.6748046875,-0.31085205078125,0.66839599609375
1759594979175,696501694,12797,31,-0.670654296875,-0.31231689453125,0.67230224609375
1759594981696,696504261,12798,0,-0.67333984375,-0.31231689453125,0.66741943359375
1759594981696,696504261,12798,1,-0.6728515625,-0.31329345703125,0.66961669921875
1759594981696,696504261,12798,2,-0.675048828125,-0.31597900390625,0.66961669921875
1759594981696,696504261,12798,3,-0.677490234375,-0.31109619140625,0.67034912109375
1759594981696,696504261,12798,4,-0.67431640625,-0.31866455078125,0.66009521484375
1759594981696,696504261,12798,5,-0.682861328125,-0.31304931640625,0.66204833984375
1759594981696,696504261,12798,6,-0.673583984375,-0.31793212890625,0.66253662109375
1759594981696,696504261,12798,7,-0.681640625,-0.31793212890625,0.66351318359375
1759594981696,696504261,12798,8,-0.68017578125,-0.31524658203125,0.66180419921875
1759594981696,696504261,12798,9,-0.680908203125,-0.32086181640625,0.65447998046875
1759594981696,696504261,12798,10,-0.68408203125,-0.31842041015625,0.65374755859375
1759594981696,696504261,12798,11,-0.685546875,-0.31597900390625,0.65521240234375
1759594981696,696504261,12798,12,-0.68701171875,-0.31622314453125,0.64862060546875
1759594981696,696504261,12798,13,-0.685546875,-0.31353759765625,0.65374755859375
1759594981696,696504261,12798,14,-0.689453125,-0.31353759765625,0.64764404296875
1759594981696,696504261,12798,15,-0.690185546875,-0.31524658203125,0.65252685546875
1759594981696,696504261,12798,16,-0.68603515625,-0.31500244140625,0.65130615234375
1759594981696,696504261,12798,17,-0.686279296875,-0.31036376953125,0.65765380859375
1759594981696,696504261,12798,18,-0.6826171875,-0.31207275390625,0.65838623046875
1759594981696,696504261,12798,19,-0.68408203125,-0.31280517578125,0.65716552734375
1759594981696,696504261,12798,20,-0.68359375,-0.31011962890625,0.66107177734375
1759594981696,696504261,12798,21,-0.68505859375,-0.31500244140625,0.65325927734375
1759594981696,696504261,12798,22,-0.6806640625,-0.30865478515625,0.66790771484375
1759594981696,696504261,12798,23,-0.67822265625,-0.31353759765625,0.66864013671875
1759594981696,696504261,12798,24,-0.677734375,-0.31524658203125,0.66815185546875
1759594981696,696504261,12798,25,-0.67626953125,-0.31134033203125,0.66766357421875
1759594981696,696504261,12798,26,-0.67919921875,-0.31158447265625,0.66326904296875
1759594981696,696504261,12798,27,-0.677978515625,-0.31427001953125,0.66815185546875
1759594981696,696504261,12798,28,-0.677490234375,-0.31158447265625,0.66644287109375
1759594981696,696504261,12798,29,-0.67431640625,-0.31402587890625,0.66888427734375
1759594981696,696504261,12798,30,-0.673828125,-0.31646728515625,0.66400146484375
1759594981696,696504261,12798,31,-0.6767578125,-0.31085205078125,0.67254638671875
1759594984397,696506828,12799,0,-0.67333984375,-0.31719970703125,0.66864013671875
1759594984397,696506828,12799,1,-0.67431640625,-0.31304931640625,0.66497802734375
1759594984397,696506828,12799,2,-0.67236328125,-0.31280517578125,0.66790771484375
1759594984397,696506828,12799,3,-0.676025390625,-0.31207275390625,0.66571044921875
1759594984397,696506828,12799,4,-0.675048828125,-0.31134033203125,0.66937255859375
1759594984397,696506828,12799,5,-0.671630859375,-0.31402587890625,0.66937255859375
1759594984397,696506828,12799,6,-0.679443359375,-0.31304931640625,0.66571044921875
1759594984397,696506828,12799,7,-0.669677734375,-0.31549072265625,0.66864013671875
1759594984397,696506828,12799,8,-0.67919921875,-0.30572509765625,0.66668701171875
1759594984397,696506828,12799,9,-0.670166015625,-0.31427001953125,0.66961669921875
1759594984397,696506828,12799,10,-0.67724609375,-0.31256103515625,0.66595458984375
1759594984397,696506828,12799,11,-0.677001953125,-0.31011962890625,0.66815185546875
1759594984397,696506828,12799,12,-0.67236328125,-0.31304931640625,0.66839599609375
1759594984397,696506828,12799,13,-0.676025390625,-0.31085205078125,0.66619873046875
1759594984397,696506828,12799,14,-0.67138671875,-0.31353759765625,0.67083740234375
1759594984397,696506828,12799,15,-0.677490234375,-0.31256103515625,0.66424560546875
1759594984397,696506828,12799,16,-0.672607421875,-0.31353759765625,0.67303466796875
1759594984397,696506828,12799,17,-0.678466796875,-0.31182861328125,0.66253662109375
1759594984397,696506828,12799,18,-0.67919921875,-0.31866455078125,0.66326904296875
1759594984397,696506828,12799,19,-0.679931640625,-0.31475830078125,0.65887451171875
1759594984397,696506828,12799,20,-0.680908203125,-0.31500244140625,0.66131591796875
1759594984397,696506828,12799,21,-0.680908203125,-0.31646728515625,0.65789794921875
1759594984397,696506828,12799,22,-0.684326171875,-0.31793212890625,0.65130615234375
1759594984397,696506828,12799,23,-0.685546875,-0.31304931640625,0.65740966796875
1759594984397,696506828,12799,24,-0.68798828125,-0.32012939453125,0.65155029296875
1759594984397,696506828,12799,25,-0.69189453125,-0.31085205078125,0.65228271484375
1759594984397,696506828,12799,26,-0.688232421875,-0.31427001953125,0.64715576171875
