receivedPhoneTimestamp,respeckTimestamp,packetSeqNum,sampleSeqNum,accelX,accelY,accelZ
1759604598094,706071524,13970,31,-0.06103515625,-1.00885009765625,-0.12750244140625
1759604600679,706074097,13971,0,-0.080810546875,-0.99517822265625,-0.11016845703125
1759604600679,706074097,13971,1,-0.089599609375,-0.98248291015625,-0.10015869140625
1759604600679,706074097,13971,2,-0.099853515625,-1.00372314453125,-0.11358642578125
1759604600679,706074097,13971,3,-0.07958984375,-1.00152587890625,-0.10845947265625
1759604600679,706074097,13971,4,-0.0859375,-1.00299072265625,-0.10137939453125
1759604600679,706074097,13971,5,-0.10546875,-1.00152587890625,-0.10552978515625
1759604600679,706074097,13971,6,-0.126220703125,-1.00030517578125,-0.09527587890625
1759604600679,706074097,13971,7,-0.119873046875,-1.00323486328125,-0.10113525390625
1759604600679,706074097,13971,8,-0.111083984375,-0.99591064453125,-0.09967041015625
1759604600679,706074097,13971,9,-0.117431640625,-0.99786376953125,-0.08770751953125
1759604600679,706074097,13971,10,-0.1142578125,-0.99151611328125,-0.07696533203125
1759604600679,706074097,13971,11,-0.1083984375,-0.99981689453125,-0.08502197265625
1759604600679,706074097,13971,12,-0.112548828125,-1.00274658203125,-0.08038330078125
1759604600679,706074097,13971,13,-0.099365234375,-1.00738525390625,-0.08502197265625
1759604600679,706074097,13971,14,-0.0966796875,-1.00177001953125,-0.07525634765625
1759604600679,706074097,13971,15,-0.088623046875,-0.99493408203125,-0.06890869140625
1759604600679,706074097,13971,16,-0.08984375,-1.00323486328125,-0.07110595703125
1759604600679,706074097,13971,17,-0.080322265625,-0.99981689453125,-0.06011962890625
1759604600679,706074097,13971,18,-0.07666015625,-1.00738525390625,-0.06353759765625
1759604600679,706074097,13971,19,-0.07373046875,-1.00201416015625,-0.06280517578125
1759604600679,706074097,13971,20,-0.072265625,-0.99761962890625,-0.05938720703125
1759604600679,706074097,13971,21,-0.067138671875,-0.99981689453125,-0.05548095703125
1759604600679,706074097,13971,22,-0.0615234375,-0.99713134765625,-0.05010986328125
1759604600679,706074097,13971,23,-0.062744140625,-0.99908447265625,-0.04864501953125
1759604600679,706074097,13971,24,-0.060791015625,-0.99981689453125,-0.06182861328125
1759604600679,706074097,13971,25,-0.068359375,-0.99786376953125,-0.05230712890625
1759604600679,706074097,13971,26,-0.0615234375,-0.99981689453125,-0.06866455078125
1759604600679,706074097,13971,27,-0.057861328125,-1.00152587890625,-0.07354736328125
1759604600679,706074097,13971,28,-0.060302734375,-1.00225830078125,-0.08233642578125
1759604600679,706074097,13971,29,-0.06982421875,-0.99908447265625,-0.07965087890625
1759604600679,706074097,13971,30,-0.063720703125,-1.00103759765625,-0.08331298828125
1759604600679,706074097,13971,31,-0.06005859375,-1.00201416015625,-0.08062744140625
1759604603261,706076671,13972,0,-0.0634765625,-1.00201416015625,-0.08258056640625
1759604603261,706076671,13972,1,-0.054443359375,-1.00128173828125,-0.08428955078125
1759604603261,706076671,13972,2,-0.055908203125,-1.00469970703125,-0.08258056640625
1759604603261,706076671,13972,3,-0.058349609375,-1.00274658203125,-0.07867431640625
1759604603261,706076671,13972,4,-0.0546875,-0.99932861328125,-0.08087158203125
1759604603261,706076671,13972,5,-0.06201171875,-0.99884033203125,-0.07672119140625
1759604603261,706076671,13972,6,-0.060791015625,-0.99957275390625,-0.07257080078125
1759604603261,706076671,13972,7,-0.068115234375,-0.99957275390625,-0.05987548828125
1759604603261,706076671,13972,8,-0.055908203125,-1.00225830078125,-0.06280517578125
1759604603261,706076671,13972,9,-0.05908203125,-1.00128173828125,-0.06207275390625
1759604603261,706076671,13972,10,-0.06640625,-1.00006103515625,-0.06939697265625
1759604603261,706076671,13972,11,-0.055419921875,-0.99932861328125,-0.07257080078125
1759604603261,706076671,13972,12,-0.0654296875,-1.00225830078125,-0.07257080078125
1759604603261,706076671,13972,13,-0.0634765625,-0.99810791015625,-0.07281494140625
1759604603261,706076671,13972,14,-0.067138671875,-1.00469970703125,-0.07281494140625
1759604603261,706076671,13972,15,-0.065185546875,-1.00079345703125,-0.07354736328125
1759604603261,706076671,13972,16,-0.061767578125,-1.00323486328125,-0.06817626953125
1759604603261,706076671,13972,17,-0.056884765625,-1.00079345703125,-0.06427001953125
1759604603261,706076671,13972,18,-0.06201171875,-1.00030517578125,-0.06451416015625
1759604603261,706076671,13972,19,-0.057373046875,-0.99957275390625,-0.06817626953125
1759604603261,706076671,13972,20,-0.062744140625,-1.00347900390625,-0.06817626953125
1759604603261,706076671,13972,21,-0.061279296875,-1.00372314453125,-0.07257080078125
1759604603261,706076671,13972,22,-0.064453125,-1.00128173828125,-0.07037353515625
1759604603261,706076671,13972,23,-0.06787109375,-1.00201416015625,-0.06524658203125
1759604603261,706076671,13972,24,-0.065185546875,-1.00054931640625,-0.06109619140625
1759604603261,706076671,13972,25,-0.06396484375,-1.00299072265625,-0.06158447265625
1759604603261,706076671,13972,26,-0.06591796875,-1.00030517578125,-0.05523681640625
1759604603261,706076671,13972,27,-0.06884765625,-1.00201416015625,-0.04864501953125
1759604603261,706076671,13972,28,-0.07275390625,-1.00079345703125,-0.04815673828125
1759604603261,706076671,13972,29,-0.07470703125,-1.00030517578125,-0.05035400390625
1759604603261,706076671,13972,30,-0.07177734375,-1.00152587890625,-0.04986572265625
1759604603261,706076671,13972,31,-0.069580078125,-1.00030517578125,-0.05450439453125
1759604605847,706079244,13973,0,-0.068359375,-1.00225830078125,-0.05181884765625
1759604605847,706079244,13973,1,-0.06640625,-1.00201416015625,-0.05352783203125
1759604605847,706079244,13973,2,-0.06787109375,-0.99957275390625,-0.05548095703125
1759604605847,706079244,13973,3,-0.062255859375,-0.99908447265625,-0.05767822265625
1759604605847,706079244,13973,4,-0.062744140625,-1.00152587890625,-0.06524658203125
1759604605847,706079244,13973,5,-0.060302734375,-0.99957275390625,-0.06622314453125
1759604605847,706079244,13973,6,-0.05615234375,-1.00103759765625,-0.06549072265625
1759604605847,706079244,13973,7,-0.060546875,-1.00396728515625,-0.06597900390625
1759604605847,706079244,13973,8,-0.064453125,-1.00347900390625,-0.06719970703125
1759604605847,706079244,13973,9,-0.063232421875,-1.00128173828125,-0.06500244140625
1759604605847,706079244,13973,10,-0.06591796875,-1.00079345703125,-0.06768798828125
1759604605847,706079244,13973,11,-0.06396484375,-1.00079345703125,-0.06329345703125
1759604605847,706079244,13973,12,-0.068115234375,-1.00177001953125,-0.05987548828125
1759604605847,706079244,13973,13,-0.0654296875,-0.99957275390625,-0.05841064453125
1759604605847,706079244,13973,14,-0.0634765625,-0.99981689453125,-0.06231689453125
1759604605847,706079244,13973,15,-0.06591796875,-1.00054931640625,-0.06085205078125
1759604605847,706079244,13973,16,-0.06689453125,-1.00030517578125,-0.06060791015625
1759604605847,706079244,13973,17,-0.062744140625,-1.00201416015625,-0.05694580078125
1759604605847,706079244,13973,18,-0.06494140625,-1.00323486328125,-0.05694580078125
1759604605847,706079244,13973,19,-0.060791015625,-1.00079345703125,-0.05548095703125
1759604605847,706079244,13973,20,-0.0654296875,-1.00469970703125,-0.05450439453125
1759604605847,706079244,13973,21,-0.065185546875,-1.00177001953125,-0.05352783203125
1759604605847,706079244,13973,22,-0.06591796875,-1.00103759765625,-0.05230712890625
1759604605847,706079244,13973,23,-0.0634765625,-1.00201416015625,-0.04815673828125
1759604605847,706079244,13973,24,-0.062744140625,-1.00079345703125,-0.04620361328125
1759604605847,706079244,13973,25,-0.06396484375,-1.00103759765625,-0.04302978515625
1759604605847,706079244,13973,26,-0.06591796875,-1.00177001953125,-0.04595947265625
1759604605847,706079244,13973,27,-0.061279296875,-1.00128173828125,-0.04376220703125
1759604605847,706079244,13973,28,-0.062744140625,-1.00201416015625,-0.04400634765625
1759604605847,706079244,13973,29,-0.06298828125,-1.00177001953125,-0.04205322265625
1759604605847,706079244,13973,30,-0.064208984375,-1.00128173828125,-0.04058837890625
1759604605847,706079244,13973,31,-0.066650390625,-1.00103759765625,-0.04107666015625
1759604608427,706081817,13974,0,-0.06103515625,-1.00323486328125,-0.04083251953125
1759604608427,706081817,13974,1,-0.065673828125,-1.00177001953125,-0.04254150390625
1759604608427,706081817,13974,2,-0.06103515625,-1.00225830078125,-0.04718017578125
1759604608427,706081817,13974,3,-0.057373046875,-0.99957275390625,-0.04742431640625
1759604608427,706081817,13974,4,-0.064697265625,-1.00250244140625,-0.04620361328125
1759604608427,706081817,13974,5,-0.067138671875,-0.99932861328125,-0.04815673828125
1759604608427,706081817,13974,6,-0.06640625,-1.00299072265625,-0.05572509765625
1759604608427,706081817,13974,7,-0.067138671875,-1.00445556640625,-0.06134033203125
1759604608427,706081817,13974,8,-0.072021484375,-1.00201416015625,-0.05499267578125
1759604608427,706081817,13974,9,-0.069580078125,-1.00225830078125,-0.04742431640625
1759604608427,706081817,13974,10,-0.07080078125,-1.00225830078125,-0.05108642578125
1759604608427,706081817,13974,11,-0.0693359375,-0.99981689453125,-0.04937744140625
1759604608427,706081817,13974,12,-0.070068359375,-0.99981689453125,-0.04595947265625
1759604608427,706081817,13974,13,-0.071533203125,-1.00225830078125,-0.04473876953125
1759604608427,706081817,13974,14,-0.06884765625,-0.99908447265625,-0.04571533203125
1759604608427,706081817,13974,15,-0.0693359375,-1.00201416015625,-0.04669189453125
1759604608427,706081817,13974,16,-0.073486328125,-1.00079345703125,-0.05084228515625
1759604608427,706081817,13974,17,-0.0703125,-0.99859619140625,-0.04962158203125
1759604608427,706081817,13974,18,-0.071044921875,-1.00274658203125,-0.05694580078125
1759604608427,706081817,13974,19,-0.068359375,-1.00054931640625,-0.05914306640625
1759604608427,706081817,13974,20,-0.064697265625,-1.00103759765625,-0.05963134765625
1759604608427,706081817,13974,21,-0.06591796875,-0.99957275390625,-0.06378173828125
1759604608427,706081817,13974,22,-0.0625,-1.00396728515625,-0.06768798828125
1759604608427,706081817,13974,23,-0.0634765625,-1.00250244140625,-0.06475830078125
1759604608427,706081817,13974,24,-0.063232421875,-1.00201416015625,-0.06207275390625
1759604608427,706081817,13974,25,-0.065185546875,-0.99761962890625,-0.05596923828125
1759604608427,706081817,13974,26,-0.065673828125,-1.00396728515625,-0.06427001953125
1759604608427,706081817,13974,27,-0.0673828125,-1.00054931640625,-0.05499267578125
1759604608427,706081817,13974,28,-0.05859375,-1.00225830078125,-0.05792236328125
1759604608427,706081817,13974,29,-0.061767578125,-1.00128173828125,-0.05792236328125
1759604608427,706081817,13974,30,-0.06103515625,-1.00567626953125,-0.06060791015625
1759604608427,706081817,13974,31,-0.06103515625,-1.00030517578125,-0.05816650390625
1759604611012,706084390,13975,0,-0.06396484375,-1.00128173828125,-0.05987548828125
1759604611012,706084390,13975,1,-0.05810546875,-1.00152587890625,-0.05401611328125
1759604611012,706084390,13975,2,-0.059814453125,-1.00323486328125,-0.05645751953125
1759604611012,706084390,13975,3,-0.06298828125,-1.00250244140625,-0.05059814453125
1759604611012,706084390,13975,4,-0.0556640625,-1.00201416015625,-0.04888916015625
1759604611012,706084390,13975,5,-0.0576171875,-1.00201416015625,-0.05108642578125
1759604611012,706084390,13975,6,-0.05615234375,-1.00177001953125,-0.04693603515625
1759604611012,706084390,13975,7,-0.05859375,-1.00177001953125,-0.04620361328125
1759604611012,706084390,13975,8,-0.05859375,-1.00128173828125,-0.04913330078125
1759604611012,706084390,13975,9,-0.062744140625,-1.00128173828125,-0.04376220703125
1759604611012,706084390,13975,10,-0.058349609375,-0.99884033203125,-0.04058837890625
1759604611012,706084390,13975,11,-0.058837890625,-1.00372314453125,-0.04620361328125
1759604611012,706084390,13975,12,-0.058837890625,-1.00543212890625,-0.04644775390625
1759604611012,706084390,13975,13,-0.056884765625,-1.00201416015625,-0.04693603515625
1759604611012,706084390,13975,14,-0.05908203125,-1.00225830078125,-0.04254150390625
1759604611012,706084390,13975,15,-0.060546875,-1.00152587890625,-0.04278564453125
1759604611012,706084390,13975,16,-0.059814453125,-1.00103759765625,-0.04449462890625
1759604611012,706084390,13975,17,-0.05712890625,-1.00054931640625,-0.04327392578125
1759604611012,706084390,13975,18,-0.05712890625,-1.00128173828125,-0.04473876953125
1759604611012,706084390,13975,19,-0.05908203125,-1.00250244140625,-0.04498291015625
1759604611012,706084390,13975,20,-0.05908203125,-1.00054931640625,-0.04791259765625
1759604611012,706084390,13975,21,-0.056884765625,-1.00201416015625,-0.04840087890625
1759604611012,706084390,13975,22,-0.061767578125,-0.99884033203125,-0.05328369140625
1759604611012,706084390,13975,23,-0.059326171875,-1.00201416015625,-0.04888916015625
1759604611012,706084390,13975,24,-0.06591796875,-1.00225830078125,-0.05255126953125
1759604611012,706084390,13975,25,-0.06689453125,-1.00201416015625,-0.05328369140625
1759604611012,706084390,13975,26,-0.067138671875,-1.00323486328125,-0.05718994140625
1759604611012,706084390,13975,27,-0.067626953125,-0.99932861328125,-0.05865478515625
1759604611012,706084390,13975,28,-0.060791015625,-1.00054931640625,-0.05841064453125
1759604611012,706084390,13975,29,-0.064453125,-1.00006103515625,-0.05841064453125
1759604611012,706084390,13975,30,-0.056884765625,-1.00103759765625,-0.05621337890625
1759604611012,706084390,13975,31,-0.06201171875,-1.00347900390625,-0.05230712890625
1759604613597,706086963,13976,0,-0.060302734375,-1.00128173828125,-0.05255126953125
1759604613597,706086963,13976,1,-0.0625,-1.00201416015625,-0.05133056640625
1759604613597,706086963,13976,2,-0.065673828125,-1.00079345703125,-0.05206298828125
1759604613597,706086963,13976,3,-0.063720703125,-1.00128173828125,-0.05230712890625
1759604613597,706086963,13976,4,-0.062744140625,-0.99884033203125,-0.05303955078125
1759604613597,706086963,13976,5,-0.060302734375,-1.00225830078125,-0.05548095703125
1759604613597,706086963,13976,6,-0.06494140625,-1.00079345703125,-0.05279541015625
1759604613597,706086963,13976,7,-0.062255859375,-1.00030517578125,-0.04791259765625
1759604613597,706086963,13976,8,-0.05908203125,-1.00079345703125,-0.05059814453125
1759604613597,706086963,13976,9,-0.059326171875,-0.99761962890625,-0.04888916015625
1759604613597,706086963,13976,10,-0.065673828125,-1.00054931640625,-0.04864501953125
1759604613597,706086963,13976,11,-0.06396484375,-1.00103759765625,-0.05108642578125
1759604613597,706086963,13976,12,-0.065673828125,-0.99957275390625,-0.04937744140625
1759604613597,706086963,13976,13,-0.067626953125,-1.00396728515625,-0.04644775390625
1759604613597,706086963,13976,14,-0.06787109375,-1.00103759765625,-0.04840087890625
1759604613597,706086963,13976,15,-0.069091796875,-0.99884033203125,-0.04425048828125
1759604613597,706086963,13976,16,-0.068603515625,-0.99908447265625,-0.04351806640625
1759604613597,706086963,13976,17,-0.069580078125,-1.00054931640625,-0.04327392578125
1759604613597,706086963,13976,18,-0.071044921875,-1.00225830078125,-0.04205322265625
1759604613597,706086963,13976,19,-0.07177734375,-1.00054931640625,-0.04205322265625
1759604613597,706086963,13976,20,-0.07080078125,-1.00299072265625,-0.04669189453125
1759604613597,706086963,13976,21,-0.066650390625,-1.00469970703125,-0.03594970703125
1759604613597,706086963,13976,22,-0.0625,-1.00177001953125,-0.02984619140625
1759604613597,706086963,13976,23,-0.064453125,-1.00079345703125,-0.02593994140625
1759604613597,706086963,13976,24,-0.066650390625,-0.99908447265625,-0.02764892578125
1759604613597,706086963,13976,25,-0.067626953125,-1.00177001953125,-0.02081298828125
1759604613597,706086963,13976,26,-0.06689453125,-1.00177001953125,-0.01617431640625
1759604613597,706086963,13976,27,-0.06591796875,-1.00006103515625,-0.02252197265625
1759604613597,706086963,13976,28,-0.065185546875,-1.00128173828125,-0.01617431640625
1759604613597,706086963,13976,29,-0.06396484375,-1.00177001953125,-0.02081298828125
1759604613597,706086963,13976,30,-0.06298828125,-1.00054931640625,-0.02252197265625
1759604613597,706086963,13976,31,-0.064453125,-1.00347900390625,-0.01959228515625
1759604616179,706089536,13977,0,-0.063720703125,-1.00152587890625,-0.02154541015625
1759604616179,706089536,13977,1,-0.060791015625,-1.00250244140625,-0.02105712890625
1759604616179,706089536,13977,2,-0.064453125,-1.00201416015625,-0.02105712890625
1759604616179,706089536,13977,3,-0.06005859375,-0.99932861328125,-0.02764892578125
1759604616179,706089536,13977,4,-0.064453125,-1.00299072265625,-0.02862548828125
1759604616179,706089536,13977,5,-0.064697265625,-1.00372314453125,-0.03009033203125
1759604616179,706089536,13977,6,-0.066162109375,-1.00054931640625,-0.03155517578125
1759604616179,706089536,13977,7,-0.065185546875,-1.00299072265625,-0.03887939453125
1759604616179,706089536,13977,8,-0.06689453125,-0.99981689453125,-0.03961181640625
1759604616179,706089536,13977,9,-0.063232421875,-1.00250244140625,-0.04498291015625
1759604616179,706089536,13977,10,-0.063232421875,-1.00372314453125,-0.04888916015625
1759604616179,706089536,13977,11,-0.063720703125,-1.00103759765625,-0.04400634765625
1759604616179,706089536,13977,12,-0.0625,-1.00225830078125,-0.04669189453125
1759604616179,706089536,13977,13,-0.065673828125,-1.00030517578125,-0.04669189453125
1759604616179,706089536,13977,14,-0.0634765625,-1.00079345703125,-0.04742431640625
1759604616179,706089536,13977,15,-0.064453125,-1.00006103515625,-0.04913330078125
1759604616179,706089536,13977,16,-0.062255859375,-1.00250244140625,-0.04742431640625
1759604616179,706089536,13977,17,-0.065185546875,-1.00201416015625,-0.04718017578125
1759604616179,706089536,13977,18,-0.064453125,-1.00225830078125,-0.04840087890625
1759604616179,706089536,13977,19,-0.062255859375,-1.00030517578125,-0.05035400390625
1759604616179,706089536,13977,20,-0.059326171875,-0.99835205078125,-0.04547119140625
1759604616179,706089536,13977,21,-0.0634765625,-1.00103759765625,-0.05035400390625
1759604616179,706089536,13977,22,-0.065185546875,-1.00152587890625,-0.04962158203125
1759604616179,706089536,13977,23,-0.06396484375,-1.00079345703125,-0.04888916015625
1759604616179,706089536,13977,24,-0.0673828125,-1.00103759765625,-0.04742431640625
1759604616179,706089536,13977,25,-0.06640625,-1.00079345703125,-0.04766845703125
1759604616179,706089536,13977,26,-0.065673828125,-1.00152587890625,-0.04718017578125
1759604616179,706089536,13977,27,-0.066162109375,-1.00421142578125,-0.04888916015625
1759604616179,706089536,13977,28,-0.066650390625,-1.00054931640625,-0.04937744140625
1759604616179,706089536,13977,29,-0.067626953125,-0.99932861328125,-0.04864501953125
1759604616179,706089536,13977,30,-0.06884765625,-1.00152587890625,-0.04449462890625
1759604616179,706089536,13977,31,-0.063720703125,-1.00201416015625,-0.05181884765625
1759604618764,706092109,13978,0,-0.0673828125,-1.00177001953125,-0.04254150390625
1759604618764,706092109,13978,1,-0.06591796875,-1.00103759765625,-0.04254150390625
1759604618764,706092109,13978,2,-0.067138671875,-1.00201416015625,-0.04205322265625
1759604618764,706092109,13978,3,-0.06640625,-1.00177001953125,-0.03985595703125
1759604618764,706092109,13978,4,-0.066650390625,-1.00152587890625,-0.04644775390625
1759604618764,706092109,13978,5,-0.068603515625,-1.00225830078125,-0.04010009765625
1759604618764,706092109,13978,6,-0.065185546875,-1.00274658203125,-0.04010009765625
1759604618764,706092109,13978,7,-0.062744140625,-1.00152587890625,-0.04058837890625
1759604618764,706092109,13978,8,-0.0654296875,-1.00323486328125,-0.03179931640625
1759604618764,706092109,13978,9,-0.0625,-1.00225830078125,-0.03839111328125
1759604618764,706092109,13978,10,-0.067138671875,-1.00225830078125,-0.03497314453125
1759604618764,706092109,13978,11,-0.06494140625,-1.00006103515625,-0.02960205078125
1759604618764,706092109,13978,12,-0.06640625,-1.00347900390625,-0.03472900390625
1759604618764,706092109,13978,13,-0.06201171875,-1.00103759765625,-0.03424072265625
1759604618764,706092109,13978,14,-0.06689453125,-1.00396728515625,-0.03302001953125
1759604618764,706092109,13978,15,-0.068359375,-1.00201416015625,-0.03179931640625
1759604618764,706092109,13978,16,-0.06787109375,-0.99957275390625,-0.03350830078125
1759604618764,706092109,13978,17,-0.069580078125,-1.00030517578125,-0.03472900390625
1759604618764,706092109,13978,18,-0.069091796875,-1.00030517578125,-0.03106689453125
1759604618764,706092109,13978,19,-0.06982421875,-0.99957275390625,-0.03765869140625
1759604618764,706092109,13978,20,-0.067138671875,-1.00177001953125,-0.03375244140625
1759604618764,706092109,13978,21,-0.06689453125,-1.00177001953125,-0.03155517578125
1759604618764,706092109,13978,22,-0.06689453125,-1.00177001953125,-0.03228759765625
1759604618764,706092109,13978,23,-0.0634765625,-1.00201416015625,-0.03204345703125
1759604618764,706092109,13978,24,-0.06640625,-1.00030517578125,-0.03302001953125
1759604618764,706092109,13978,25,-0.065185546875,-1.00152587890625,-0.03033447265625
1759604618764,706092109,13978,26,-0.06640625,-1.00274658203125,-0.03253173828125
1759604618764,706092109,13978,27,-0.06298828125,-1.00177001953125,-0.03961181640625
1759604618764,706092109,13978,28,-0.06298828125,-1.00006103515625,-0.03326416015625
1759604618764,706092109,13978,29,-0.060791015625,-1.00030517578125,-0.03717041015625
1759604618764,706092109,13978,30,-0.0595703125,-1.00079345703125,-0.03912353515625
1759604618764,706092109,13978,31,-0.064208984375,-1.00103759765625,-0.03985595703125
1759604621348,706094682,13979,0,-0.070068359375,-1.00006103515625,-0.03692626953125
1759604621348,706094682,13979,1,-0.063232421875,-1.00103759765625,-0.03668212890625
1759604621348,706094682,13979,2,-0.06787109375,-1.00225830078125,-0.03765869140625
1759604621348,706094682,13979,3,-0.071044921875,-1.00225830078125,-0.03594970703125
1759604621348,706094682,13979,4,-0.067138671875,-0.99957275390625,-0.03253173828125
1759604621348,706094682,13979,5,-0.06982421875,-0.99981689453125,-0.03204345703125
1759604621348,706094682,13979,6,-0.06982421875,-1.00006103515625,-0.03399658203125
1759604621348,706094682,13979,7,-0.066162109375,-0.99884033203125,-0.03350830078125
1759604621348,706094682,13979,8,-0.071044921875,-1.00323486328125,-0.02862548828125
1759604621348,706094682,13979,9,-0.072021484375,-1.00372314453125,-0.03399658203125
1759604621348,706094682,13979,10,-0.072021484375,-1.00177001953125,-0.02789306640625
1759604621348,706094682,13979,11,-0.07373046875,-0.99884033203125,-0.02911376953125
1759604621348,706094682,13979,12,-0.075439453125,-1.00054931640625,-0.03131103515625
1759604621348,706094682,13979,13,-0.07373046875,-1.00274658203125,-0.03179931640625
1759604621348,706094682,13979,14,-0.076904296875,-1.00421142578125,-0.02935791015625
1759604621348,706094682,13979,15,-0.070556640625,-1.00054931640625,-0.02716064453125
1759604621348,706094682,13979,16,-0.06982421875,-1.00079345703125,-0.02471923828125
1759604621348,706094682,13979,17,-0.071533203125,-0.99884033203125,-0.02227783203125
1759604621348,706094682,13979,18,-0.070556640625,-1.00054931640625,-0.02862548828125
1759604621348,706094682,13979,19,-0.070556640625,-1.00250244140625,-0.02642822265625
1759604621348,706094682,13979,20,-0.070068359375,-1.00006103515625,-0.02081298828125
1759604621348,706094682,13979,21,-0.069580078125,-1.00103759765625,-0.02374267578125
1759604621348,706094682,13979,22,-0.06884765625,-1.00347900390625,-0.02032470703125
1759604621348,706094682,13979,23,-0.068115234375,-1.00079345703125,-0.02081298828125
1759604621348,706094682,13979,24,-0.068359375,-1.00079345703125,-0.02008056640625
1759604621348,706094682,13979,25,-0.067626953125,-1.00006103515625,-0.01959228515625
1759604621348,706094682,13979,26,-0.069580078125,-0.99957275390625,-0.02081298828125
1759604621348,706094682,13979,27,-0.068603515625,-1.00299072265625,-0.01544189453125
1759604621348,706094682,13979,28,-0.06884765625,-1.00201416015625,-0.02154541015625
1759604621348,706094682,13979,29,-0.06787109375,-1.00030517578125,-0.02520751953125
1759604621348,706094682,13979,30,-0.068115234375,-1.00201416015625,-0.02081298828125
1759604621348,706094682,13979,31,-0.073486328125,-1.00128173828125,-0.02716064453125
1759604623933,706097256,13980,0,-0.0693359375,-1.00177001953125,-0.03131103515625
1759604623933,706097256,13980,1,-0.069091796875,-1.00323486328125,-0.03033447265625
1759604623933,706097256,13980,2,-0.0693359375,-1.00103759765625,-0.03057861328125
1759604623933,706097256,13980,3,-0.07080078125,-1.00079345703125,-0.03350830078125
1759604623933,706097256,13980,4,-0.072021484375,-0.99981689453125,-0.03326416015625
1759604623933,706097256,13980,5,-0.072509765625,-1.00079345703125,-0.03448486328125
1759604623933,706097256,13980,6,-0.073486328125,-0.99981689453125,-0.03692626953125
1759604623933,706097256,13980,7,-0.0703125,-1.00372314453125,-0.03668212890625
1759604623933,706097256,13980,8,-0.070068359375,-1.00347900390625,-0.03790283203125
1759604623933,706097256,13980,9,-0.07080078125,-1.00079345703125,-0.03692626953125
1759604623933,706097256,13980,10,-0.0712890625,-1.00250244140625,-0.03961181640625
1759604623933,706097256,13980,11,-0.068603515625,-0.99981689453125,-0.03985595703125
1759604623933,706097256,13980,12,-0.07080078125,-1.00030517578125,-0.03594970703125
1759604623933,706097256,13980,13,-0.072265625,-0.99884033203125,-0.03546142578125
1759604623933,706097256,13980,14,-0.07177734375,-0.99932861328125,-0.03399658203125
1759604623933,706097256,13980,15,-0.072265625,-1.00054931640625,-0.03326416015625
1759604623933,706097256,13980,16,-0.06982421875,-1.00030517578125,-0.03399658203125
1759604623933,706097256,13980,17,-0.069091796875,-1.00079345703125,-0.03448486328125
1759604623933,706097256,13980,18,-0.073486328125,-1.00006103515625,-0.03643798828125
1759604623933,706097256,13980,19,-0.071533203125,-1.00177001953125,-0.03131103515625
1759604623933,706097256,13980,20,-0.076171875,-0.99981689453125,-0.02691650390625
1759604623933,706097256,13980,21,-0.0751953125,-1.00079345703125,-0.03326416015625
1759604623933,706097256,13980,22,-0.07470703125,-0.99981689453125,-0.02886962890625
1759604623933,706097256,13980,23,-0.077392578125,-1.00103759765625,-0.02545166015625
1759604623933,706097256,13980,24,-0.07568359375,-1.00054931640625,-0.02911376953125
1759604623933,706097256,13980,25,-0.074951171875,-1.00225830078125,-0.02471923828125
1759604623933,706097256,13980,26,-0.08154296875,-1.00152587890625,-0.02056884765625
1759604623933,706097256,13980,27,-0.07763671875,-1.00347900390625,-0.02593994140625
1759604623933,706097256,13980,28,-0.075439453125,-1.00030517578125,-0.02032470703125
1759604623933,706097256,13980,29,-0.080078125,-1.00103759765625,-0.01641845703125
1759604623933,706097256,13980,30,-0.07958984375,-1.00030517578125,-0.01495361328125
1759604623933,706097256,13980,31,-0.07568359375,-1.00274658203125,-0.01373291015625
1759604626516,706099829,13981,0,-0.0751953125,-1.00323486328125,-0.01031494140625
1759604626516,706099829,13981,1,-0.078125,-0.99981689453125,-0.01177978515625
1759604626516,706099829,13981,2,-0.0751953125,-1.00006103515625,-0.00592041015625
1759604626516,706099829,13981,3,-0.07568359375,-0.99957275390625,-0.00640869140625
1759604626516,706099829,13981,4,-0.0732421875,-0.99957275390625,-0.00421142578125
1759604626516,706099829,13981,5,-0.075439453125,-0.99981689453125,-0.00567626953125
1759604626516,706099829,13981,6,-0.072509765625,-1.00152587890625,-0.00567626953125
1759604626516,706099829,13981,7,-0.075439453125,-1.00030517578125,-0.00762939453125
1759604626516,706099829,13981,8,-0.074462890625,-1.00006103515625,-0.00762939453125
1759604626516,706099829,13981,9,-0.072998046875,-0.99981689453125,-0.00567626953125
1759604626516,706099829,13981,10,-0.074462890625,-1.00128173828125,-0.00738525390625
1759604626516,706099829,13981,11,-0.07568359375,-1.00006103515625,-0.00860595703125
1759604626516,706099829,13981,12,-0.075439453125,-1.00006103515625,-0.00665283203125
1759604626516,706099829,13981,13,-0.07470703125,-1.00030517578125,-0.00518798828125
1759604626516,706099829,13981,14,-0.0751953125,-1.00152587890625,-0.00225830078125
1759604626516,706099829,13981,15,-0.074951171875,-0.99981689453125,0.00189208984375
1759604626516,706099829,13981,16,-0.069091796875,-1.00006103515625,-0.00030517578125
1759604626516,706099829,13981,17,-0.07861328125,-1.00030517578125,-0.00030517578125
1759604626516,706099829,13981,18,-0.0830078125,-1.00006103515625,0.00164794921875
1759604626516,706099829,13981,19,-0.078857421875,-0.99859619140625,0.00140380859375
1759604626516,706099829,13981,20,-0.08154296875,-1.00054931640625,-0.00396728515625
1759604626516,706099829,13981,21,-0.08447265625,-1.00006103515625,0.00042724609375
1759604626516,706099829,13981,22,-0.08203125,-1.00128173828125,-0.00787353515625
1759604626516,706099829,13981,23,-0.0830078125,-0.99884033203125,-0.00958251953125
1759604626516,706099829,13981,24,-0.080810546875,-0.99981689453125,-0.01007080078125
1759604626516,706099829,13981,25,-0.0810546875,-1.00177001953125,-0.01715087890625
1759604626516,706099829,13981,26,-0.08203125,-1.00079345703125,-0.02374267578125
1759604626516,706099829,13981,27,-0.08056640625,-0.99981689453125,-0.02349853515625
1759604626516,706099829,13981,28,-0.0810546875,-0.99932861328125,-0.02447509765625
1759604626516,706099829,13981,29,-0.079345703125,-1.00177001953125,-0.02886962890625
1759604626516,706099829,13981,30,-0.078125,-1.00054931640625,-0.02935791015625
1759604626516,706099829,13981,31,-0.0791015625,-1.00054931640625,-0.03350830078125
1759604629099,706102402,13982,0,-0.080810546875,-1.00201416015625,-0.03448486328125
1759604629099,706102402,13982,1,-0.08203125,-0.99981689453125,-0.03131103515625
1759604629099,706102402,13982,2,-0.077880859375,-1.00030517578125,-0.03717041015625
1759604629099,706102402,13982,3,-0.080322265625,-0.99981689453125,-0.03448486328125
1759604629099,706102402,13982,4,-0.07373046875,-1.00469970703125,-0.04132080078125
1759604629099,706102402,13982,5,-0.075927734375,-1.00079345703125,-0.03765869140625
1759604629099,706102402,13982,6,-0.072265625,-1.00030517578125,-0.03839111328125
1759604629099,706102402,13982,7,-0.074951171875,-1.00030517578125,-0.03570556640625
1759604629099,706102402,13982,8,-0.07177734375,-1.00225830078125,-0.03765869140625
1759604629099,706102402,13982,9,-0.072998046875,-1.00006103515625,-0.03643798828125
1759604629099,706102402,13982,10,-0.072998046875,-1.00201416015625,-0.03887939453125
1759604629099,706102402,13982,11,-0.07763671875,-0.99859619140625,-0.03863525390625
1759604629099,706102402,13982,12,-0.076904296875,-1.00006103515625,-0.03179931640625
1759604629099,706102402,13982,13,-0.077392578125,-1.00323486328125,-0.03961181640625
1759604629099,706102402,13982,14,-0.07861328125,-1.00054931640625,-0.03106689453125
1759604629099,706102402,13982,15,-0.08349609375,-1.00201416015625,-0.02984619140625
1759604629099,706102402,13982,16,-0.080810546875,-0.99981689453125,-0.03033447265625
1759604629099,706102402,13982,17,-0.075439453125,-1.00250244140625,-0.03277587890625
1759604629099,706102402,13982,18,-0.077880859375,-0.99859619140625,-0.02569580078125
1759604629099,706102402,13982,19,-0.073486328125,-1.00079345703125,-0.02838134765625
1759604629099,706102402,13982,20,-0.074462890625,-1.00054931640625,-0.02789306640625
1759604629099,706102402,13982,21,-0.069091796875,-1.00054931640625,-0.03179931640625
