receivedPhoneTimestamp,respeckTimestamp,packetSeqNum,sampleSeqNum,accelX,accelY,accelZ
1759957774189,1059251030,25135,8,0.017822265625,-1.00421142578125,0.11419677734375
1759957774189,1059251030,25135,9,0.0048828125,-1.03594970703125,0.07684326171875
1759957774189,1059251030,25135,10,0.100341796875,-1.00982666015625,0.07366943359375
1759957774189,1059251030,25135,11,0.0927734375,-1.03643798828125,0.06146240234375
1759957774189,1059251030,25135,12,0.015869140625,-1.02813720703125,0.02459716796875
1759957774189,1059251030,25135,13,0.091064453125,-1.00494384765625,0.00091552734375
1759957774189,1059251030,25135,14,0.217529296875,-0.98736572265625,-0.02105712890625
1759957774189,1059251030,25135,15,0.008544921875,-1.01934814453125,0.03948974609375
1759957774189,1059251030,25135,16,0.19287109375,-1.03131103515625,0.02215576171875
1759957774189,1059251030,25135,17,0.1689453125,-1.00201416015625,-0.03179931640625
1759957774189,1059251030,25135,18,0.0517578125,-0.98638916015625,0.02972412109375
1759957774189,1059251030,25135,19,0.139404296875,-1.00445556640625,0.02117919921875
1759957774189,1059251030,25135,20,0.119873046875,-1.01617431640625,0.01043701171875
1759957774189,1059251030,25135,21,0.144775390625,-1.03912353515625,0.05291748046875
1759957774189,1059251030,25135,22,0.0654296875,-1.00250244140625,0.02435302734375
1759957774189,1059251030,25135,23,0.047119140625,-1.02081298828125,0.00433349609375
1759957774189,1059251030,25135,24,0.076171875,-1.00665283203125,-0.01885986328125
1759957774189,1059251030,25135,25,0.184814453125,-0.99957275390625,-0.02520751953125
1759957774189,1059251030,25135,26,-0.011474609375,-1.04229736328125,0.04193115234375
1759957774189,1059251030,25135,27,0.158935546875,-0.99395751953125,0.00067138671875
1759957774189,1059251030,25135,28,0.123291015625,-0.99737548828125,0.00091552734375
1759957774189,1059251030,25135,29,0.040771484375,-1.05181884765625,0.01873779296875
1759957774189,1059251030,25135,30,0.1328125,-0.95904541015625,-0.01202392578125
1759957774189,1059251030,25135,31,0.065673828125,-1.04083251953125,0.03216552734375
1759957776772,1059253597,25136,0,0.08203125,-1.06231689453125,0.00140380859375
1759957776772,1059253597,25136,1,0.046630859375,-0.99615478515625,-0.06109619140625
1759957776772,1059253597,25136,2,0.04833984375,-1.01153564453125,-0.08990478515625
1759957776772,1059253597,25136,3,0.14501953125,-0.98760986328125,-0.10040283203125
1759957776772,1059253597,25136,4,-0.002685546875,-1.03253173828125,-0.01470947265625
1759957776772,1059253597,25136,5,0.11328125,-1.06329345703125,0.00238037109375
1759957776772,1059253597,25136,6,0.177490234375,-0.93927001953125,-0.11480712890625
1759957776772,1059253597,25136,7,0.0009765625,-1.05572509765625,-0.03790283203125
1759957776772,1059253597,25136,8,0.158447265625,-1.00811767578125,-0.07159423828125
1759957776772,1059253597,25136,9,0.07958984375,-0.97052001953125,-0.09918212890625
1759957776772,1059253597,25136,10,0.056396484375,-1.04034423828125,-0.08795166015625
1759957776772,1059253597,25136,11,0.073974609375,-1.02935791015625,-0.04302978515625
1759957776772,1059253597,25136,12,0.069580078125,-1.00909423828125,-0.08380126953125
1759957776772,1059253597,25136,13,0.218505859375,-0.93511962890625,-0.12945556640625
1759957776772,1059253597,25136,14,-0.033203125,-1.20880126953125,-0.05352783203125
1759957776772,1059253597,25136,15,0.126220703125,-0.97198486328125,0.05682373046875
1759957776772,1059253597,25136,16,0.17822265625,-0.85064697265625,-0.05474853515625
1759957776772,1059253597,25136,17,-0.019287109375,-1.17462158203125,0.02069091796875
1759957776772,1059253597,25136,18,0.141357421875,-1.01055908203125,0.00433349609375
1759957776772,1059253597,25136,19,0.097900390625,-0.94293212890625,-0.09234619140625
1759957776772,1059253597,25136,20,0.007568359375,-1.08599853515625,-0.00787353515625
1759957776772,1059253597,25136,21,0.07177734375,-0.99566650390625,-0.09429931640625
1759957776772,1059253597,25136,22,0.038330078125,-0.98321533203125,-0.10333251953125
1759957776772,1059253597,25136,23,0.1708984375,-0.97955322265625,-0.08819580078125
1759957776772,1059253597,25136,24,-0.0498046875,-1.08331298828125,0.05511474609375
1759957776772,1059253597,25136,25,0.15234375,-0.97857666015625,-0.11212158203125
1759957776772,1059253597,25136,26,0.042724609375,-1.05084228515625,-0.03887939453125
1759957776772,1059253597,25136,27,0.141845703125,-0.92974853515625,-0.09039306640625
1759957776772,1059253597,25136,28,-0.12158203125,-1.15313720703125,-0.02008056640625
1759957776772,1059253597,25136,29,0.230224609375,-0.91973876953125,-0.02203369140625
1759957776772,1059253597,25136,30,0.119873046875,-1.00299072265625,-0.03326416015625
1759957776772,1059253597,25136,31,0.045654296875,-1.13946533203125,0.01239013671875
1759957779356,1059256164,25137,0,0.1474609375,-0.90557861328125,-0.04278564453125
1759957779356,1059256164,25137,1,0.05322265625,-0.98907470703125,-0.07110595703125
1759957779356,1059256164,25137,2,-0.050537109375,-1.15411376953125,-0.01934814453125
1759957779356,1059256164,25137,3,0.148681640625,-0.92266845703125,0.01361083984375
1759957779356,1059256164,25137,4,0.107177734375,-0.96099853515625,-0.02764892578125
1759957779356,1059256164,25137,5,0.06689453125,-1.16949462890625,0.02581787109375
1759957779356,1059256164,25137,6,0.180908203125,-0.86846923828125,-0.03302001953125
1759957779356,1059256164,25137,7,-0.0302734375,-1.09527587890625,0.00897216796875
1759957779356,1059256164,25137,8,0.199462890625,-1.03839111328125,-0.01641845703125
1759957779356,1059256164,25137,9,0.046875,-0.87115478515625,-0.05328369140625
1759957779356,1059256164,25137,10,0.01220703125,-1.21246337890625,0.02508544921875
1759957779356,1059256164,25137,11,0.081787109375,-0.97125244140625,0.03387451171875
1759957779356,1059256164,25137,12,0.15283203125,-0.82940673828125,-0.06109619140625
1759957779356,1059256164,25137,13,0.030517578125,-1.23980712890625,0.03753662109375
1759957779356,1059256164,25137,14,0.21728515625,-0.89019775390625,-0.06573486328125
1759957779356,1059256164,25137,15,0.028076171875,-0.97003173828125,0.00018310546875
1759957779356,1059256164,25137,16,0.12890625,-1.12213134765625,-0.00836181640625
1759957779356,1059256164,25137,17,0.142333984375,-0.96319580078125,-0.02520751953125
1759957779356,1059256164,25137,18,0.020751953125,-1.04888916015625,-0.02886962890625
1759957779356,1059256164,25137,19,0.0888671875,-1.05767822265625,-0.01104736328125
1759957779356,1059256164,25137,20,0.12255859375,-0.95025634765625,0.00457763671875
1759957779356,1059256164,25137,21,0.162353515625,-0.97076416015625,-0.00177001953125
1759957779356,1059256164,25137,22,0.166259765625,-1.09796142578125,0.03240966796875
1759957779356,1059256164,25137,23,0.07373046875,-0.99615478515625,0.04022216796875
1759957779356,1059256164,25137,24,0.093505859375,-0.95172119140625,-0.00592041015625
1759957779356,1059256164,25137,25,0.050537109375,-1.09698486328125,0.04656982421875
1759957779356,1059256164,25137,26,0.0673828125,-1.01275634765625,-0.00396728515625
1759957779356,1059256164,25137,27,0.0556640625,-0.97637939453125,-0.05108642578125
1759957779356,1059256164,25137,28,0.101318359375,-0.99493408203125,-0.04962158203125
1759957779356,1059256164,25137,29,0.068359375,-1.03497314453125,-0.01080322265625
1759957779356,1059256164,25137,30,0.05712890625,-1.02984619140625,0.02874755859375
1759957779356,1059256164,25137,31,0.165283203125,-0.98516845703125,-0.03204345703125
1759957781940,1059258731,25138,0,0.10302734375,-0.99444580078125,-0.03472900390625
1759957781940,1059258731,25138,1,0.069091796875,-1.03253173828125,-0.07183837890625
1759957781940,1059258731,25138,2,0.16015625,-1.00909423828125,-0.07574462890625
1759957781940,1059258731,25138,3,0.113037109375,-1.01055908203125,-0.08233642578125
1759957781940,1059258731,25138,4,0.091064453125,-0.99908447265625,-0.08428955078125
1759957781940,1059258731,25138,5,0.137451171875,-0.98687744140625,-0.13311767578125
1759957781940,1059258731,25138,6,0.250244140625,-1.07379150390625,-0.08892822265625
1759957781940,1059258731,25138,7,-0.10009765625,-1.02886962890625,-0.04669189453125
1759957781940,1059258731,25138,8,0.208740234375,-0.94879150390625,-0.07525634765625
1759957781940,1059258731,25138,9,0.092041015625,-1.09405517578125,-0.06427001953125
1759957781940,1059258731,25138,10,0.14990234375,-0.97637939453125,-0.00372314453125
1759957781940,1059258731,25138,11,0.163330078125,-0.97808837890625,0.00677490234375
1759957781940,1059258731,25138,12,0.08935546875,-1.04571533203125,0.03387451171875
1759957781940,1059258731,25138,13,0.135986328125,-0.97784423828125,0.04852294921875
1759957781940,1059258731,25138,14,0.100341796875,-1.01324462890625,0.06072998046875
1759957781940,1059258731,25138,15,0.051025390625,-1.01422119140625,0.08026123046875
1759957781940,1059258731,25138,16,0.101806640625,-1.00445556640625,0.06048583984375
1759957781940,1059258731,25138,17,0.075927734375,-1.03228759765625,0.07489013671875
1759957781940,1059258731,25138,18,0.0966796875,-0.98638916015625,0.06903076171875
1759957781940,1059258731,25138,19,0.097900390625,-1.02716064453125,0.07611083984375
1759957781940,1059258731,25138,20,0.112060546875,-1.01910400390625,0.05511474609375
1759957781940,1059258731,25138,21,0.112548828125,-0.97833251953125,0.07537841796875
1759957781940,1059258731,25138,22,0.06982421875,-1.01861572265625,0.07806396484375
1759957781940,1059258731,25138,23,0.103515625,-1.01177978515625,0.03851318359375
1759957781940,1059258731,25138,24,0.10400390625,-0.97930908203125,0.07440185546875
1759957781940,1059258731,25138,25,0.067138671875,-1.04962158203125,0.05902099609375
1759957781940,1059258731,25138,26,0.083984375,-1.02667236328125,0.04779052734375
1759957781940,1059258731,25138,27,0.082763671875,-0.98883056640625,0.05877685546875
1759957781940,1059258731,25138,28,0.102783203125,-1.03472900390625,0.06707763671875
1759957781940,1059258731,25138,29,0.086669921875,-1.00274658203125,0.09393310546875
1759957781940,1059258731,25138,30,0.093017578125,-0.95953369140625,0.11004638671875
1759957781940,1059258731,25138,31,0.124267578125,-1.04547119140625,0.09710693359375
1759957784523,1059261298,25139,0,0.075439453125,-0.99835205078125,0.07318115234375
1759957784523,1059261298,25139,1,0.147216796875,-0.96954345703125,0.02996826171875
1759957784523,1059261298,25139,2,0.084228515625,-1.05889892578125,0.05194091796875
1759957784523,1059261298,25139,3,0.093994140625,-0.99761962890625,0.02459716796875
1759957784523,1059261298,25139,4,0.100830078125,-1.01007080078125,0.01385498046875
1759957784523,1059261298,25139,5,0.10107421875,-1.02227783203125,0.01580810546875
1759957784523,1059261298,25139,6,0.127197265625,-1.01910400390625,0.02239990234375
1759957784523,1059261298,25139,7,0.117431640625,-1.03204345703125,0.01849365234375
1759957784523,1059261298,25139,8,0.1025390625,-0.97100830078125,0.06243896484375
1759957784523,1059261298,25139,9,0.064208984375,-1.02520751953125,0.05584716796875
1759957784523,1059261298,25139,10,0.132568359375,-1.00738525390625,0.03143310546875
1759957784523,1059261298,25139,11,0.096435546875,-0.99053955078125,-0.00372314453125
1759957784523,1059261298,25139,12,0.05908203125,-1.04937744140625,0.04388427734375
1759957784523,1059261298,25139,13,0.076904296875,-1.03106689453125,-0.01422119140625
1759957784523,1059261298,25139,14,0.0341796875,-1.00494384765625,-0.00909423828125
1759957784523,1059261298,25139,15,0.035400390625,-1.02935791015625,-0.03472900390625
1759957784523,1059261298,25139,16,0.072021484375,-1.01983642578125,-0.03717041015625
1759957784523,1059261298,25139,17,0.08154296875,-0.96148681640625,-0.06719970703125
1759957784523,1059261298,25139,18,-0.007080078125,-1.05694580078125,0.06488037109375
1759957784523,1059261298,25139,19,0.164794921875,-1.02227783203125,-0.05255126953125
1759957784523,1059261298,25139,20,0.116455078125,-1.00006103515625,-0.03594970703125
1759957784523,1059261298,25139,21,0.102294921875,-1.02008056640625,-0.06182861328125
1759957784523,1059261298,25139,22,0.11865234375,-1.00177001953125,-0.05401611328125
1759957784523,1059261298,25139,23,0.08203125,-0.98760986328125,-0.03472900390625
1759957784523,1059261298,25139,24,0.004150390625,-1.08551025390625,-0.02813720703125
1759957784523,1059261298,25139,25,0.246826171875,-0.91363525390625,-0.05426025390625
1759957784523,1059261298,25139,26,-0.044189453125,-1.05133056640625,-0.05499267578125
1759957784523,1059261298,25139,27,0.269287109375,-1.05157470703125,-0.07623291015625
1759957784523,1059261298,25139,28,0.01708984375,-0.98736572265625,-0.05963134765625
1759957784523,1059261298,25139,29,0.14453125,-1.02935791015625,-0.05792236328125
1759957784523,1059261298,25139,30,0.177734375,-0.97979736328125,-0.07183837890625
1759957784523,1059261298,25139,31,0.08740234375,-1.04425048828125,0.00262451171875
1759957787112,1059263865,25140,0,-0.041015625,-1.00836181640625,0.01434326171875
1759957787112,1059263865,25140,1,0.187255859375,-1.00567626953125,-0.00372314453125
1759957787112,1059263865,25140,2,0.0419921875,-1.05108642578125,0.01873779296875
1759957787112,1059263865,25140,3,0.139892578125,-0.97198486328125,0.07611083984375
1759957787112,1059263865,25140,4,0.160888671875,-1.03375244140625,0.02386474609375
1759957787112,1059263865,25140,5,0.061279296875,-0.99786376953125,0.18597412109375
1759957787112,1059263865,25140,6,0.083251953125,-0.95440673828125,0.08831787109375
1759957787112,1059263865,25140,7,0.045166015625,-1.06353759765625,0.14813232421875
1759957787112,1059263865,25140,8,0.08935546875,-0.96002197265625,0.07611083984375
1759957787112,1059263865,25140,9,0.043212890625,-1.02642822265625,0.11077880859375
1759957787112,1059263865,25140,10,0.050537109375,-1.03350830078125,0.09588623046875
1759957787112,1059263865,25140,11,0.038818359375,-0.98687744140625,0.09075927734375
1759957787112,1059263865,25140,12,0.047119140625,-1.02496337890625,0.10833740234375
1759957787112,1059263865,25140,13,0.068115234375,-1.00347900390625,0.10101318359375
1759957787112,1059263865,25140,14,0.074951171875,-1.01690673828125,0.08245849609375
1759957787112,1059263865,25140,15,0.05810546875,-1.01910400390625,0.13690185546875
1759957787112,1059263865,25140,16,0.0732421875,-0.99053955078125,0.10467529296875
1759957787112,1059263865,25140,17,0.056640625,-1.02325439453125,0.11737060546875
1759957787112,1059263865,25140,18,0.0869140625,-0.97613525390625,0.09808349609375
1759957787112,1059263865,25140,19,0.043212890625,-1.03790283203125,0.07513427734375
1759957787112,1059263865,25140,20,0.117919921875,-0.99200439453125,0.05194091796875
1759957787112,1059263865,25140,21,0.111083984375,-1.01104736328125,0.06561279296875
1759957787112,1059263865,25140,22,0.021240234375,-0.99810791015625,0.02215576171875
1759957787112,1059263865,25140,23,0.059326171875,-1.05499267578125,0.04949951171875
1759957787112,1059263865,25140,24,0.05029296875,-1.00201416015625,0.02435302734375
1759957787112,1059263865,25140,25,0.03369140625,-1.02349853515625,0.04559326171875
1759957787112,1059263865,25140,26,0.034912109375,-1.02301025390625,0.03167724609375
1759957787112,1059263865,25140,27,0.04736328125,-1.02227783203125,0.02117919921875
1759957787112,1059263865,25140,28,0.0869140625,-1.01007080078125,0.00140380859375
1759957787112,1059263865,25140,29,0.06689453125,-1.02056884765625,0.02777099609375
1759957787112,1059263865,25140,30,0.060546875,-1.01519775390625,0.03533935546875
1759957787112,1059263865,25140,31,0.08544921875,-0.99468994140625,0.05194091796875
1759957789693,1059266432,25141,0,0.053955078125,-1.03717041015625,0.07000732421875
1759957789693,1059266432,25141,1,0.06005859375,-0.99029541015625,0.04632568359375
1759957789693,1059266432,25141,2,0.09912109375,-1.00421142578125,0.04290771484375
1759957789693,1059266432,25141,3,0.077880859375,-1.03863525390625,0.05828857421875
1759957789693,1059266432,25141,4,0.085205078125,-0.99761962890625,0.04217529296875
1759957789693,1059266432,25141,5,0.05126953125,-1.02056884765625,0.05316162109375
1759957789693,1059266432,25141,6,0.0107421875,-0.98663330078125,0.01312255859375
1759957789693,1059266432,25141,7,0.054443359375,-1.04327392578125,-0.01300048828125
1759957789693,1059266432,25141,8,0.11962890625,-1.02081298828125,0.00018310546875
1759957789693,1059266432,25141,9,0.030029296875,-1.01397705078125,-0.01544189453125
1759957789693,1059266432,25141,10,0.075927734375,-1.03594970703125,-0.01275634765625
1759957789693,1059266432,25141,11,0.0947265625,-1.00372314453125,-0.01031494140625
1759957789693,1059266432,25141,12,0.05615234375,-1.00933837890625,-0.00933837890625
1759957789693,1059266432,25141,13,0.041748046875,-1.05377197265625,0.00140380859375
1759957789693,1059266432,25141,14,0.121337890625,-0.97125244140625,0.00921630859375
1759957789693,1059266432,25141,15,0.082275390625,-1.00787353515625,-0.00860595703125
1759957789693,1059266432,25141,16,0.138427734375,-1.05084228515625,0.02825927734375
1759957789693,1059266432,25141,17,0.093017578125,-0.97027587890625,0.00994873046875
1759957789693,1059266432,25141,18,0.044189453125,-1.05377197265625,0.05340576171875
1759957789693,1059266432,25141,19,0.07373046875,-1.00177001953125,0.02362060546875
1759957789693,1059266432,25141,20,0.09033203125,-1.01373291015625,0.03289794921875
1759957789693,1059266432,25141,21,0.054443359375,-1.01275634765625,0.04803466796875
1759957789693,1059266432,25141,22,0.0537109375,-1.03204345703125,0.05267333984375
1759957789693,1059266432,25141,23,0.056640625,-0.99737548828125,0.06805419921875
1759957789693,1059266432,25141,24,0.0869140625,-0.99493408203125,0.07269287109375
1759957789693,1059266432,25141,25,0.07861328125,-1.04815673828125,0.08172607421875
1759957789693,1059266432,25141,26,0.087646484375,-0.98736572265625,0.05731201171875
1759957789693,1059266432,25141,27,0.020263671875,-1.00958251953125,0.12347412109375
1759957789693,1059266432,25141,28,0.013671875,-1.02764892578125,0.10003662109375
1759957789693,1059266432,25141,29,0.119140625,-0.98736572265625,0.06658935546875
1759957789693,1059266432,25141,30,0.0673828125,-0.99859619140625,0.04364013671875
1759957789693,1059266432,25141,31,0.008544921875,-1.06427001953125,0.09271240234375
1759957792076,1059269000,25142,0,0.029541015625,-0.98907470703125,0.05316162109375
1759957792076,1059269000,25142,1,0.038818359375,-1.01910400390625,0.09368896484375
1759957792076,1059269000,25142,2,0.01611328125,-1.03472900390625,0.06292724609375
1759957792076,1059269000,25142,3,0.0166015625,-1.01422119140625,0.05926513671875
1759957792076,1059269000,25142,4,0.035888671875,-1.03839111328125,0.01190185546875
1759957792076,1059269000,25142,5,0.010498046875,-1.02935791015625,-0.01690673828125
1759957792076,1059269000,25142,6,0.06884765625,-0.97589111328125,-0.04669189453125
1759957792076,1059269000,25142,7,0.077880859375,-0.96978759765625,-0.04913330078125
1759957792076,1059269000,25142,8,0.0009765625,-1.06109619140625,0.04656982421875
1759957792076,1059269000,25142,9,0.066162109375,-1.02520751953125,0.02044677734375
1759957792076,1059269000,25142,10,0.081787109375,-0.98809814453125,0.01898193359375
1759957792076,1059269000,25142,11,-0.015380859375,-1.02276611328125,0.03240966796875
1759957792076,1059269000,25142,12,0.146484375,-0.99200439453125,-0.02642822265625
1759957792076,1059269000,25142,13,0.086181640625,-1.02374267578125,-0.05401611328125
1759957792076,1059269000,25142,14,0.070556640625,-1.04815673828125,-0.05108642578125
1759957792076,1059269000,25142,15,0.119384765625,-1.01153564453125,-0.02911376953125
1759957792076,1059269000,25142,16,0.136962890625,-1.02691650390625,-0.03863525390625
1759957792076,1059269000,25142,17,0.142333984375,-0.97979736328125,-0.04547119140625
1759957792076,1059269000,25142,18,0.081298828125,-1.04986572265625,-0.03912353515625
1759957792076,1059269000,25142,19,0.171875,-0.97393798828125,-0.06036376953125
1759957792076,1059269000,25142,20,0.106689453125,-1.00738525390625,-0.05841064453125
1759957792076,1059269000,25142,21,0.177001953125,-1.04034423828125,-0.06109619140625
1759957792076,1059269000,25142,22,0.094482421875,-0.98468017578125,-0.03497314453125
1759957792076,1059269000,25142,23,0.13134765625,-1.01690673828125,-0.05010986328125
1759957792076,1059269000,25142,24,0.180419921875,-1.01983642578125,-0.04132080078125
1759957792076,1059269000,25142,25,0.115234375,-0.98785400390625,-0.04937744140625
1759957792076,1059269000,25142,26,0.10107421875,-1.03228759765625,0.00091552734375
1759957792076,1059269000,25142,27,0.126220703125,-1.00030517578125,-0.00128173828125
1759957792076,1059269000,25142,28,0.14208984375,-0.98370361328125,0.02996826171875
1759957792076,1059269000,25142,29,0.1357421875,-1.05230712890625,-0.00128173828125
1759957792076,1059269000,25142,30,0.09716796875,-1.00933837890625,-0.00543212890625
1759957792076,1059269000,25142,31,0.109375,-1.00103759765625,0.02801513671875
1759957794661,1059271567,25143,0,0.11669921875,-1.02203369140625,0.03680419921875
1759957794661,1059271567,25143,1,0.093505859375,-1.00714111328125,0.03948974609375
1759957794661,1059271567,25143,2,0.119384765625,-1.01104736328125,0.06146240234375
1759957794661,1059271567,25143,3,0.125,-1.00396728515625,0.04656982421875
1759957794661,1059271567,25143,4,0.133544921875,-1.00201416015625,0.06243896484375
1759957794661,1059271567,25143,5,0.105712890625,-1.02227783203125,0.03851318359375
1759957794661,1059271567,25143,6,0.12841796875,-0.98614501953125,0.09222412109375
1759957794661,1059271567,25143,7,0.054931640625,-1.01153564453125,0.07342529296875
1759957794661,1059271567,25143,8,0.1416015625,-0.99957275390625,0.04022216796875
1759957794661,1059271567,25143,9,0.114990234375,-1.00811767578125,0.03875732421875
1759957794661,1059271567,25143,10,0.08837890625,-1.02618408203125,0.04510498046875
1759957794661,1059271567,25143,11,0.13232421875,-1.02886962890625,0.03778076171875
1759957794661,1059271567,25143,12,0.064697265625,-0.99005126953125,0.07342529296875
1759957794661,1059271567,25143,13,0.054443359375,-1.02911376953125,0.05657958984375
1759957794661,1059271567,25143,14,0.063720703125,-1.01373291015625,0.04217529296875
1759957794661,1059271567,25143,15,0.074951171875,-1.01544189453125,0.02581787109375
1759957794661,1059271567,25143,16,0.109619140625,-1.01055908203125,0.00091552734375
1759957794661,1059271567,25143,17,0.05322265625,-1.01275634765625,0.04681396484375
1759957794661,1059271567,25143,18,0.063720703125,-1.01739501953125,0.07708740234375
1759957794661,1059271567,25143,19,0.073486328125,-1.00201416015625,0.03973388671875
1759957794661,1059271567,25143,20,0.103271484375,-1.00982666015625,0.05877685546875
1759957794661,1059271567,25143,21,0.00537109375,-1.03155517578125,0.03875732421875
1759957794661,1059271567,25143,22,0.08935546875,-1.01007080078125,0.05413818359375
1759957794661,1059271567,25143,23,0.066650390625,-1.00665283203125,0.02728271484375
1759957794661,1059271567,25143,24,0.058837890625,-1.05865478515625,0.05218505859375
1759957794661,1059271567,25143,25,0.012939453125,-1.02618408203125,0.01531982421875
1759957794661,1059271567,25143,26,0.01904296875,-1.02056884765625,-0.01788330078125
1759957794661,1059271567,25143,27,0.0576171875,-0.94757080078125,-0.05181884765625
1759957794661,1059271567,25143,28,0.0380859375,-1.04400634765625,-0.02301025390625
1759957794661,1059271567,25143,29,-0.00390625,-1.05596923828125,0.02728271484375
1759957794661,1059271567,25143,30,0.162841796875,-0.97296142578125,-0.02471923828125
1759957794661,1059271567,25143,31,0.085205078125,-1.02813720703125,-0.01080322265625
1759957797243,1059274134,25144,0,0.140380859375,-1.00787353515625,-0.03692626953125
1759957797243,1059274134,25144,1,0.024658203125,-0.99664306640625,-0.02984619140625
1759957797243,1059274134,25144,2,0.120361328125,-1.03643798828125,-0.04571533203125
1759957797243,1059274134,25144,3,0.098876953125,-0.95269775390625,-0.09967041015625
1759957797243,1059274134,25144,4,0.18798828125,-1.04571533203125,-0.09112548828125
1759957797243,1059274134,25144,5,0.0859375,-0.97467041015625,-0.08038330078125
1759957797243,1059274134,25144,6,0.200927734375,-1.02398681640625,-0.17022705078125
1759957797243,1059274134,25144,7,0.212646484375,-1.02471923828125,-0.20904541015625
1759957797243,1059274134,25144,8,0.115966796875,-0.96563720703125,-0.21929931640625
1759957797243,1059274134,25144,9,0.255615234375,-0.99273681640625,-0.22930908203125
1759957797243,1059274134,25144,10,0.091552734375,-1.10260009765625,-0.14556884765625
1759957797243,1059274134,25144,11,0.120849609375,-0.83721923828125,-0.12945556640625
1759957797243,1059274134,25144,12,0.183837890625,-1.13653564453125,-0.11871337890625
1759957797243,1059274134,25144,13,0.0927734375,-0.97857666015625,-0.04888916015625
1759957797243,1059274134,25144,14,0.194580078125,-0.98760986328125,-0.02569580078125
1759957797243,1059274134,25144,15,0.148681640625,-1.02447509765625,0.02508544921875
1759957797243,1059274134,25144,16,0.109375,-1.00738525390625,0.03778076171875
1759957797243,1059274134,25144,17,0.070068359375,-0.99127197265625,0.04534912109375
1759957797243,1059274134,25144,18,0.048828125,-1.02081298828125,0.08807373046875
1759957797243,1059274134,25144,19,0.052490234375,-1.00714111328125,0.07757568359375
1759957797243,1059274134,25144,20,0.02587890625,-1.01104736328125,0.10931396484375
1759957797243,1059274134,25144,21,0.015380859375,-1.01007080078125,0.11468505859375
1759957797243,1059274134,25144,22,0.0341796875,-1.01202392578125,0.10028076171875
1759957797243,1059274134,25144,23,0.046142578125,-1.01861572265625,0.13665771484375
1759957797243,1059274134,25144,24,0.07080078125,-1.00518798828125,0.11053466796875
1759957797243,1059274134,25144,25,0.014404296875,-1.00054931640625,0.12396240234375
1759957797243,1059274134,25144,26,0.066650390625,-1.01788330078125,0.12152099609375
1759957797243,1059274134,25144,27,0.02978515625,-0.99420166015625,0.14349365234375
1759957797243,1059274134,25144,28,0.049560546875,-1.00421142578125,0.11297607421875
1759957797243,1059274134,25144,29,0.10302734375,-0.99981689453125,0.10003662109375
1759957797243,1059274134,25144,30,0.093994140625,-1.01153564453125,0.09075927734375
1759957797243,1059274134,25144,31,0.04052734375,-1.02203369140625,0.07513427734375
1759957799828,1059276701,25145,0,0.046630859375,-1.02130126953125,0.07562255859375
1759957799828,1059276701,25145,1,0.041015625,-1.01348876953125,0.05999755859375
1759957799828,1059276701,25145,2,0.05078125,-1.01177978515625,0.07635498046875
1759957799828,1059276701,25145,3,0.026611328125,-1.00836181640625,0.07659912109375
1759957799828,1059276701,25145,4,0.015625,-1.02203369140625,0.10369873046875
1759957799828,1059276701,25145,5,0.03662109375,-1.01031494140625,0.09344482421875
1759957799828,1059276701,25145,6,0.02587890625,-1.01007080078125,0.08367919921875
1759957799828,1059276701,25145,7,0.00390625,-1.02471923828125,0.10858154296875
1759957799828,1059276701,25145,8,0.037353515625,-1.00152587890625,0.11737060546875
1759957799828,1059276701,25145,9,0.03125,-1.01275634765625,0.12347412109375
1759957799828,1059276701,25145,10,-0.008056640625,-1.01373291015625,0.13909912109375
1759957799828,1059276701,25145,11,-0.055419921875,-1.00933837890625,0.12225341796875
1759957799828,1059276701,25145,12,0.019775390625,-1.00958251953125,0.13153076171875
1759957799828,1059276701,25145,13,0.024658203125,-1.02935791015625,0.09149169921875
1759957799828,1059276701,25145,14,0.00048828125,-1.02325439453125,0.05535888671875
1759957799828,1059276701,25145,15,-0.00244140625,-1.02178955078125,0.03997802734375
1759957799828,1059276701,25145,16,0.021728515625,-1.02325439453125,-0.00811767578125
1759957799828,1059276701,25145,17,0.01513671875,-1.03131103515625,-0.02691650390625
1759957799828,1059276701,25145,18,0.01953125,-0.99737548828125,-0.06304931640625
1759957799828,1059276701,25145,19,0.038330078125,-0.96343994140625,-0.06817626953125
1759957799828,1059276701,25145,20,0.0419921875,-0.98101806640625,-0.07403564453125
1759957799828,1059276701,25145,21,-0.01318359375,-1.10675048828125,0.01361083984375
1759957799828,1059276701,25145,22,0.091064453125,-1.02081298828125,-0.02520751953125
1759957799828,1059276701,25145,23,0.08935546875,-1.00225830078125,-0.04327392578125
1759957799828,1059276701,25145,24,0.109619140625,-1.00885009765625,-0.04962158203125
1759957799828,1059276701,25145,25,0.103759765625,-1.00421142578125,-0.05206298828125
1759957799828,1059276701,25145,26,0.056884765625,-1.01495361328125,-0.06060791015625
1759957799828,1059276701,25145,27,0.12646484375,-1.01031494140625,-0.08868408203125
1759957799828,1059276701,25145,28,0.10302734375,-1.01739501953125,-0.06988525390625
1759957799828,1059276701,25145,29,0.109130859375,-1.01885986328125,-0.06890869140625
1759957799828,1059276701,25145,30,0.044921875,-0.99688720703125,-0.05157470703125
1759957799828,1059276701,25145,31,0.12060546875,-1.05010986328125,-0.03106689453125
1759957802409,1059279268,25146,0,0.093505859375,-0.96075439453125,-0.05841064453125
1759957802409,1059279268,25146,1,0.119384765625,-1.01324462890625,-0.11163330078125
1759957802409,1059279268,25146,2,0.139404296875,-1.04180908203125,-0.10333251953125
1759957802409,1059279268,25146,3,0.0830078125,-0.99102783203125,-0.12432861328125
1759957802409,1059279268,25146,4,0.17333984375,-1.00689697265625,-0.13531494140625
1759957802409,1059279268,25146,5,0.186767578125,-1.01788330078125,-0.16632080078125
1759957802409,1059279268,25146,6,0.120361328125,-0.98785400390625,-0.16729736328125
1759957802409,1059279268,25146,7,0.1689453125,-0.99981689453125,-0.18463134765625
1759957802409,1059279268,25146,8,0.148681640625,-0.96905517578125,-0.18878173828125
1759957802409,1059279268,25146,9,0.134033203125,-1.13580322265625,-0.15679931640625
1759957802409,1059279268,25146,10,0.08837890625,-0.93511962890625,-0.02618408203125
1759957802409,1059279268,25146,11,0.16064453125,-0.94512939453125,-0.07281494140625
1759957802409,1059279268,25146,12,0.1650390625,-1.12506103515625,0.01947021484375
1759957802409,1059279268,25146,13,0.16259765625,-0.92535400390625,0.00408935546875
1759957802409,1059279268,25146,14,0.151123046875,-1.01568603515625,0.03656005859375
1759957802409,1059279268,25146,15,0.10400390625,-1.02618408203125,0.05413818359375
1759957802409,1059279268,25146,16,0.103759765625,-0.98419189453125,0.04437255859375
1759957802409,1059279268,25146,17,0.066650390625,-1.01226806640625,0.08416748046875
1759957802409,1059279268,25146,18,0.07275390625,-1.00445556640625,0.10736083984375
1759957802409,1059279268,25146,19,0.04931640625,-1.01300048828125,0.11297607421875
1759957802409,1059279268,25146,20,0.031494140625,-0.99957275390625,0.12176513671875
1759957802409,1059279268,25146,21,0.044921875,-1.01470947265625,0.11956787109375
1759957802409,1059279268,25146,22,0.035400390625,-1.01397705078125,0.15228271484375
1759957802409,1059279268,25146,23,0.06689453125,-0.99298095703125,0.13226318359375
1759957802409,1059279268,25146,24,0.055908203125,-1.01226806640625,0.13323974609375
1759957802409,1059279268,25146,25,0.031982421875,-1.01129150390625,0.12445068359375
1759957802409,1059279268,25146,26,0.04833984375,-1.00567626953125,0.09173583984375
1759957802409,1059279268,25146,27,0.048095703125,-0.99957275390625,0.10784912109375
1759957802409,1059279268,25146,28,0.066650390625,-1.01300048828125,0.08734130859375
1759957802409,1059279268,25146,29,0.070556640625,-1.00640869140625,0.08294677734375
1759957802409,1059279268,25146,30,0.076171875,-0.99224853515625,0.04559326171875
1759957802409,1059279268,25146,31,0.005615234375,-1.05401611328125,0.07342529296875
1759957804998,1059281835,25147,0,0.05419921875,-0.99493408203125,0.03607177734375
1759957804998,1059281835,25147,1,0.0234375,-1.02789306640625,0.06414794921875
1759957804998,1059281835,25147,2,0.025390625,-1.01275634765625,0.04705810546875
1759957804998,1059281835,25147,3,0.041015625,-1.01593017578125,0.06195068359375
1759957804998,1059281835,25147,4,0.01708984375,-1.01324462890625,0.07171630859375
1759957804998,1059281835,25147,5,0.05078125,-1.02227783203125,0.06048583984375
1759957804998,1059281835,25147,6,-0.025146484375,-1.02716064453125,0.11004638671875
1759957804998,1059281835,25147,7,0.034423828125,-0.99542236328125,0.07147216796875
1759957804998,1059281835,25147,8,0.035888671875,-1.02520751953125,0.08563232421875
1759957804998,1059281835,25147,9,0.0068359375,-1.01129150390625,0.08538818359375
1759957804998,1059281835,25147,10,0.020751953125,-1.02642822265625,0.07977294921875
1759957804998,1059281835,25147,11,0.043701171875,-1.01373291015625,0.03900146484375
1759957804998,1059281835,25147,12,0.05322265625,-1.01739501953125,0.03094482421875
1759957804998,1059281835,25147,13,0.016845703125,-1.00958251953125,0.04534912109375
1759957804998,1059281835,25147,14,0.012939453125,-1.04547119140625,0.01239013671875
1759957804998,1059281835,25147,15,0.033935546875,-1.02203369140625,-0.01446533203125
1759957804998,1059281835,25147,16,0.039306640625,-1.01373291015625,-0.05084228515625
1759957804998,1059281835,25147,17,0.0615234375,-1.01202392578125,-0.07696533203125
1759957804998,1059281835,25147,18,0.099365234375,-0.97930908203125,-0.10333251953125
1759957804998,1059281835,25147,19,0.04150390625,-1.01641845703125,-0.06597900390625
1759957804998,1059281835,25147,20,0.041259765625,-1.05377197265625,-0.03521728515625
1759957804998,1059281835,25147,21,0.17333984375,-1.00250244140625,-0.06500244140625
1759957804998,1059281835,25147,22,0.067626953125,-1.01739501953125,-0.06671142578125
1759957804998,1059281835,25147,23,0.16650390625,-1.00201416015625,-0.08843994140625
