receivedPhoneTimestamp,respeckTimestamp,packetSeqNum,sampleSeqNum,accelX,accelY,accelZ
1759503995992,14338032,5581,31,0.426513671875,-0.01177978515625,-0.80108642578125
1759503998528,14340593,5582,0,0.26416015625,0.01995849609375,-1.01470947265625
1759503998528,14340593,5582,1,0.267578125,0.02630615234375,-0.97833251953125
1759503998528,14340593,5582,2,0.296142578125,0.03070068359375,-1.00079345703125
1759503998528,14340593,5582,3,0.4072265625,0.00140380859375,-0.84381103515625
1759503998528,14340593,5582,4,0.3037109375,0.02044677734375,-0.98297119140625
1759503998528,14340593,5582,5,0.300537109375,0.01922607421875,-0.95269775390625
1759503998528,14340593,5582,6,0.25830078125,0.01605224609375,-0.98223876953125
1759503998528,14340593,5582,7,0.239990234375,0.01263427734375,-0.99444580078125
1759503998528,14340593,5582,8,0.26123046875,0.00189208984375,-0.97125244140625
1759503998528,14340593,5582,9,0.2734375,-0.00054931640625,-0.96856689453125
1759503998528,14340593,5582,10,0.265869140625,0.00213623046875,-0.97247314453125
1759503998528,14340593,5582,11,0.2353515625,0.01092529296875,-1.05572509765625
1759503998528,14340593,5582,12,0.4248046875,0.00677490234375,-0.82574462890625
1759503998528,14340593,5582,13,0.45361328125,-0.00958251953125,-0.82891845703125
1759503998528,14340593,5582,14,0.281494140625,0.00628662109375,-1.02325439453125
1759503998528,14340593,5582,15,0.293212890625,0.00848388671875,-0.96685791015625
1759503998528,14340593,5582,16,0.287109375,0.01434326171875,-0.99542236328125
1759503998528,14340593,5582,17,0.364013671875,0.00286865234375,-0.93218994140625
1759503998528,14340593,5582,18,0.414794921875,0.00189208984375,-0.86627197265625
1759503998528,14340593,5582,19,0.321044921875,0.01239013671875,-0.97760009765625
1759503998528,14340593,5582,20,0.3271484375,0.01165771484375,-0.96246337890625
1759503998528,14340593,5582,21,0.3671875,0.00384521484375,-0.98321533203125
1759503998528,14340593,5582,22,0.53271484375,-0.01324462890625,-0.68780517578125
1759503998528,14340593,5582,23,0.291259765625,0.00262451171875,-1.04205322265625
1759503998528,14340593,5582,24,0.296630859375,0.00384521484375,-1.01031494140625
1759503998528,14340593,5582,25,0.408935546875,-0.00982666015625,-0.85723876953125
1759503998528,14340593,5582,26,0.328369140625,-0.00958251953125,-0.97930908203125
1759503998528,14340593,5582,27,0.336669921875,-0.01055908203125,-0.94244384765625
1759503998528,14340593,5582,28,0.337646484375,-0.00665283203125,-0.94122314453125
1759503998528,14340593,5582,29,0.2998046875,-6.103515625e-05,-1.00201416015625
1759503998528,14340593,5582,30,0.386474609375,-0.00421142578125,-0.91436767578125
1759503998528,14340593,5582,31,0.458740234375,-0.01934814453125,-0.83331298828125
1759504001258,14343154,5583,0,0.343505859375,-0.00445556640625,-0.97882080078125
1759504001258,14343154,5583,1,0.31689453125,-6.103515625e-05,-0.97296142578125
1759504001258,14343154,5583,2,0.306884765625,0.00531005859375,-1.02911376953125
1759504001258,14343154,5583,3,0.49658203125,-0.02130126953125,-0.75640869140625
1759504001258,14343154,5583,4,0.440185546875,-0.01861572265625,-0.87506103515625
1759504001258,14343154,5583,5,0.316650390625,-0.00616455078125,-1.00860595703125
1759504001258,14343154,5583,6,0.345458984375,-0.00714111328125,-0.94097900390625
1759504001258,14343154,5583,7,0.347900390625,-0.00640869140625,-0.94683837890625
1759504001258,14343154,5583,8,0.36962890625,-0.00811767578125,-0.99420166015625
1759504001258,14343154,5583,9,0.55615234375,-0.03692626953125,-0.65850830078125
1759504001258,14343154,5583,10,0.322021484375,-0.00592041015625,-1.03302001953125
1759504001258,14343154,5583,11,0.33056640625,-0.01153564453125,-0.95635986328125
1759504001258,14343154,5583,12,0.33447265625,-0.01348876953125,-0.95147705078125
1759504001258,14343154,5583,13,0.3173828125,-0.01690673828125,-0.96295166015625
1759504001258,14343154,5583,14,0.321044921875,-0.01641845703125,-0.95318603515625
1759504001258,14343154,5583,15,0.319091796875,-0.01837158203125,-0.95367431640625
1759504001258,14343154,5583,16,0.3232421875,-0.01593017578125,-0.94659423828125
1759504001258,14343154,5583,17,0.305908203125,-0.00762939453125,-0.97418212890625
1759504001258,14343154,5583,18,0.314453125,-0.00762939453125,-0.96954345703125
1759504001258,14343154,5583,19,0.366943359375,-0.00592041015625,-0.95806884765625
1759504001258,14343154,5583,20,0.52783203125,-0.02423095703125,-0.74371337890625
1759504001258,14343154,5583,21,0.3525390625,0.00238037109375,-0.98590087890625
1759504001258,14343154,5583,22,0.32958984375,0.00042724609375,-0.96807861328125
1759504001258,14343154,5583,23,0.328125,-0.00152587890625,-0.97662353515625
1759504001258,14343154,5583,24,0.4052734375,-0.00738525390625,-0.88995361328125
1759504001258,14343154,5583,25,0.423828125,-0.00714111328125,-0.86627197265625
1759504001258,14343154,5583,26,0.30810546875,-0.00030517578125,-0.99298095703125
1759504001258,14343154,5583,27,0.31494140625,-0.00079345703125,-0.96368408203125
1759504001258,14343154,5583,28,0.332763671875,-0.00396728515625,-0.93975830078125
1759504001258,14343154,5583,29,0.314208984375,-0.00128173828125,-0.96221923828125
1759504001258,14343154,5583,30,0.317138671875,-0.00177001953125,-0.95098876953125
1759504001258,14343154,5583,31,0.309326171875,-0.00494384765625,-0.95806884765625
1759504003793,14345709,5584,0,0.299072265625,-0.00030517578125,-0.96905517578125
1759504003793,14345709,5584,1,0.296142578125,0.00604248046875,-1.00616455078125
1759504003793,14345709,5584,2,0.43798828125,-0.00762939453125,-0.82403564453125
1759504003793,14345709,5584,3,0.329833984375,-0.00128173828125,-0.96929931640625
1759504003793,14345709,5584,4,0.294677734375,0.00213623046875,-0.98077392578125
1759504003793,14345709,5584,5,0.30859375,0.00091552734375,-0.95880126953125
1759504003793,14345709,5584,6,0.28759765625,0.00726318359375,-1.02813720703125
1759504003793,14345709,5584,7,0.458740234375,-0.01373291015625,-0.79937744140625
1759504003793,14345709,5584,8,0.34228515625,-0.00762939453125,-0.95660400390625
1759504003793,14345709,5584,9,0.282958984375,-0.00494384765625,-0.98712158203125
1759504003793,14345709,5584,10,0.29443359375,0.00018310546875,-0.95953369140625
1759504003793,14345709,5584,11,0.289794921875,0.00115966796875,-0.97222900390625
1759504003793,14345709,5584,12,0.30078125,-0.00103759765625,-0.96295166015625
1759504003793,14345709,5584,13,0.317138671875,-0.00494384765625,-0.95098876953125
1759504003793,14345709,5584,14,0.30322265625,-0.00445556640625,-0.96319580078125
1759504003793,14345709,5584,15,0.29736328125,0.00018310546875,-0.96466064453125
1759504003793,14345709,5584,16,0.29541015625,-0.00030517578125,-0.97052001953125
1759504003793,14345709,5584,17,0.338623046875,0.00115966796875,-0.98004150390625
1759504003793,14345709,5584,18,0.503173828125,-0.04644775390625,-0.77130126953125
1759504003793,14345709,5584,19,0.428466796875,-0.02105712890625,-0.90484619140625
1759504003793,14345709,5584,20,0.33251953125,-0.00836181640625,-0.98736572265625
1759504003793,14345709,5584,21,0.35498046875,-0.00836181640625,-0.93194580078125
1759504003793,14345709,5584,22,0.333251953125,-0.00640869140625,-0.95953369140625
1759504003793,14345709,5584,23,0.322509765625,-0.00689697265625,-0.98223876953125
1759504003793,14345709,5584,24,0.376953125,-0.00909423828125,-0.89068603515625
1759504003793,14345709,5584,25,0.314453125,-0.00689697265625,-0.95709228515625
1759504003793,14345709,5584,26,0.26171875,-0.00738525390625,-0.99981689453125
1759504003793,14345709,5584,27,0.285400390625,-0.00543212890625,-0.96246337890625
1759504003793,14345709,5584,28,0.287841796875,-0.00885009765625,-0.97027587890625
1759504003793,14345709,5584,29,0.29443359375,-0.01055908203125,-0.96099853515625
1759504003793,14345709,5584,30,0.2939453125,-0.01177978515625,-0.96221923828125
1759504003793,14345709,5584,31,0.289306640625,-0.00616455078125,-0.97344970703125
1759504006326,14348270,5585,0,0.2958984375,-0.00616455078125,-0.96270751953125
1759504006326,14348270,5585,1,0.304443359375,-0.01153564453125,-0.95806884765625
1759504006326,14348270,5585,2,0.29541015625,-0.00958251953125,-0.96636962890625
1759504006326,14348270,5585,3,0.28466796875,-0.00201416015625,-1.03985595703125
1759504006326,14348270,5585,4,0.463623046875,-0.01470947265625,-0.77520751953125
1759504006326,14348270,5585,5,0.321044921875,-0.00469970703125,-0.97857666015625
1759504006326,14348270,5585,6,0.28662109375,-0.00396728515625,-0.98834228515625
1759504006326,14348270,5585,7,0.306396484375,-0.00616455078125,-0.95538330078125
1759504006326,14348270,5585,8,0.272705078125,0.00018310546875,-1.07037353515625
1759504006326,14348270,5585,9,0.526123046875,-0.03912353515625,-0.68585205078125
1759504006326,14348270,5585,10,0.34716796875,-0.01739501953125,-0.98541259765625
1759504006326,14348270,5585,11,0.328125,-0.01568603515625,-0.96392822265625
1759504006326,14348270,5585,12,0.331298828125,-0.01519775390625,-0.93853759765625
1759504006326,14348270,5585,13,0.3046875,-0.01177978515625,-0.97271728515625
1759504006326,14348270,5585,14,0.306884765625,-0.01202392578125,-0.95758056640625
1759504006326,14348270,5585,15,0.299560546875,-0.01080322265625,-0.96514892578125
1759504006326,14348270,5585,16,0.297607421875,-0.00982666015625,-0.96246337890625
1759504006326,14348270,5585,17,0.29638671875,-0.00592041015625,-0.96368408203125
1759504006326,14348270,5585,18,0.2763671875,-0.00518798828125,-1.01519775390625
1759504006326,14348270,5585,19,0.41650390625,-0.01007080078125,-0.85333251953125
1759504006326,14348270,5585,20,0.500244140625,-0.02618408203125,-0.81671142578125
1759504006326,14348270,5585,21,0.39306640625,-0.01373291015625,-0.94146728515625
1759504006326,14348270,5585,22,0.342529296875,-0.01177978515625,-0.96905517578125
1759504006326,14348270,5585,23,0.3486328125,-0.00982666015625,-0.94952392578125
1759504006326,14348270,5585,24,0.411865234375,-0.01519775390625,-0.89410400390625
1759504006326,14348270,5585,25,0.419677734375,-0.02081298828125,-0.87384033203125
1759504006326,14348270,5585,26,0.2900390625,-0.00787353515625,-1.00225830078125
1759504006326,14348270,5585,27,0.292236328125,-0.01226806640625,-0.96807861328125
1759504006326,14348270,5585,28,0.29541015625,-0.01251220703125,-0.96002197265625
1759504006326,14348270,5585,29,0.281005859375,-0.00909423828125,-0.97686767578125
1759504006326,14348270,5585,30,0.284423828125,-0.00738525390625,-0.97296142578125
1759504006326,14348270,5585,31,0.28759765625,-0.00836181640625,-0.96783447265625
1759504008861,14350831,5586,0,0.293701171875,-0.01080322265625,-0.96514892578125
1759504008861,14350831,5586,1,0.288818359375,-0.00640869140625,-0.96832275390625
1759504008861,14350831,5586,2,0.302490234375,-0.00128173828125,-0.97271728515625
1759504008861,14350831,5586,3,0.341064453125,-0.00640869140625,-0.92633056640625
1759504008861,14350831,5586,4,0.311279296875,-0.00445556640625,-0.96197509765625
1759504008861,14350831,5586,5,0.29248046875,-0.00274658203125,-0.98712158203125
1759504008861,14350831,5586,6,0.371337890625,-0.01031494140625,-0.92510986328125
1759504008861,14350831,5586,7,0.440185546875,-0.01763916015625,-0.82916259765625
1759504008861,14350831,5586,8,0.28759765625,-0.00592041015625,-1.02276611328125
1759504008861,14350831,5586,9,0.31005859375,-0.00518798828125,-0.96075439453125
1759504008861,14350831,5586,10,0.3251953125,-0.00738525390625,-0.94464111328125
1759504008861,14350831,5586,11,0.308837890625,-0.00787353515625,-0.96832275390625
1759504008861,14350831,5586,12,0.31298828125,-0.01080322265625,-0.95587158203125
1759504008861,14350831,5586,13,0.311279296875,-0.00836181640625,-0.95635986328125
1759504008861,14350831,5586,14,0.30908203125,-0.00909423828125,-0.95831298828125
1759504008861,14350831,5586,15,0.30712890625,-0.00518798828125,-0.96563720703125
1759504008861,14350831,5586,16,0.301025390625,-0.00201416015625,-0.99127197265625
1759504008861,14350831,5586,17,0.4072265625,-0.02252197265625,-0.87799072265625
1759504008861,14350831,5586,18,0.4677734375,-0.02642822265625,-0.82672119140625
1759504008861,14350831,5586,19,0.33056640625,-0.01055908203125,-1.00616455078125
1759504008861,14350831,5586,20,0.34912109375,-0.01202392578125,-0.94219970703125
1759504008861,14350831,5586,21,0.348876953125,-0.01251220703125,-0.94171142578125
1759504008861,14350831,5586,22,0.330322265625,-0.00592041015625,-0.99591064453125
1759504008861,14350831,5586,23,0.444580078125,-0.02691650390625,-0.84722900390625
1759504008861,14350831,5586,24,0.42578125,-0.02984619140625,-0.88238525390625
1759504008861,14350831,5586,25,0.344970703125,-0.01959228515625,-0.97418212890625
1759504008861,14350831,5586,26,0.3525390625,-0.01544189453125,-0.94171142578125
1759504008861,14350831,5586,27,0.348388671875,-0.01031494140625,-0.94219970703125
1759504008861,14350831,5586,28,0.331787109375,-0.00982666015625,-0.95782470703125
1759504008861,14350831,5586,29,0.34375,-0.01324462890625,-0.94854736328125
1759504008861,14350831,5586,30,0.353271484375,-0.01275634765625,-0.93707275390625
1759504008861,14350831,5586,31,0.350341796875,-0.01055908203125,-0.94146728515625
1759504011398,14353393,5587,0,0.337158203125,-0.00689697265625,-0.95880126953125
1759504011398,14353393,5587,1,0.33935546875,-0.00592041015625,-0.99395751953125
1759504011398,14353393,5587,2,0.488037109375,-0.01617431640625,-0.82159423828125
1759504011398,14353393,5587,3,0.525146484375,-0.03253173828125,-0.79278564453125
1759504011398,14353393,5587,4,0.4228515625,-0.01129150390625,-0.92974853515625
1759504011398,14353393,5587,5,0.357421875,-0.00909423828125,-0.96490478515625
1759504011398,14353393,5587,6,0.368896484375,-0.01226806640625,-0.93292236328125
1759504011398,14353393,5587,7,0.329833984375,-0.00347900390625,-1.04864501953125
1759504011398,14353393,5587,8,0.5556640625,-0.03692626953125,-0.66534423828125
1759504011398,14353393,5587,9,0.389404296875,-0.01983642578125,-0.98199462890625
1759504011398,14353393,5587,10,0.374755859375,-0.02960205078125,-0.93634033203125
1759504011398,14353393,5587,11,0.376708984375,-0.03472900390625,-0.92315673828125
1759504011398,14353393,5587,12,0.34521484375,-0.02276611328125,-0.95660400390625
1759504011398,14353393,5587,13,0.3515625,-0.02178955078125,-0.93951416015625
1759504011398,14353393,5587,14,0.356201171875,-0.02618408203125,-0.93560791015625
1759504011398,14353393,5587,15,0.338623046875,-0.02081298828125,-0.95050048828125
1759504011398,14353393,5587,16,0.3408203125,-0.02056884765625,-0.94610595703125
1759504011398,14353393,5587,17,0.336181640625,-0.01641845703125,-0.95001220703125
1759504011398,14353393,5587,18,0.331787109375,-0.01300048828125,-0.95660400390625
1759504011398,14353393,5587,19,0.343505859375,-0.01129150390625,-1.02569580078125
1759504011398,14353393,5587,20,0.55078125,-0.05108642578125,-0.70513916015625
1759504011398,14353393,5587,21,0.494384765625,-0.02984619140625,-0.83966064453125
1759504011398,14353393,5587,22,0.348388671875,-0.01446533203125,-1.00494384765625
1759504011398,14353393,5587,23,0.3779296875,-0.01763916015625,-0.92120361328125
1759504011398,14353393,5587,24,0.346435546875,-0.01617431640625,-0.96368408203125
1759504011398,14353393,5587,25,0.38916015625,-0.01666259765625,-0.94952392578125
1759504011398,14353393,5587,26,0.491455078125,-0.04620361328125,-0.80718994140625
1759504011398,14353393,5587,27,0.4033203125,-0.04547119140625,-0.92657470703125
1759504011398,14353393,5587,28,0.3515625,-0.03302001953125,-0.96270751953125
1759504011398,14353393,5587,29,0.3525390625,-0.02301025390625,-0.94537353515625
1759504011398,14353393,5587,30,0.345947265625,-0.02227783203125,-0.95513916015625
1759504011398,14353393,5587,31,0.36669921875,-0.03057861328125,-0.93682861328125
1759504013930,14355954,5588,0,0.382568359375,-0.03375244140625,-0.92047119140625
1759504013930,14355954,5588,1,0.35693359375,-0.02691650390625,-0.94268798828125
1759504013930,14355954,5588,2,0.35205078125,-0.02252197265625,-0.94024658203125
1759504013930,14355954,5588,3,0.340576171875,-0.01763916015625,-0.95294189453125
1759504013930,14355954,5588,4,0.341064453125,-0.02081298828125,-0.95098876953125
1759504013930,14355954,5588,5,0.34716796875,-0.01983642578125,-0.93780517578125
1759504013930,14355954,5588,6,0.3232421875,-0.01397705078125,-0.96002197265625
1759504013930,14355954,5588,7,0.31787109375,-0.01226806640625,-0.95635986328125
1759504013930,14355954,5588,8,0.31787109375,-0.01495361328125,-0.95489501953125
1759504013930,14355954,5588,9,0.31005859375,-0.00836181640625,-0.95684814453125
1759504013930,14355954,5588,10,0.309326171875,-0.00836181640625,-0.95513916015625
1759504013930,14355954,5588,11,0.318603515625,-0.00469970703125,-0.97930908203125
1759504013930,14355954,5588,12,0.387939453125,-0.01007080078125,-0.87945556640625
1759504013930,14355954,5588,13,0.313720703125,-0.00079345703125,-0.97882080078125
1759504013930,14355954,5588,14,0.321044921875,-0.00494384765625,-0.96026611328125
1759504013930,14355954,5588,15,0.32373046875,-0.00958251953125,-0.95782470703125
1759504013930,14355954,5588,16,0.32958984375,-0.00738525390625,-0.95098876953125
1759504013930,14355954,5588,17,0.31884765625,-0.00274658203125,-1.00909423828125
1759504013930,14355954,5588,18,0.456298828125,-0.02325439453125,-0.79620361328125
1759504013930,14355954,5588,19,0.33251953125,-0.00885009765625,-0.97320556640625
1759504013930,14355954,5588,20,0.294677734375,-0.00494384765625,-0.98858642578125
1759504013930,14355954,5588,21,0.315185546875,-0.01715087890625,-0.95098876953125
1759504013930,14355954,5588,22,0.308837890625,-0.01763916015625,-0.96197509765625
1759504013930,14355954,5588,23,0.31298828125,-0.01641845703125,-0.95489501953125
1759504013930,14355954,5588,24,0.309814453125,-0.01617431640625,-0.95733642578125
1759504013930,14355954,5588,25,0.294677734375,-0.01275634765625,-0.98736572265625
1759504013930,14355954,5588,26,0.350341796875,-0.01373291015625,-0.91119384765625
1759504013930,14355954,5588,27,0.302734375,-0.01080322265625,-0.98272705078125
1759504013930,14355954,5588,28,0.3349609375,-0.01104736328125,-0.94879150390625
1759504013930,14355954,5588,29,0.373779296875,-0.01324462890625,-0.91070556640625
1759504013930,14355954,5588,30,0.315185546875,-0.00396728515625,-0.97174072265625
1759504013930,14355954,5588,31,0.305908203125,-0.00567626953125,-0.96783447265625
1759504016660,14358515,5589,0,0.314697265625,-0.01080322265625,-0.95172119140625
1759504016660,14358515,5589,1,0.304931640625,-0.01226806640625,-0.96514892578125
1759504016660,14358515,5589,2,0.3046875,-0.00836181640625,-0.96319580078125
1759504016660,14358515,5589,3,0.309326171875,-0.00958251953125,-0.95806884765625
1759504016660,14358515,5589,4,0.310546875,-0.00933837890625,-0.95709228515625
1759504016660,14358515,5589,5,0.2861328125,-0.00347900390625,-1.01055908203125
1759504016660,14358515,5589,6,0.4033203125,-0.00811767578125,-0.86553955078125
1759504016660,14358515,5589,7,0.398193359375,-0.01251220703125,-0.90875244140625
1759504016660,14358515,5589,8,0.341064453125,-0.00543212890625,-0.96612548828125
1759504016660,14358515,5589,9,0.328857421875,-0.00445556640625,-0.95635986328125
1759504016660,14358515,5589,10,0.315185546875,-0.00616455078125,-0.97564697265625
1759504016660,14358515,5589,11,0.38671875,-0.00909423828125,-0.89532470703125
1759504016660,14358515,5589,12,0.401123046875,-0.02227783203125,-0.89312744140625
1759504016660,14358515,5589,13,0.31494140625,-0.01690673828125,-0.98760986328125
1759504016660,14358515,5589,14,0.319091796875,-0.01348876953125,-0.95635986328125
1759504016660,14358515,5589,15,0.318603515625,-0.01373291015625,-0.95196533203125
1759504016660,14358515,5589,16,0.310546875,-0.00958251953125,-0.96099853515625
1759504016660,14358515,5589,17,0.313720703125,-0.01275634765625,-0.95611572265625
1759504016660,14358515,5589,18,0.31787109375,-0.01470947265625,-0.95489501953125
1759504016660,14358515,5589,19,0.315673828125,-0.01055908203125,-0.96051025390625
1759504016660,14358515,5589,20,0.314453125,-0.00933837890625,-0.96002197265625
1759504016660,14358515,5589,21,0.310302734375,-0.00762939453125,-0.99493408203125
1759504016660,14358515,5589,22,0.427978515625,-0.01324462890625,-0.87164306640625
1759504016660,14358515,5589,23,0.43603515625,-0.01617431640625,-0.85382080078125
1759504016660,14358515,5589,24,0.3115234375,-0.00494384765625,-1.00494384765625
1759504016660,14358515,5589,25,0.332275390625,-0.00274658203125,-0.95245361328125
1759504016660,14358515,5589,26,0.3681640625,-0.00665283203125,-0.94659423828125
1759504016660,14358515,5589,27,0.440185546875,-0.03131103515625,-0.85577392578125
1759504016660,14358515,5589,28,0.3525390625,-0.02667236328125,-0.97149658203125
1759504016660,14358515,5589,29,0.357177734375,-0.02593994140625,-0.92730712890625
1759504016660,14358515,5589,30,0.3369140625,-0.01593017578125,-0.95269775390625
1759504016660,14358515,5589,31,0.324951171875,-0.01641845703125,-0.95855712890625
1759504019204,14361076,5590,0,0.332275390625,-0.01519775390625,-0.94830322265625
1759504019204,14361076,5590,1,0.3271484375,-0.01300048828125,-0.95318603515625
1759504019204,14361076,5590,2,0.33349609375,-0.01373291015625,-0.94757080078125
1759504019204,14361076,5590,3,0.331787109375,-0.01348876953125,-0.94903564453125
1759504019204,14361076,5590,4,0.314697265625,-0.00885009765625,-0.98931884765625
1759504019204,14361076,5590,5,0.39990234375,-0.01666259765625,-0.89459228515625
1759504019204,14361076,5590,6,0.4140625,-0.02154541015625,-0.88092041015625
1759504019204,14361076,5590,7,0.33837890625,-0.01153564453125,-0.97418212890625
1759504019204,14361076,5590,8,0.328857421875,-0.00982666015625,-0.98614501953125
1759504019204,14361076,5590,9,0.435546875,-0.02130126953125,-0.85211181640625
1759504019204,14361076,5590,10,0.387451171875,-0.02203369140625,-0.92340087890625
1759504019204,14361076,5590,11,0.334716796875,-0.01177978515625,-0.97271728515625
1759504019204,14361076,5590,12,0.343994140625,-0.01568603515625,-0.94171142578125
1759504019204,14361076,5590,13,0.3251953125,-0.01544189453125,-0.95733642578125
1759504019204,14361076,5590,14,0.318603515625,-0.01080322265625,-0.96954345703125
1759504019204,14361076,5590,15,0.350830078125,-0.01641845703125,-0.93414306640625
1759504019204,14361076,5590,16,0.353271484375,-0.01739501953125,-0.94268798828125
1759504019204,14361076,5590,17,0.350830078125,-0.01519775390625,-0.94293212890625
1759504019204,14361076,5590,18,0.341064453125,-0.01422119140625,-0.94903564453125
1759504019204,14361076,5590,19,0.33642578125,-0.01202392578125,-0.95245361328125
1759504019204,14361076,5590,20,0.318359375,-0.00738525390625,-1.00787353515625
1759504019204,14361076,5590,21,0.455322265625,-0.01348876953125,-0.81866455078125
1759504019204,14361076,5590,22,0.374755859375,-0.01129150390625,-0.94708251953125
1759504019204,14361076,5590,23,0.346923828125,-0.01129150390625,-0.95538330078125
1759504019204,14361076,5590,24,0.338134765625,-0.00494384765625,-0.99810791015625
1759504019204,14361076,5590,25,0.4677734375,-0.02911376953125,-0.81182861328125
1759504019204,14361076,5590,26,0.381103515625,-0.02032470703125,-0.92608642578125
1759504019204,14361076,5590,27,0.31298828125,-0.01470947265625,-0.98516845703125
1759504019204,14361076,5590,28,0.330078125,-0.01568603515625,-0.94219970703125
1759504019204,14361076,5590,29,0.31103515625,-0.00909423828125,-0.97491455078125
1759504019204,14361076,5590,30,0.32568359375,-0.00860595703125,-0.95343017578125
1759504019204,14361076,5590,31,0.33349609375,-0.01300048828125,-0.94537353515625
1759504021728,14363637,5591,0,0.322998046875,-0.01177978515625,-0.95123291015625
1759504021728,14363637,5591,1,0.315673828125,-0.00787353515625,-0.95977783203125
1759504021728,14363637,5591,2,0.318603515625,-0.00689697265625,-0.95587158203125
1759504021728,14363637,5591,3,0.310791015625,-0.00836181640625,-1.01348876953125
1759504021728,14363637,5591,4,0.44677734375,-0.02471923828125,-0.83966064453125
1759504021728,14363637,5591,5,0.414306640625,-0.02105712890625,-0.89239501953125
1759504021728,14363637,5591,6,0.3427734375,-0.00982666015625,-0.97369384765625
1759504021728,14363637,5591,7,0.346435546875,-0.01226806640625,-0.97808837890625
1759504021728,14363637,5591,8,0.452392578125,-0.02276611328125,-0.86309814453125
1759504021728,14363637,5591,9,0.46142578125,-0.04620361328125,-0.85333251953125
1759504021728,14363637,5591,10,0.398193359375,-0.04547119140625,-0.92047119140625
1759504021728,14363637,5591,11,0.353515625,-0.03253173828125,-0.95587158203125
1759504021728,14363637,5591,12,0.345703125,-0.02325439453125,-0.95123291015625
1759504021728,14363637,5591,13,0.33837890625,-0.02130126953125,-0.94488525390625
1759504021728,14363637,5591,14,0.327392578125,-0.01641845703125,-0.96295166015625
1759504021728,14363637,5591,15,0.354248046875,-0.01788330078125,-0.93170166015625
1759504021728,14363637,5591,16,0.342041015625,-0.01690673828125,-0.95025634765625
1759504021728,14363637,5591,17,0.33984375,-0.01470947265625,-0.94488525390625
1759504021728,14363637,5591,18,0.3271484375,-0.01275634765625,-0.97540283203125
1759504021728,14363637,5591,19,0.374267578125,-0.00933837890625,-0.95709228515625
1759504021728,14363637,5591,20,0.489990234375,-0.02911376953125,-0.80108642578125
1759504021728,14363637,5591,21,0.43603515625,-0.02227783203125,-0.89288330078125
1759504021728,14363637,5591,22,0.3408203125,-0.01177978515625,-0.98419189453125
1759504021728,14363637,5591,23,0.359375,-0.01324462890625,-0.95611572265625
1759504021728,14363637,5591,24,0.43115234375,-0.01763916015625,-0.88458251953125
1759504021728,14363637,5591,25,0.502685546875,-0.02740478515625,-0.79400634765625
1759504021728,14363637,5591,26,0.35205078125,-0.01568603515625,-0.99127197265625
1759504021728,14363637,5591,27,0.3525390625,-0.01861572265625,-0.95123291015625
1759504021728,14363637,5591,28,0.36376953125,-0.02203369140625,-0.93072509765625
1759504021728,14363637,5591,29,0.34619140625,-0.02081298828125,-0.94439697265625
1759504021728,14363637,5591,30,0.326904296875,-0.01202392578125,-0.95880126953125
1759504021728,14363637,5591,31,0.33203125,-0.01251220703125,-0.95196533203125
1759504024266,14366198,5592,0,0.33251953125,-0.01641845703125,-0.95050048828125
1759504024266,14366198,5592,1,0.3232421875,-0.01153564453125,-0.95635986328125
1759504024266,14366198,5592,2,0.315673828125,-0.00836181640625,-0.98712158203125
1759504024266,14366198,5592,3,0.38720703125,-0.01470947265625,-0.92242431640625
1759504024266,14366198,5592,4,0.45458984375,-0.03253173828125,-0.83380126953125
1759504024266,14366198,5592,5,0.35693359375,-0.01666259765625,-0.97125244140625
1759504024266,14366198,5592,6,0.3564453125,-0.01690673828125,-0.94366455078125
1759504024266,14366198,5592,7,0.35400390625,-0.01812744140625,-0.94512939453125
1759504024266,14366198,5592,8,0.377685546875,-0.01934814453125,-0.93658447265625
1759504024266,14366198,5592,9,0.41357421875,-0.02789306640625,-0.87677001953125
1759504024266,14366198,5592,10,0.330810546875,-0.01422119140625,-0.98468017578125
1759504024266,14366198,5592,11,0.338134765625,-0.01470947265625,-0.95196533203125
1759504024266,14366198,5592,12,0.338623046875,-0.01666259765625,-0.94903564453125
1759504024266,14366198,5592,13,0.337890625,-0.01666259765625,-0.94757080078125
1759504024266,14366198,5592,14,0.33935546875,-0.01641845703125,-0.94830322265625
1759504024266,14366198,5592,15,0.33203125,-0.01666259765625,-0.95050048828125
1759504024266,14366198,5592,16,0.32666015625,-0.01544189453125,-0.95489501953125
1759504024266,14366198,5592,17,0.32275390625,-0.01446533203125,-0.95611572265625
1759504024266,14366198,5592,18,0.31103515625,-0.00982666015625,-0.98687744140625
1759504024266,14366198,5592,19,0.400146484375,-0.01129150390625,-0.89117431640625
1759504024266,14366198,5592,20,0.4228515625,-0.01837158203125,-0.88360595703125
1759504024266,14366198,5592,21,0.35009765625,-0.01202392578125,-0.96905517578125
1759504024266,14366198,5592,22,0.354736328125,-0.00885009765625,-0.93951416015625
1759504024266,14366198,5592,23,0.33056640625,-0.00445556640625,-1.00152587890625
1759504024266,14366198,5592,24,0.458740234375,-0.02301025390625,-0.82794189453125
1759504024266,14366198,5592,25,0.425048828125,-0.02471923828125,-0.87823486328125
1759504024266,14366198,5592,26,0.319091796875,-0.01397705078125,-1.00347900390625
1759504024266,14366198,5592,27,0.34912109375,-0.01519775390625,-0.93560791015625
1759504024266,14366198,5592,28,0.334716796875,-0.01739501953125,-0.95172119140625
1759504024266,14366198,5592,29,0.339111328125,-0.01812744140625,-0.94805908203125
1759504024266,14366198,5592,30,0.338623046875,-0.01519775390625,-0.94635009765625
1759504024266,14366198,5592,31,0.32763671875,-0.01715087890625,-0.95611572265625
1759504026804,14368759,5593,0,0.32177734375,-0.01470947265625,-0.95147705078125
1759504026804,14368759,5593,1,0.326416015625,-0.01226806640625,-0.95465087890625
1759504026804,14368759,5593,2,0.333251953125,-0.00982666015625,-0.96905517578125
1759504026804,14368759,5593,3,0.401123046875,-0.02154541015625,-0.87506103515625
1759504026804,14368759,5593,4,0.328369140625,-0.00640869140625,-0.97003173828125
1759504026804,14368759,5593,5,0.3125,-0.00811767578125,-0.96978759765625
1759504026804,14368759,5593,6,0.320556640625,-0.01153564453125,-0.95562744140625
1759504026804,14368759,5593,7,0.30322265625,0.00677490234375,-1.03253173828125
1759504026804,14368759,5593,8,0.547607421875,-0.05596923828125,-0.69903564453125
1759504026804,14368759,5593,9,0.39892578125,-0.01080322265625,-0.94244384765625
1759504026804,14368759,5593,10,0.327392578125,-0.01690673828125,-0.97760009765625
1759504026804,14368759,5593,11,0.330810546875,-0.01910400390625,-0.94610595703125
1759504026804,14368759,5593,12,0.306884765625,-0.01226806640625,-0.96514892578125
1759504026804,14368759,5593,13,0.302001953125,-0.00543212890625,-0.97979736328125
1759504026804,14368759,5593,14,0.35986328125,-0.00982666015625,-0.92315673828125
1759504026804,14368759,5593,15,0.35595703125,-0.01251220703125,-0.93609619140625
1759504026804,14368759,5593,16,0.337158203125,-0.00836181640625,-0.95025634765625
1759504026804,14368759,5593,17,0.3251953125,-0.00640869140625,-0.97100830078125
1759504026804,14368759,5593,18,0.37451171875,-0.00665283203125,-0.99542236328125
1759504026804,14368759,5593,19,0.554443359375,-0.02496337890625,-0.70123291015625
1759504026804,14368759,5593,20,0.461669921875,-0.00738525390625,-0.89849853515625
1759504026804,14368759,5593,21,0.38623046875,-0.00762939453125,-0.95245361328125
1759504026804,14368759,5593,22,0.39501953125,-0.00787353515625,-0.91412353515625
1759504026804,14368759,5593,23,0.369140625,-0.00933837890625,-0.97491455078125
1759504026804,14368759,5593,24,0.45068359375,-0.02130126953125,-0.84014892578125
1759504026804,14368759,5593,25,0.361328125,-0.02056884765625,-0.95587158203125
1759504026804,14368759,5593,26,0.34228515625,-0.01763916015625,-0.95538330078125
1759504026804,14368759,5593,27,0.34619140625,-0.01959228515625,-0.93756103515625
1759504026804,14368759,5593,28,0.32958984375,-0.01519775390625,-0.95025634765625
1759504026804,14368759,5593,29,0.303466796875,-0.01177978515625,-0.96124267578125
1759504026804,14368759,5593,30,0.29541015625,-0.01300048828125,-0.96612548828125
1759504026804,14368759,5593,31,0.296875,-0.01373291015625,-0.96343994140625
