receivedPhoneTimestamp,respeckTimestamp,packetSeqNum,sampleSeqNum,accelX,accelY,accelZ
1759958494463,1059969814,25415,8,0.5517578125,0.00238037109375,-0.85552978515625
1759958494463,1059969814,25415,9,0.584716796875,-0.00689697265625,-0.82598876953125
1759958494463,1059969814,25415,10,0.578369140625,-0.01300048828125,-0.85162353515625
1759958494463,1059969814,25415,11,0.555908203125,-0.01300048828125,-0.85528564453125
1759958494463,1059969814,25415,12,0.568603515625,-0.00689697265625,-0.85894775390625
1759958494463,1059969814,25415,13,0.550048828125,-0.00103759765625,-0.83575439453125
1759958494463,1059969814,25415,14,0.552490234375,-0.00030517578125,-0.86236572265625
1759958494463,1059969814,25415,15,0.551513671875,0.00115966796875,-0.85748291015625
1759958494463,1059969814,25415,16,0.552734375,-0.00030517578125,-0.87359619140625
1759958494463,1059969814,25415,17,0.548583984375,-0.00103759765625,-0.86260986328125
1759958494463,1059969814,25415,18,0.543212890625,-0.00299072265625,-0.85455322265625
1759958494463,1059969814,25415,19,0.549072265625,-0.00030517578125,-0.86529541015625
1759958494463,1059969814,25415,20,0.586669921875,-0.00567626953125,-0.87921142578125
1759958494463,1059969814,25415,21,0.54443359375,-0.02838134765625,-0.81768798828125
1759958494463,1059969814,25415,22,0.55029296875,-0.03009033203125,-0.85333251953125
1759958494463,1059969814,25415,23,0.539306640625,-0.01934814453125,-0.83868408203125
1759958494463,1059969814,25415,24,0.53955078125,-0.02301025390625,-0.90484619140625
1759958494463,1059969814,25415,25,0.538330078125,-0.02984619140625,-0.87896728515625
1759958494463,1059969814,25415,26,0.53173828125,-0.02154541015625,-0.86822509765625
1759958494463,1059969814,25415,27,0.527099609375,-0.02398681640625,-0.87359619140625
1759958494463,1059969814,25415,28,0.533935546875,-0.02960205078125,-0.88043212890625
1759958494463,1059969814,25415,29,0.534912109375,-0.02838134765625,-0.86724853515625
1759958494463,1059969814,25415,30,0.53955078125,-0.02813720703125,-0.87506103515625
1759958494463,1059969814,25415,31,0.55419921875,-0.02471923828125,-0.89337158203125
1759958497243,1059972381,25416,0,0.5576171875,-0.03961181640625,-0.80816650390625
1759958497243,1059972381,25416,1,0.554443359375,-0.04864501953125,-0.84063720703125
1759958497243,1059972381,25416,2,0.544189453125,-0.04205322265625,-0.83648681640625
1759958497243,1059972381,25416,3,0.535888671875,-0.03668212890625,-0.89385986328125
1759958497243,1059972381,25416,4,0.5380859375,-0.03082275390625,-0.89459228515625
1759958497243,1059972381,25416,5,0.5263671875,-0.03277587890625,-0.86505126953125
1759958497243,1059972381,25416,6,0.530029296875,-0.03668212890625,-0.87457275390625
1759958497243,1059972381,25416,7,0.535400390625,-0.03814697265625,-0.88336181640625
1759958497243,1059972381,25416,8,0.5283203125,-0.03765869140625,-0.86676025390625
1759958497243,1059972381,25416,9,0.53466796875,-0.03277587890625,-0.87213134765625
1759958497243,1059972381,25416,10,0.538818359375,-0.02813720703125,-0.89068603515625
1759958497243,1059972381,25416,11,0.58251953125,-0.03057861328125,-0.86993408203125
1759958497243,1059972381,25416,12,0.53271484375,-0.04083251953125,-0.79913330078125
1759958497243,1059972381,25416,13,0.549072265625,-0.04864501953125,-0.85601806640625
1759958497243,1059972381,25416,14,0.533447265625,-0.04327392578125,-0.86260986328125
1759958497243,1059972381,25416,15,0.539794921875,-0.03668212890625,-0.90972900390625
1759958497243,1059972381,25416,16,0.53076171875,-0.03546142578125,-0.87384033203125
1759958497243,1059972381,25416,17,0.526123046875,-0.03668212890625,-0.86846923828125
1759958497243,1059972381,25416,18,0.529296875,-0.03961181640625,-0.87921142578125
1759958497243,1059972381,25416,19,0.53125,-0.03961181640625,-0.87554931640625
1759958497243,1059972381,25416,20,0.533203125,-0.03765869140625,-0.87017822265625
1759958497243,1059972381,25416,21,0.532958984375,-0.03472900390625,-0.88555908203125
1759958497243,1059972381,25416,22,0.5693359375,-0.03790283203125,-0.85430908203125
1759958497243,1059972381,25416,23,0.543701171875,-0.04327392578125,-0.81915283203125
1759958497243,1059972381,25416,24,0.554443359375,-0.05255126953125,-0.86505126953125
1759958497243,1059972381,25416,25,0.537109375,-0.04864501953125,-0.85992431640625
1759958497243,1059972381,25416,26,0.539794921875,-0.04254150390625,-0.88995361328125
1759958497243,1059972381,25416,27,0.536376953125,-0.04010009765625,-0.87432861328125
1759958497243,1059972381,25416,28,0.531982421875,-0.04571533203125,-0.85650634765625
1759958497243,1059972381,25416,29,0.53662109375,-0.04449462890625,-0.87774658203125
1759958497243,1059972381,25416,30,0.538818359375,-0.04644775390625,-0.87725830078125
1759958497243,1059972381,25416,31,0.538818359375,-0.04473876953125,-0.85699462890625
1759958499625,1059974948,25417,0,0.542724609375,-0.04693603515625,-0.87139892578125
1759958499625,1059974948,25417,1,0.559814453125,-0.04302978515625,-0.87481689453125
1759958499625,1059974948,25417,2,0.56591796875,-0.03839111328125,-0.81622314453125
1759958499625,1059974948,25417,3,0.552978515625,-0.05035400390625,-0.84356689453125
1759958499625,1059974948,25417,4,0.550537109375,-0.04815673828125,-0.84014892578125
1759958499625,1059974948,25417,5,0.55224609375,-0.04766845703125,-0.87481689453125
1759958499625,1059974948,25417,6,0.556884765625,-0.04034423828125,-0.87408447265625
1759958499625,1059974948,25417,7,0.54443359375,-0.04400634765625,-0.85870361328125
1759958499625,1059974948,25417,8,0.54296875,-0.04595947265625,-0.86163330078125
1759958499625,1059974948,25417,9,0.5458984375,-0.04522705078125,-0.87115478515625
1759958499625,1059974948,25417,10,0.544189453125,-0.04449462890625,-0.86553955078125
1759958499625,1059974948,25417,11,0.5478515625,-0.04107666015625,-0.85943603515625
1759958499625,1059974948,25417,12,0.549560546875,-0.04302978515625,-0.86383056640625
1759958499625,1059974948,25417,13,0.56982421875,-0.04107666015625,-0.86968994140625
1759958499625,1059974948,25417,14,0.550537109375,-0.04547119140625,-0.83380126953125
1759958499625,1059974948,25417,15,0.553955078125,-0.04620361328125,-0.85577392578125
1759958499625,1059974948,25417,16,0.546875,-0.04669189453125,-0.86871337890625
1759958499625,1059974948,25417,17,0.55126953125,-0.04644775390625,-0.86651611328125
1759958499625,1059974948,25417,18,0.5439453125,-0.04644775390625,-0.86334228515625
1759958499625,1059974948,25417,19,0.539794921875,-0.04498291015625,-0.85723876953125
1759958499625,1059974948,25417,20,0.548583984375,-0.04718017578125,-0.86309814453125
1759958499625,1059974948,25417,21,0.55322265625,-0.04620361328125,-0.86456298828125
1759958499625,1059974948,25417,22,0.54736328125,-0.04718017578125,-0.86090087890625
1759958499625,1059974948,25417,23,0.54833984375,-0.04473876953125,-0.86822509765625
1759958499625,1059974948,25417,24,0.551025390625,-0.03839111328125,-0.87091064453125
1759958499625,1059974948,25417,25,0.578369140625,-0.03521728515625,-0.84088134765625
1759958499625,1059974948,25417,26,0.55908203125,-0.03814697265625,-0.82135009765625
1759958499625,1059974948,25417,27,0.559326171875,-0.04278564453125,-0.85382080078125
1759958499625,1059974948,25417,28,0.54541015625,-0.04327392578125,-0.86041259765625
1759958499625,1059974948,25417,29,0.548095703125,-0.03985595703125,-0.89141845703125
1759958499625,1059974948,25417,30,0.539794921875,-0.04083251953125,-0.86358642578125
1759958499625,1059974948,25417,31,0.541015625,-0.03912353515625,-0.86090087890625
1759958502212,1059977515,25418,0,0.54345703125,-0.03912353515625,-0.86651611328125
1759958502212,1059977515,25418,1,0.54443359375,-0.03936767578125,-0.86846923828125
1759958502212,1059977515,25418,2,0.543212890625,-0.03668212890625,-0.86114501953125
1759958502212,1059977515,25418,3,0.544921875,-0.03668212890625,-0.87506103515625
1759958502212,1059977515,25418,4,0.58056640625,-0.02984619140625,-0.87579345703125
1759958502212,1059977515,25418,5,0.554931640625,-0.03814697265625,-0.80426025390625
1759958502212,1059977515,25418,6,0.552978515625,-0.03424072265625,-0.84088134765625
1759958502212,1059977515,25418,7,0.54736328125,-0.03863525390625,-0.86163330078125
1759958502212,1059977515,25418,8,0.548095703125,-0.03985595703125,-0.89093017578125
1759958502212,1059977515,25418,9,0.54345703125,-0.03692626953125,-0.86236572265625
1759958502212,1059977515,25418,10,0.5390625,-0.03936767578125,-0.85357666015625
1759958502212,1059977515,25418,11,0.54150390625,-0.03887939453125,-0.86602783203125
1759958502212,1059977515,25418,12,0.546875,-0.03790283203125,-0.87481689453125
1759958502212,1059977515,25418,13,0.541015625,-0.03839111328125,-0.86358642578125
1759958502212,1059977515,25418,14,0.53662109375,-0.03814697265625,-0.86798095703125
1759958502212,1059977515,25418,15,0.541259765625,-0.03326416015625,-0.87872314453125
1759958502212,1059977515,25418,16,0.576416015625,-0.02813720703125,-0.86846923828125
1759958502212,1059977515,25418,17,0.544189453125,-0.03057861328125,-0.80377197265625
1759958502212,1059977515,25418,18,0.5498046875,-0.03131103515625,-0.85137939453125
1759958502212,1059977515,25418,19,0.545654296875,-0.03717041015625,-0.85406494140625
1759958502212,1059977515,25418,20,0.543212890625,-0.03497314453125,-0.89459228515625
1759958502212,1059977515,25418,21,0.53955078125,-0.03057861328125,-0.87628173828125
1759958502212,1059977515,25418,22,0.533935546875,-0.03131103515625,-0.85943603515625
1759958502212,1059977515,25418,23,0.536865234375,-0.03350830078125,-0.86505126953125
1759958502212,1059977515,25418,24,0.54052734375,-0.03546142578125,-0.87603759765625
1759958502212,1059977515,25418,25,0.538818359375,-0.03326416015625,-0.86944580078125
1759958502212,1059977515,25418,26,0.538330078125,-0.03179931640625,-0.86798095703125
1759958502212,1059977515,25418,27,0.538818359375,-0.03106689453125,-0.86602783203125
1759958502212,1059977515,25418,28,0.55029296875,-0.02008056640625,-0.86236572265625
1759958502212,1059977515,25418,29,0.56005859375,-0.02056884765625,-0.84259033203125
1759958502212,1059977515,25418,30,0.561279296875,-0.02471923828125,-0.85479736328125
1759958502212,1059977515,25418,31,0.547119140625,-0.02789306640625,-0.85211181640625
1759958504794,1059980082,25419,0,0.545654296875,-0.02667236328125,-0.87213134765625
1759958504794,1059980082,25419,1,0.5419921875,-0.02301025390625,-0.87481689453125
1759958504794,1059980082,25419,2,0.538818359375,-0.02374267578125,-0.86846923828125
1759958504794,1059980082,25419,3,0.5400390625,-0.02545166015625,-0.86529541015625
1759958504794,1059980082,25419,4,0.542236328125,-0.02691650390625,-0.87042236328125
1759958504794,1059980082,25419,5,0.5400390625,-0.02447509765625,-0.86260986328125
1759958504794,1059980082,25419,6,0.53759765625,-0.02569580078125,-0.86651611328125
1759958504794,1059980082,25419,7,0.540283203125,-0.02325439453125,-0.87774658203125
1759958504794,1059980082,25419,8,0.55078125,-0.02032470703125,-0.87384033203125
1759958504794,1059980082,25419,9,0.561767578125,-0.01788330078125,-0.82550048828125
1759958504794,1059980082,25419,10,0.561279296875,-0.02398681640625,-0.85260009765625
1759958504794,1059980082,25419,11,0.555419921875,-0.02471923828125,-0.85308837890625
1759958504794,1059980082,25419,12,0.545166015625,-0.02764892578125,-0.85284423828125
1759958504794,1059980082,25419,13,0.54150390625,-0.02545166015625,-0.88653564453125
1759958504794,1059980082,25419,14,0.536865234375,-0.02764892578125,-0.86627197265625
1759958504794,1059980082,25419,15,0.53759765625,-0.02593994140625,-0.87286376953125
1759958504794,1059980082,25419,16,0.536376953125,-0.02520751953125,-0.86309814453125
1759958504794,1059980082,25419,17,0.53662109375,-0.02447509765625,-0.86065673828125
1759958504794,1059980082,25419,18,0.53759765625,-0.02081298828125,-0.87359619140625
1759958504794,1059980082,25419,19,0.5380859375,-0.02252197265625,-0.90240478515625
1759958504794,1059980082,25419,20,0.564208984375,-0.02545166015625,-0.82818603515625
1759958504794,1059980082,25419,21,0.562744140625,-0.03155517578125,-0.84869384765625
1759958504794,1059980082,25419,22,0.552734375,-0.03033447265625,-0.85308837890625
1759958504794,1059980082,25419,23,0.543212890625,-0.03424072265625,-0.87457275390625
1759958504794,1059980082,25419,24,0.5419921875,-0.03350830078125,-0.87652587890625
1759958504794,1059980082,25419,25,0.540283203125,-0.03326416015625,-0.86065673828125
1759958504794,1059980082,25419,26,0.539794921875,-0.03204345703125,-0.86773681640625
1759958504794,1059980082,25419,27,0.539794921875,-0.03131103515625,-0.86724853515625
1759958504794,1059980082,25419,28,0.53759765625,-0.03253173828125,-0.86016845703125
1759958504794,1059980082,25419,29,0.5400390625,-0.03033447265625,-0.87530517578125
1759958504794,1059980082,25419,30,0.551025390625,-0.02935791015625,-0.88946533203125
1759958504794,1059980082,25419,31,0.564208984375,-0.03643798828125,-0.82940673828125
1759958507380,1059982650,25420,0,0.556396484375,-0.03887939453125,-0.82867431640625
1759958507380,1059982650,25420,1,0.55419921875,-0.03204345703125,-0.85845947265625
1759958507380,1059982650,25420,2,0.54931640625,-0.04058837890625,-0.87432861328125
1759958507380,1059982650,25420,3,0.548095703125,-0.04083251953125,-0.86798095703125
1759958507380,1059982650,25420,4,0.542236328125,-0.04327392578125,-0.85382080078125
1759958507380,1059982650,25420,5,0.540283203125,-0.03912353515625,-0.87213134765625
1759958507380,1059982650,25420,6,0.5439453125,-0.03985595703125,-0.87066650390625
1759958507380,1059982650,25420,7,0.54345703125,-0.03961181640625,-0.86260986328125
1759958507380,1059982650,25420,8,0.541748046875,-0.03668212890625,-0.86700439453125
1759958507380,1059982650,25420,9,0.5400390625,-0.03594970703125,-0.88311767578125
1759958507380,1059982650,25420,10,0.573974609375,-0.03497314453125,-0.85479736328125
1759958507380,1059982650,25420,11,0.548583984375,-0.04034423828125,-0.82330322265625
1759958507380,1059982650,25420,12,0.5576171875,-0.04034423828125,-0.86138916015625
1759958507380,1059982650,25420,13,0.54345703125,-0.04327392578125,-0.85308837890625
1759958507380,1059982650,25420,14,0.54443359375,-0.04180908203125,-0.87750244140625
1759958507380,1059982650,25420,15,0.53857421875,-0.03814697265625,-0.86138916015625
1759958507380,1059982650,25420,16,0.5390625,-0.03839111328125,-0.86163330078125
1759958507380,1059982650,25420,17,0.537109375,-0.03497314453125,-0.87408447265625
1759958507380,1059982650,25420,18,0.5400390625,-0.03643798828125,-0.87237548828125
1759958507380,1059982650,25420,19,0.538330078125,-0.03521728515625,-0.86431884765625
1759958507380,1059982650,25420,20,0.5400390625,-0.03546142578125,-0.87799072265625
1759958507380,1059982650,25420,21,0.55029296875,-0.03253173828125,-0.89581298828125
1759958507380,1059982650,25420,22,0.562744140625,-0.03302001953125,-0.81671142578125
1759958507380,1059982650,25420,23,0.5595703125,-0.03594970703125,-0.84722900390625
1759958507380,1059982650,25420,24,0.548583984375,-0.03741455078125,-0.85992431640625
1759958507380,1059982650,25420,25,0.541259765625,-0.03668212890625,-0.86456298828125
1759958507380,1059982650,25420,26,0.54150390625,-0.03326416015625,-0.88726806640625
1759958507380,1059982650,25420,27,0.534423828125,-0.03497314453125,-0.86480712890625
1759958507380,1059982650,25420,28,0.537109375,-0.03399658203125,-0.86651611328125
1759958507380,1059982650,25420,29,0.538330078125,-0.03472900390625,-0.87261962890625
1759958507380,1059982650,25420,30,0.536865234375,-0.03375244140625,-0.86871337890625
1759958507380,1059982650,25420,31,0.5361328125,-0.03131103515625,-0.86676025390625
1759958509962,1059985217,25421,0,0.540771484375,-0.03033447265625,-0.88409423828125
1759958509962,1059985217,25421,1,0.567626953125,-0.02447509765625,-0.86871337890625
1759958509962,1059985217,25421,2,0.547119140625,-0.03448486328125,-0.80987548828125
1759958509962,1059985217,25421,3,0.551025390625,-0.03717041015625,-0.85382080078125
1759958509962,1059985217,25421,4,0.54541015625,-0.03692626953125,-0.86065673828125
1759958509962,1059985217,25421,5,0.543212890625,-0.03887939453125,-0.88214111328125
1759958509962,1059985217,25421,6,0.537109375,-0.03399658203125,-0.87530517578125
1759958509962,1059985217,25421,7,0.53515625,-0.03448486328125,-0.86700439453125
1759958509962,1059985217,25421,8,0.536376953125,-0.03497314453125,-0.87115478515625
1759958509962,1059985217,25421,9,0.537353515625,-0.03497314453125,-0.87164306640625
1759958509962,1059985217,25421,10,0.532470703125,-0.03399658203125,-0.86700439453125
1759958509962,1059985217,25421,11,0.535888671875,-0.03082275390625,-0.88238525390625
1759958509962,1059985217,25421,12,0.54638671875,-0.02960205078125,-0.87432861328125
1759958509962,1059985217,25421,13,0.562255859375,-0.02935791015625,-0.83990478515625
1759958509962,1059985217,25421,14,0.55712890625,-0.03985595703125,-0.83917236328125
1759958509962,1059985217,25421,15,0.560791015625,-0.03546142578125,-0.84967041015625
1759958509962,1059985217,25421,16,0.548095703125,-0.03741455078125,-0.87628173828125
1759958509962,1059985217,25421,17,0.537841796875,-0.03472900390625,-0.87017822265625
1759958509962,1059985217,25421,18,0.534912109375,-0.03619384765625,-0.86041259765625
1759958509962,1059985217,25421,19,0.5361328125,-0.03082275390625,-0.86773681640625
1759958509962,1059985217,25421,20,0.536865234375,-0.03033447265625,-0.87359619140625
1759958509962,1059985217,25421,21,0.536376953125,-0.03106689453125,-0.87603759765625
1759958509962,1059985217,25421,22,0.533447265625,-0.03155517578125,-0.86871337890625
1759958509962,1059985217,25421,23,0.538818359375,-0.02886962890625,-0.87164306640625
1759958509962,1059985217,25421,24,0.5400390625,-0.02764892578125,-0.88677978515625
1759958509962,1059985217,25421,25,0.578125,-0.02813720703125,-0.86920166015625
1759958509962,1059985217,25421,26,0.537353515625,-0.04107666015625,-0.79010009765625
1759958509962,1059985217,25421,27,0.55322265625,-0.03765869140625,-0.86822509765625
1759958509962,1059985217,25421,28,0.545166015625,-0.03717041015625,-0.86407470703125
1759958509962,1059985217,25421,29,0.536865234375,-0.03570556640625,-0.89068603515625
1759958509962,1059985217,25421,30,0.533203125,-0.03131103515625,-0.86456298828125
1759958509962,1059985217,25421,31,0.53271484375,-0.03179931640625,-0.87310791015625
1759958512348,1059987784,25422,0,0.531005859375,-0.03082275390625,-0.86968994140625
1759958512348,1059987784,25422,1,0.53466796875,-0.03009033203125,-0.87603759765625
1759958512348,1059987784,25422,2,0.52978515625,-0.03179931640625,-0.87408447265625
1759958512348,1059987784,25422,3,0.533935546875,-0.03155517578125,-0.87017822265625
1759958512348,1059987784,25422,4,0.536376953125,-0.02911376953125,-0.86944580078125
1759958512348,1059987784,25422,5,0.53857421875,-0.02789306640625,-0.87994384765625
1759958512348,1059987784,25422,6,0.56640625,-0.02691650390625,-0.87603759765625
1759958512348,1059987784,25422,7,0.54736328125,-0.03985595703125,-0.80548095703125
1759958512348,1059987784,25422,8,0.556884765625,-0.03961181640625,-0.86187744140625
1759958512348,1059987784,25422,9,0.5400390625,-0.03594970703125,-0.85430908203125
1759958512348,1059987784,25422,10,0.540283203125,-0.03350830078125,-0.89239501953125
1759958512348,1059987784,25422,11,0.534912109375,-0.03082275390625,-0.87286376953125
1759958512348,1059987784,25422,12,0.533447265625,-0.03326416015625,-0.86407470703125
1759958512348,1059987784,25422,13,0.535888671875,-0.03155517578125,-0.86993408203125
1759958512348,1059987784,25422,14,0.534912109375,-0.02960205078125,-0.87701416015625
1759958512348,1059987784,25422,15,0.532470703125,-0.03253173828125,-0.86968994140625
1759958512348,1059987784,25422,16,0.5341796875,-0.02911376953125,-0.87188720703125
1759958512348,1059987784,25422,17,0.5361328125,-0.03009033203125,-0.87261962890625
1759958512348,1059987784,25422,18,0.5390625,-0.02740478515625,-0.88262939453125
1759958512348,1059987784,25422,19,0.57080078125,-0.03375244140625,-0.84185791015625
1759958512348,1059987784,25422,20,0.54931640625,-0.04229736328125,-0.82965087890625
1759958512348,1059987784,25422,21,0.55078125,-0.03814697265625,-0.86431884765625
1759958512348,1059987784,25422,22,0.542236328125,-0.03741455078125,-0.86480712890625
1759958512348,1059987784,25422,23,0.5400390625,-0.03521728515625,-0.88604736328125
1759958512348,1059987784,25422,24,0.536865234375,-0.03155517578125,-0.86920166015625
1759958512348,1059987784,25422,25,0.5341796875,-0.03131103515625,-0.86846923828125
1759958512348,1059987784,25422,26,0.53271484375,-0.03277587890625,-0.86944580078125
1759958512348,1059987784,25422,27,0.535400390625,-0.03155517578125,-0.87677001953125
1759958512348,1059987784,25422,28,0.53076171875,-0.03155517578125,-0.86993408203125
1759958512348,1059987784,25422,29,0.53564453125,-0.02960205078125,-0.87481689453125
1759958512348,1059987784,25422,30,0.534423828125,-0.02716064453125,-0.86895751953125
1759958512348,1059987784,25422,31,0.54052734375,-0.02520751953125,-0.89361572265625
1759958514930,1059990351,25423,0,0.571044921875,-0.02984619140625,-0.84698486328125
1759958514930,1059990351,25423,1,0.548583984375,-0.03204345703125,-0.82135009765625
1759958514930,1059990351,25423,2,0.547119140625,-0.03179931640625,-0.84942626953125
1759958514930,1059990351,25423,3,0.541259765625,-0.03619384765625,-0.87457275390625
1759958514930,1059990351,25423,4,0.542724609375,-0.03228759765625,-0.88629150390625
1759958514930,1059990351,25423,5,0.533935546875,-0.03082275390625,-0.85992431640625
1759958514930,1059990351,25423,6,0.534912109375,-0.03009033203125,-0.86700439453125
1759958514930,1059990351,25423,7,0.53369140625,-0.02886962890625,-0.87335205078125
1759958514930,1059990351,25423,8,0.535400390625,-0.02911376953125,-0.87969970703125
1759958514930,1059990351,25423,9,0.531982421875,-0.02984619140625,-0.87384033203125
1759958514930,1059990351,25423,10,0.53466796875,-0.03009033203125,-0.87164306640625
1759958514930,1059990351,25423,11,0.53759765625,-0.02862548828125,-0.86676025390625
1759958514930,1059990351,25423,12,0.527587890625,-0.02471923828125,-0.88531494140625
1759958514930,1059990351,25423,13,0.5654296875,-0.02764892578125,-0.84039306640625
1759958514930,1059990351,25423,14,0.554443359375,-0.03204345703125,-0.85528564453125
1759958514930,1059990351,25423,15,0.5478515625,-0.03131103515625,-0.85919189453125
1759958514930,1059990351,25423,16,0.537109375,-0.03228759765625,-0.86260986328125
1759958514930,1059990351,25423,17,0.534423828125,-0.03009033203125,-0.87652587890625
1759958514930,1059990351,25423,18,0.534423828125,-0.02960205078125,-0.87310791015625
1759958514930,1059990351,25423,19,0.53173828125,-0.03082275390625,-0.86700439453125
1759958514930,1059990351,25423,20,0.533203125,-0.03057861328125,-0.87164306640625
1759958514930,1059990351,25423,21,0.53271484375,-0.03131103515625,-0.87432861328125
1759958514930,1059990351,25423,22,0.535400390625,-0.03033447265625,-0.87115478515625
1759958514930,1059990351,25423,23,0.533203125,-0.02813720703125,-0.87042236328125
1759958514930,1059990351,25423,24,0.53857421875,-0.02301025390625,-0.90386962890625
1759958514930,1059990351,25423,25,0.58349609375,-0.03790283203125,-0.84259033203125
1759958514930,1059990351,25423,26,0.534912109375,-0.04620361328125,-0.79547119140625
1759958514930,1059990351,25423,27,0.548828125,-0.03668212890625,-0.86431884765625
1759958514930,1059990351,25423,28,0.5458984375,-0.03790283203125,-0.86871337890625
1759958514930,1059990351,25423,29,0.541015625,-0.04034423828125,-0.87896728515625
1759958514930,1059990351,25423,30,0.53662109375,-0.03326416015625,-0.86431884765625
1759958514930,1059990351,25423,31,0.535888671875,-0.03521728515625,-0.86627197265625
1759958517513,1059992918,25424,0,0.5322265625,-0.03277587890625,-0.87579345703125
1759958517513,1059992918,25424,1,0.537109375,-0.03326416015625,-0.88360595703125
1759958517513,1059992918,25424,2,0.533447265625,-0.03155517578125,-0.87115478515625
1759958517513,1059992918,25424,3,0.537353515625,-0.02984619140625,-0.86700439453125
1759958517513,1059992918,25424,4,0.539306640625,-0.02593994140625,-0.88214111328125
1759958517513,1059992918,25424,5,0.549560546875,-0.02423095703125,-0.87628173828125
1759958517513,1059992918,25424,6,0.55078125,-0.02471923828125,-0.82110595703125
1759958517513,1059992918,25424,7,0.551025390625,-0.03253173828125,-0.85382080078125
1759958517513,1059992918,25424,8,0.546875,-0.03302001953125,-0.86871337890625
1759958517513,1059992918,25424,9,0.531494140625,-0.03424072265625,-0.87872314453125
1759958517513,1059992918,25424,10,0.53466796875,-0.03253173828125,-0.87823486328125
1759958517513,1059992918,25424,11,0.52685546875,-0.03131103515625,-0.86529541015625
1759958517513,1059992918,25424,12,0.526611328125,-0.02911376953125,-0.87359619140625
1759958517513,1059992918,25424,13,0.531005859375,-0.02935791015625,-0.87896728515625
1759958517513,1059992918,25424,14,0.527099609375,-0.02960205078125,-0.87725830078125
1759958517513,1059992918,25424,15,0.529052734375,-0.02862548828125,-0.87506103515625
1759958517513,1059992918,25424,16,0.531005859375,-0.02935791015625,-0.87432861328125
1759958517513,1059992918,25424,17,0.53759765625,-0.03033447265625,-0.88995361328125
1759958517513,1059992918,25424,18,0.564697265625,-0.02520751953125,-0.85186767578125
1759958517513,1059992918,25424,19,0.55078125,-0.04718017578125,-0.83087158203125
1759958517513,1059992918,25424,20,0.5498046875,-0.04205322265625,-0.86114501953125
1759958517513,1059992918,25424,21,0.54150390625,-0.04010009765625,-0.86651611328125
1759958517513,1059992918,25424,22,0.5390625,-0.03887939453125,-0.87432861328125
1759958517513,1059992918,25424,23,0.539306640625,-0.03546142578125,-0.86773681640625
1759958517513,1059992918,25424,24,0.53662109375,-0.03424072265625,-0.86627197265625
1759958517513,1059992918,25424,25,0.5341796875,-0.03424072265625,-0.86773681640625
1759958517513,1059992918,25424,26,0.53369140625,-0.03594970703125,-0.87139892578125
1759958517513,1059992918,25424,27,0.53271484375,-0.03399658203125,-0.87237548828125
1759958517513,1059992918,25424,28,0.5341796875,-0.03228759765625,-0.87188720703125
1759958517513,1059992918,25424,29,0.53955078125,-0.03106689453125,-0.87921142578125
1759958517513,1059992918,25424,30,0.56201171875,-0.03082275390625,-0.86138916015625
1759958517513,1059992918,25424,31,0.54833984375,-0.03570556640625,-0.82843017578125
1759958520100,1059995485,25425,0,0.550048828125,-0.03717041015625,-0.86138916015625
1759958520100,1059995485,25425,1,0.5380859375,-0.03814697265625,-0.85528564453125
1759958520100,1059995485,25425,2,0.53564453125,-0.03131103515625,-0.89898681640625
1759958520100,1059995485,25425,3,0.53076171875,-0.02862548828125,-0.87115478515625
1759958520100,1059995485,25425,4,0.529541015625,-0.03033447265625,-0.87042236328125
1759958520100,1059995485,25425,5,0.531005859375,-0.03009033203125,-0.87213134765625
1759958520100,1059995485,25425,6,0.532958984375,-0.03009033203125,-0.86944580078125
1759958520100,1059995485,25425,7,0.527099609375,-0.02960205078125,-0.87554931640625
1759958520100,1059995485,25425,8,0.532470703125,-0.03057861328125,-0.89337158203125
1759958520100,1059995485,25425,9,0.53173828125,-0.02886962890625,-0.87188720703125
1759958520100,1059995485,25425,10,0.542724609375,-0.02789306640625,-0.86798095703125
1759958520100,1059995485,25425,11,0.552978515625,-0.02764892578125,-0.84405517578125
1759958520100,1059995485,25425,12,0.5537109375,-0.03497314453125,-0.83697509765625
1759958520100,1059995485,25425,13,0.563720703125,-0.03570556640625,-0.86407470703125
1759958520100,1059995485,25425,14,0.541748046875,-0.03424072265625,-0.85186767578125
1759958520100,1059995485,25425,15,0.536376953125,-0.03033447265625,-0.87799072265625
1759958520100,1059995485,25425,16,0.539306640625,-0.03253173828125,-0.86895751953125
1759958520100,1059995485,25425,17,0.53857421875,-0.03155517578125,-0.87066650390625
1759958520100,1059995485,25425,18,0.534423828125,-0.03033447265625,-0.86920166015625
1759958520100,1059995485,25425,19,0.53857421875,-0.03204345703125,-0.87188720703125
1759958520100,1059995485,25425,20,0.53857421875,-0.02911376953125,-0.86993408203125
1759958520100,1059995485,25425,21,0.5419921875,-0.02960205078125,-0.87261962890625
1759958520100,1059995485,25425,22,0.551025390625,-0.02862548828125,-0.85919189453125
1759958520100,1059995485,25425,23,0.55908203125,-0.03350830078125,-0.83502197265625
1759958520100,1059995485,25425,24,0.55908203125,-0.03668212890625,-0.85797119140625
1759958520100,1059995485,25425,25,0.55029296875,-0.03643798828125,-0.86456298828125
1759958520100,1059995485,25425,26,0.542236328125,-0.03326416015625,-0.87066650390625
1759958520100,1059995485,25425,27,0.53955078125,-0.03106689453125,-0.87261962890625
1759958520100,1059995485,25425,28,0.538818359375,-0.03155517578125,-0.86480712890625
1759958520100,1059995485,25425,29,0.5361328125,-0.03228759765625,-0.86578369140625
1759958520100,1059995485,25425,30,0.53271484375,-0.02984619140625,-0.86846923828125
1759958520100,1059995485,25425,31,0.5390625,-0.03057861328125,-0.87066650390625
1759958522684,1059998052,25426,0,0.53466796875,-0.03106689453125,-0.86553955078125
1759958522684,1059998052,25426,1,0.53564453125,-0.02984619140625,-0.87042236328125
1759958522684,1059998052,25426,2,0.539794921875,-0.02886962890625,-0.87457275390625
1759958522684,1059998052,25426,3,0.550537109375,-0.02740478515625,-0.86553955078125
1759958522684,1059998052,25426,4,0.552734375,-0.03131103515625,-0.83282470703125
1759958522684,1059998052,25426,5,0.55322265625,-0.03326416015625,-0.86065673828125
1759958522684,1059998052,25426,6,0.549560546875,-0.03497314453125,-0.86041259765625
1759958522684,1059998052,25426,7,0.5380859375,-0.03009033203125,-0.87310791015625
1759958522684,1059998052,25426,8,0.536865234375,-0.02911376953125,-0.87261962890625
1759958522684,1059998052,25426,9,0.53466796875,-0.02862548828125,-0.86602783203125
1759958522684,1059998052,25426,10,0.535888671875,-0.02862548828125,-0.87286376953125
1759958522684,1059998052,25426,11,0.53515625,-0.02838134765625,-0.87286376953125
1759958522684,1059998052,25426,12,0.531494140625,-0.02789306640625,-0.86993408203125
1759958522684,1059998052,25426,13,0.536865234375,-0.02716064453125,-0.87701416015625
1759958522684,1059998052,25426,14,0.534912109375,-0.02349853515625,-0.88116455078125
1759958522684,1059998052,25426,15,0.5634765625,-0.02862548828125,-0.87017822265625
1759958522684,1059998052,25426,16,0.5498046875,-0.04595947265625,-0.81768798828125
1759958522684,1059998052,25426,17,0.556640625,-0.03887939453125,-0.84918212890625
1759958522684,1059998052,25426,18,0.544677734375,-0.03497314453125,-0.86627197265625
1759958522684,1059998052,25426,19,0.540283203125,-0.03424072265625,-0.87286376953125
1759958522684,1059998052,25426,20,0.53857421875,-0.03448486328125,-0.87115478515625
1759958522684,1059998052,25426,21,0.537841796875,-0.03155517578125,-0.86993408203125
1759958522684,1059998052,25426,22,0.534423828125,-0.02960205078125,-0.86920166015625
1759958522684,1059998052,25426,23,0.53564453125,-0.03009033203125,-0.87164306640625
1759958522684,1059998052,25426,24,0.53564453125,-0.03009033203125,-0.87896728515625
1759958522684,1059998052,25426,25,0.537109375,-0.03106689453125,-0.86968994140625
1759958522684,1059998052,25426,26,0.5419921875,-0.03009033203125,-0.86773681640625
1759958522684,1059998052,25426,27,0.5439453125,-0.02813720703125,-0.87261962890625
1759958522684,1059998052,25426,28,0.554931640625,-0.03302001953125,-0.84234619140625
1759958522684,1059998052,25426,29,0.552490234375,-0.03302001953125,-0.85479736328125
1759958522684,1059998052,25426,30,0.547119140625,-0.03326416015625,-0.85528564453125
1759958522684,1059998052,25426,31,0.5390625,-0.03765869140625,-0.87628173828125
1759958525465,1060000619,25427,0,0.538330078125,-0.03131103515625,-0.87115478515625
1759958525465,1060000619,25427,1,0.537353515625,-0.03326416015625,-0.86309814453125
1759958525465,1060000619,25427,2,0.5380859375,-0.03155517578125,-0.87139892578125
1759958525465,1060000619,25427,3,0.53515625,-0.03057861328125,-0.87017822265625
1759958525465,1060000619,25427,4,0.53564453125,-0.03106689453125,-0.87310791015625
1759958525465,1060000619,25427,5,0.534423828125,-0.03057861328125,-0.86920166015625
1759958525465,1060000619,25427,6,0.53564453125,-0.03131103515625,-0.86968994140625
1759958525465,1060000619,25427,7,0.537841796875,-0.02838134765625,-0.87335205078125
1759958525465,1060000619,25427,8,0.548583984375,-0.02813720703125,-0.86944580078125
1759958525465,1060000619,25427,9,0.548583984375,-0.03961181640625,-0.84527587890625
1759958525465,1060000619,25427,10,0.555908203125,-0.04083251953125,-0.85797119140625
1759958525465,1060000619,25427,11,0.54833984375,-0.04107666015625,-0.85552978515625
1759958525465,1060000619,25427,12,0.53857421875,-0.03887939453125,-0.87237548828125
1759958525465,1060000619,25427,13,0.5380859375,-0.03399658203125,-0.87896728515625
1759958525465,1060000619,25427,14,0.53662109375,-0.03350830078125,-0.86724853515625
1759958525465,1060000619,25427,15,0.537841796875,-0.03570556640625,-0.86309814453125
1759958525465,1060000619,25427,16,0.5390625,-0.03277587890625,-0.87286376953125
1759958525465,1060000619,25427,17,0.537109375,-0.03228759765625,-0.87139892578125
1759958525465,1060000619,25427,18,0.53662109375,-0.03326416015625,-0.86944580078125
1759958525465,1060000619,25427,19,0.54150390625,-0.03082275390625,-0.87115478515625
1759958525465,1060000619,25427,20,0.5478515625,-0.02886962890625,-0.88848876953125
1759958525465,1060000619,25427,21,0.5634765625,-0.04132080078125,-0.81475830078125
1759958525465,1060000619,25427,22,0.5556640625,-0.04571533203125,-0.84796142578125
1759958525465,1060000619,25427,23,0.54931640625,-0.04254150390625,-0.85723876953125
