receivedPhoneTimestamp,respeckTimestamp,packetSeqNum,sampleSeqNum,accelX,accelY,accelZ
1759329409734,424833199,6972,16,0.645263671875,-0.10699462890625,0.67205810546875
1759329409734,424833199,6972,17,0.65966796875,-0.08966064453125,0.65789794921875
1759329409734,424833199,6972,18,0.685791015625,-0.05255126953125,0.64666748046875
1759329409734,424833199,6972,19,0.753173828125,-0.03057861328125,0.60516357421875
1759329409734,424833199,6972,20,0.60791015625,0.00262451171875,0.66619873046875
1759329409734,424833199,6972,21,0.76806640625,0.00262451171875,0.60955810546875
1759329409734,424833199,6972,22,0.675048828125,0.03411865234375,0.61322021484375
1759329409734,424833199,6972,23,0.73974609375,0.01312255859375,0.60687255859375
1759329409734,424833199,6972,24,0.72412109375,0.00531005859375,0.61346435546875
1759329409734,424833199,6972,25,0.7275390625,0.01947021484375,0.59002685546875
1759329409734,424833199,6972,26,0.697998046875,0.04217529296875,0.63958740234375
1759329409734,424833199,6972,27,0.600341796875,0.00775146484375,0.65789794921875
1759329409734,424833199,6972,28,0.688232421875,0.05731201171875,0.63446044921875
1759329409734,424833199,6972,29,0.59423828125,-0.00787353515625,0.65618896484375
1759329409734,424833199,6972,30,0.67138671875,-0.00787353515625,0.73089599609375
1759329409734,424833199,6972,31,0.65673828125,-0.05328369140625,0.73504638671875
1759329412281,424835742,6973,0,0.661376953125,-0.08599853515625,0.69403076171875
1759329412281,424835742,6973,1,0.683837890625,-0.10308837890625,0.67449951171875
1759329412281,424835742,6973,2,0.66357421875,-0.03497314453125,0.69378662109375
1759329412281,424835742,6973,3,0.639892578125,-0.00445556640625,0.65057373046875
1759329412281,424835742,6973,4,0.669921875,0.00726318359375,0.64422607421875
1759329412281,424835742,6973,5,0.653564453125,0.00604248046875,0.68182373046875
1759329412281,424835742,6973,6,0.58984375,-0.00128173828125,0.67596435546875
1759329412281,424835742,6973,7,0.7265625,0.03240966796875,0.66448974609375
1759329412281,424835742,6973,8,0.67919921875,-0.00323486328125,0.65496826171875
1759329412281,424835742,6973,9,0.618896484375,-0.00811767578125,0.63201904296875
1759329412281,424835742,6973,10,0.65380859375,0.06414794921875,0.69036865234375
1759329412281,424835742,6973,11,0.620849609375,0.00433349609375,0.66766357421875
1759329412281,424835742,6973,12,0.659912109375,-0.05987548828125,0.64886474609375
1759329412281,424835742,6973,13,0.70166015625,-0.08160400390625,0.73724365234375
1759329412281,424835742,6973,14,0.65234375,-0.10455322265625,0.71136474609375
1759329412281,424835742,6973,15,0.6318359375,-0.12042236328125,0.66204833984375
1759329412281,424835742,6973,16,0.651123046875,-0.12310791015625,0.68475341796875
1759329412281,424835742,6973,17,0.650634765625,-0.12628173828125,0.68035888671875
1759329412281,424835742,6973,18,0.63232421875,-0.12677001953125,0.67889404296875
1759329412281,424835742,6973,19,0.633544921875,-0.11993408203125,0.68743896484375
1759329412281,424835742,6973,20,0.63623046875,-0.13165283203125,0.69891357421875
1759329412281,424835742,6973,21,0.62939453125,-0.11114501953125,0.68719482421875
1759329412281,424835742,6973,22,0.64404296875,-0.10748291015625,0.67279052734375
1759329412281,424835742,6973,23,0.646728515625,-0.09552001953125,0.69061279296875
1759329412281,424835742,6973,24,0.666748046875,-0.04669189453125,0.66229248046875
1759329412281,424835742,6973,25,0.645751953125,0.00726318359375,0.67010498046875
1759329412281,424835742,6973,26,0.697021484375,0.03729248046875,0.64276123046875
1759329412281,424835742,6973,27,0.650390625,0.00579833984375,0.69232177734375
1759329412281,424835742,6973,28,0.612548828125,0.01800537109375,0.66497802734375
1759329412281,424835742,6973,29,0.745361328125,0.02288818359375,0.67156982421875
1759329412281,424835742,6973,30,0.663818359375,0.00726318359375,0.62371826171875
1759329412281,424835742,6973,31,0.71826171875,-0.00128173828125,0.63958740234375
1759329414833,424838285,6974,0,0.57373046875,0.04437255859375,0.67694091796875
1759329414833,424838285,6974,1,0.618896484375,0.05364990234375,0.65130615234375
1759329414833,424838285,6974,2,0.635498046875,-0.06915283203125,0.71722412109375
1759329414833,424838285,6974,3,0.68505859375,-0.06768798828125,0.71966552734375
1759329414833,424838285,6974,4,0.64208984375,-0.10235595703125,0.72821044921875
1759329414833,424838285,6974,5,0.607177734375,-0.12115478515625,0.70648193359375
1759329414833,424838285,6974,6,0.625732421875,-0.11578369140625,0.68597412109375
1759329414833,424838285,6974,7,0.633544921875,-0.11236572265625,0.69134521484375
1759329414833,424838285,6974,8,0.613525390625,-0.09625244140625,0.66888427734375
1759329414833,424838285,6974,9,0.68115234375,-0.12261962890625,0.76580810546875
1759329414833,424838285,6974,10,0.68701171875,-0.00201416015625,0.63372802734375
1759329414833,424838285,6974,11,0.60400390625,0.03363037109375,0.73211669921875
1759329414833,424838285,6974,12,0.580078125,-0.07940673828125,0.68133544921875
1759329414833,424838285,6974,13,0.534423828125,0.01824951171875,0.69110107421875
1759329414833,424838285,6974,14,0.69140625,-0.03619384765625,0.74139404296875
1759329414833,424838285,6974,15,0.599853515625,-0.13824462890625,0.73944091796875
1759329414833,424838285,6974,16,0.639892578125,-0.10479736328125,0.72137451171875
1759329414833,424838285,6974,17,0.614990234375,-0.13018798828125,0.71453857421875
1759329414833,424838285,6974,18,0.620361328125,-0.11114501953125,0.68377685546875
1759329414833,424838285,6974,19,0.632080078125,-0.12091064453125,0.70452880859375
1759329414833,424838285,6974,20,0.61376953125,-0.10845947265625,0.69403076171875
1759329414833,424838285,6974,21,0.628662109375,-0.12969970703125,0.71258544921875
1759329414833,424838285,6974,22,0.724609375,-0.05108642578125,0.65472412109375
1759329414833,424838285,6974,23,0.546142578125,-0.00640869140625,0.66278076171875
1759329414833,424838285,6974,24,0.71240234375,-0.02056884765625,0.68206787109375
1759329414833,424838285,6974,25,0.619140625,-0.00274658203125,0.69891357421875
1759329414833,424838285,6974,26,0.490234375,-0.02447509765625,0.66058349609375
1759329414833,424838285,6974,27,0.73193359375,-0.06500244140625,0.73382568359375
1759329414833,424838285,6974,28,0.6513671875,-0.15216064453125,0.74652099609375
1759329414833,424838285,6974,29,0.621826171875,-0.10845947265625,0.69989013671875
1759329414833,424838285,6974,30,0.611572265625,-0.12310791015625,0.69915771484375
1759329414833,424838285,6974,31,0.634521484375,-0.11065673828125,0.69769287109375
1759329417234,424840828,6975,0,0.613525390625,-0.11505126953125,0.68939208984375
1759329417234,424840828,6975,1,0.63134765625,-0.12408447265625,0.69085693359375
1759329417234,424840828,6975,2,0.716064453125,-0.10186767578125,0.73675537109375
1759329417234,424840828,6975,3,0.60888671875,0.04437255859375,0.64080810546875
1759329417234,424840828,6975,4,0.65185546875,-0.04766845703125,0.66448974609375
1759329417234,424840828,6975,5,0.638427734375,-0.00640869140625,0.68157958984375
1759329417234,424840828,6975,6,0.548583984375,0.02825927734375,0.62322998046875
1759329417234,424840828,6975,7,0.73291015625,-0.10430908203125,0.70111083984375
1759329417234,424840828,6975,8,0.68212890625,-0.09649658203125,0.72503662109375
1759329417234,424840828,6975,9,0.62939453125,-0.12066650390625,0.70770263671875
1759329417234,424840828,6975,10,0.62451171875,-0.12774658203125,0.69500732421875
1759329417234,424840828,6975,11,0.63671875,-0.11993408203125,0.68572998046875
1759329417234,424840828,6975,12,0.61767578125,-0.11334228515625,0.68768310546875
1759329417234,424840828,6975,13,0.6484375,-0.10186767578125,0.69036865234375
1759329417234,424840828,6975,14,0.726318359375,-0.09429931640625,0.66253662109375
1759329417234,424840828,6975,15,0.627685546875,0.02679443359375,0.67352294921875
1759329417234,424840828,6975,16,0.700439453125,-0.04107666015625,0.63616943359375
1759329417234,424840828,6975,17,0.614990234375,0.00408935546875,0.68499755859375
1759329417234,424840828,6975,18,0.56640625,0.02801513671875,0.61029052734375
1759329417234,424840828,6975,19,0.705810546875,-0.11212158203125,0.71136474609375
1759329417234,424840828,6975,20,0.707275390625,-0.10284423828125,0.71893310546875
1759329417234,424840828,6975,21,0.628662109375,-0.14117431640625,0.69696044921875
1759329417234,424840828,6975,22,0.643310546875,-0.12481689453125,0.67108154296875
1759329417234,424840828,6975,23,0.648681640625,-0.12457275390625,0.68865966796875
1759329417234,424840828,6975,24,0.633056640625,-0.12432861328125,0.68280029296875
1759329417234,424840828,6975,25,0.63525390625,-0.11602783203125,0.67669677734375
1759329417234,424840828,6975,26,0.649658203125,-0.11456298828125,0.67596435546875
1759329417234,424840828,6975,27,0.725830078125,-0.11822509765625,0.73040771484375
1759329417234,424840828,6975,28,0.62255859375,0.01995849609375,0.59271240234375
1759329417234,424840828,6975,29,0.611572265625,-0.05987548828125,0.70208740234375
1759329417234,424840828,6975,30,0.623291015625,0.00311279296875,0.71380615234375
1759329417234,424840828,6975,31,0.634521484375,-0.00469970703125,0.68231201171875
1759329419784,424843371,6976,0,0.74609375,-0.02716064453125,0.64520263671875
1759329419784,424843371,6976,1,0.61083984375,-0.02569580078125,0.67572021484375
1759329419784,424843371,6976,2,0.546875,-0.00347900390625,0.70111083984375
1759329419784,424843371,6976,3,0.707275390625,0.03192138671875,0.69207763671875
1759329419784,424843371,6976,4,0.6123046875,-0.07574462890625,0.66107177734375
1759329419784,424843371,6976,5,0.69775390625,-0.05548095703125,0.72894287109375
1759329419784,424843371,6976,6,0.68310546875,-0.03936767578125,0.75579833984375
1759329419784,424843371,6976,7,0.613525390625,0.02435302734375,0.60443115234375
1759329419784,424843371,6976,8,0.644775390625,0.03485107421875,0.69549560546875
1759329419784,424843371,6976,9,0.681396484375,0.00164794921875,0.67474365234375
1759329419784,424843371,6976,10,0.610107421875,0.00286865234375,0.68231201171875
1759329419784,424843371,6976,11,0.65576171875,-0.00567626953125,0.67010498046875
1759329419784,424843371,6976,12,0.593505859375,-0.01080322265625,0.67645263671875
1759329419784,424843371,6976,13,0.66015625,-0.05401611328125,0.70843505859375
1759329419784,424843371,6976,14,0.64599609375,-0.08087158203125,0.71893310546875
1759329419784,424843371,6976,15,0.633544921875,-0.08868408203125,0.70086669921875
1759329419784,424843371,6976,16,0.673095703125,-0.09991455078125,0.72235107421875
1759329419784,424843371,6976,17,0.641845703125,-0.07110595703125,0.71014404296875
1759329419784,424843371,6976,18,0.661865234375,0.02410888671875,0.68280029296875
1759329419784,424843371,6976,19,0.572998046875,0.05487060546875,0.69378662109375
1759329419784,424843371,6976,20,0.658203125,-0.02667236328125,0.66522216796875
1759329419784,424843371,6976,21,0.623779296875,0.02215576171875,0.69134521484375
1759329419784,424843371,6976,22,0.624755859375,0.01507568359375,0.68768310546875
1759329419784,424843371,6976,23,0.773681640625,0.05828857421875,0.65399169921875
1759329419784,424843371,6976,24,0.58154296875,-0.00347900390625,0.66131591796875
1759329419784,424843371,6976,25,0.638671875,0.04852294921875,0.68475341796875
1759329419784,424843371,6976,26,0.634765625,0.07196044921875,0.67816162109375
1759329419784,424843371,6976,27,0.620361328125,-0.02838134765625,0.65228271484375
1759329419784,424843371,6976,28,0.67529296875,-0.02911376953125,0.71893310546875
1759329419784,424843371,6976,29,0.68603515625,-0.10504150390625,0.72088623046875
1759329419784,424843371,6976,30,0.646728515625,-0.10382080078125,0.66204833984375
1759329419784,424843371,6976,31,0.666259765625,-0.13385009765625,0.66229248046875
1759329422333,424845914,6977,0,0.6572265625,-0.13653564453125,0.65960693359375
1759329422333,424845914,6977,1,0.656982421875,-0.14166259765625,0.67889404296875
1759329422333,424845914,6977,2,0.658447265625,-0.13287353515625,0.67010498046875
1759329422333,424845914,6977,3,0.66357421875,-0.09796142578125,0.65887451171875
1759329422333,424845914,6977,4,0.616943359375,-0.01983642578125,0.68890380859375
1759329422333,424845914,6977,5,0.681640625,-0.02911376953125,0.65155029296875
1759329422333,424845914,6977,6,0.670166015625,-0.00592041015625,0.68231201171875
1759329422333,424845914,6977,7,0.724365234375,-0.00372314453125,0.62225341796875
1759329422333,424845914,6977,8,0.690673828125,0.00238037109375,0.62298583984375
1759329422333,424845914,6977,9,0.73095703125,0.02142333984375,0.60345458984375
1759329422333,424845914,6977,10,0.6943359375,0.00433349609375,0.60662841796875
1759329422333,424845914,6977,11,0.72412109375,0.04046630859375,0.64300537109375
1759329422333,424845914,6977,12,0.64404296875,0.00604248046875,0.65838623046875
1759329422333,424845914,6977,13,0.68798828125,0.01043701171875,0.64422607421875
1759329422333,424845914,6977,14,0.764404296875,0.03948974609375,0.67303466796875
1759329422333,424845914,6977,15,0.49951171875,-0.01910400390625,0.66009521484375
1759329422333,424845914,6977,16,0.577880859375,0.02264404296875,0.67059326171875
1759329422333,424845914,6977,17,0.66064453125,0.00311279296875,0.74163818359375
1759329422333,424845914,6977,18,0.69189453125,-0.10162353515625,0.70233154296875
1759329422333,424845914,6977,19,0.644287109375,-0.07110595703125,0.68084716796875
1759329422333,424845914,6977,20,0.7021484375,-0.11138916015625,0.73504638671875
1759329422333,424845914,6977,21,0.7021484375,0.01995849609375,0.64910888671875
1759329422333,424845914,6977,22,0.59033203125,0.02801513671875,0.61737060546875
1759329422333,424845914,6977,23,0.70263671875,-0.04229736328125,0.63714599609375
1759329422333,424845914,6977,24,0.642578125,0.00921630859375,0.64105224609375
1759329422333,424845914,6977,25,0.705078125,-0.04400634765625,0.64520263671875
1759329422333,424845914,6977,26,0.71044921875,-0.05206298828125,0.70428466796875
1759329422333,424845914,6977,27,0.708984375,0.01531982421875,0.66619873046875
1759329422333,424845914,6977,28,0.628662109375,0.01727294921875,0.62860107421875
1759329422333,424845914,6977,29,0.689453125,-0.00640869140625,0.63568115234375
1759329422333,424845914,6977,30,0.68798828125,0.02850341796875,0.64105224609375
1759329422333,424845914,6977,31,0.656494140625,0.00067138671875,0.64642333984375
1759329424883,424848457,6978,0,0.67724609375,0.02093505859375,0.65252685546875
1759329424883,424848457,6978,1,0.657470703125,-0.00640869140625,0.66912841796875
1759329424883,424848457,6978,2,0.669921875,-0.01495361328125,0.66278076171875
1759329424883,424848457,6978,3,0.64990234375,-0.03033447265625,0.65789794921875
1759329424883,424848457,6978,4,0.684814453125,-0.05328369140625,0.68841552734375
1759329424883,424848457,6978,5,0.669189453125,-0.04644775390625,0.67694091796875
1759329424883,424848457,6978,6,0.64990234375,-0.03839111328125,0.67352294921875
1759329424883,424848457,6978,7,0.65625,-0.04547119140625,0.68719482421875
1759329424883,424848457,6978,8,0.655029296875,-0.04034423828125,0.66326904296875
1759329424883,424848457,6978,9,0.677001953125,-0.03887939453125,0.67181396484375
1759329424883,424848457,6978,10,0.685302734375,0.01800537109375,0.70574951171875
1759329424883,424848457,6978,11,0.658447265625,0.03143310546875,0.63055419921875
1759329424883,424848457,6978,12,0.661865234375,0.00531005859375,0.64080810546875
1759329424883,424848457,6978,13,0.6845703125,0.02874755859375,0.66815185546875
1759329424883,424848457,6978,14,0.628662109375,0.02386474609375,0.65179443359375
1759329424883,424848457,6978,15,0.623046875,-0.00738525390625,0.67572021484375
1759329424883,424848457,6978,16,0.654541015625,-0.02618408203125,0.68133544921875
1759329424883,424848457,6978,17,0.676513671875,-0.06036376953125,0.69744873046875
1759329424883,424848457,6978,18,0.652099609375,-0.06646728515625,0.67083740234375
1759329424883,424848457,6978,19,0.67333984375,-0.06573486328125,0.69158935546875
1759329424883,424848457,6978,20,0.675537109375,-0.08184814453125,0.70672607421875
1759329424883,424848457,6978,21,0.7021484375,-0.02886962890625,0.70477294921875
1759329424883,424848457,6978,22,0.653076171875,0.01751708984375,0.55267333984375
1759329424883,424848457,6978,23,0.643310546875,-0.00616455078125,0.64569091796875
1759329424883,424848457,6978,24,0.7236328125,0.00750732421875,0.64373779296875
1759329424883,424848457,6978,25,0.72265625,0.02264404296875,0.60833740234375
1759329424883,424848457,6978,26,0.7001953125,0.00555419921875,0.62469482421875
1759329424883,424848457,6978,27,0.683837890625,0.00091552734375,0.62420654296875
1759329424883,424848457,6978,28,0.68408203125,0.01849365234375,0.63177490234375
1759329424883,424848457,6978,29,0.689453125,-0.01495361328125,0.62591552734375
1759329424883,424848457,6978,30,0.6923828125,-0.04107666015625,0.65496826171875
1759329424883,424848457,6978,31,0.719970703125,-0.04351806640625,0.63299560546875
1759329427584,424851000,6979,0,0.664794921875,-0.06060791015625,0.63690185546875
1759329427584,424851000,6979,1,0.708251953125,-0.07623291015625,0.66595458984375
1759329427584,424851000,6979,2,0.7099609375,-0.10064697265625,0.66448974609375
1759329427584,424851000,6979,3,0.665283203125,-0.04888916015625,0.70135498046875
1759329427584,424851000,6979,4,0.715576171875,0.05169677734375,0.59222412109375
1759329427584,424851000,6979,5,0.62451171875,-0.02789306640625,0.62591552734375
1759329427584,424851000,6979,6,0.693603515625,0.01385498046875,0.66424560546875
1759329427584,424851000,6979,7,0.61083984375,0.01629638671875,0.65252685546875
1759329427584,424851000,6979,8,0.69091796875,-0.02447509765625,0.65106201171875
1759329427584,424851000,6979,9,0.63525390625,-0.03399658203125,0.67694091796875
1759329427584,424851000,6979,10,0.662841796875,-0.05450439453125,0.71795654296875
1759329427584,424851000,6979,11,0.65478515625,-0.09893798828125,0.70550537109375
1759329427584,424851000,6979,12,0.66259765625,-0.10113525390625,0.65521240234375
1759329427584,424851000,6979,13,0.652099609375,-0.11309814453125,0.68035888671875
1759329427584,424851000,6979,14,0.658935546875,-0.11553955078125,0.68939208984375
1759329427584,424851000,6979,15,0.685546875,-0.09576416015625,0.73529052734375
1759329427584,424851000,6979,16,0.72607421875,0.02996826171875,0.55438232421875
1759329427584,424851000,6979,17,0.60498046875,-0.01177978515625,0.65350341796875
1759329427584,424851000,6979,18,0.682373046875,-0.00836181640625,0.64813232421875
1759329427584,424851000,6979,19,0.632080078125,0.02728271484375,0.66058349609375
1759329427584,424851000,6979,20,0.647216796875,0.00897216796875,0.63714599609375
1759329427584,424851000,6979,21,0.683837890625,-0.05767822265625,0.67596435546875
1759329427584,424851000,6979,22,0.652587890625,-0.06182861328125,0.70257568359375
1759329427584,424851000,6979,23,0.662109375,-0.06573486328125,0.71795654296875
1759329427584,424851000,6979,24,0.64404296875,-0.08062744140625,0.67401123046875
1759329427584,424851000,6979,25,0.6484375,-0.10284423828125,0.69061279296875
1759329427584,424851000,6979,26,0.640380859375,-0.10650634765625,0.69036865234375
1759329427584,424851000,6979,27,0.637939453125,-0.10430908203125,0.69061279296875
1759329427584,424851000,6979,28,0.63623046875,-0.10308837890625,0.69403076171875
1759329427584,424851000,6979,29,0.699951171875,-0.07916259765625,0.72772216796875
1759329427584,424851000,6979,30,0.661865234375,-0.03155517578125,0.61590576171875
1759329427584,424851000,6979,31,0.6494140625,0.01727294921875,0.63446044921875
1759329429983,424853543,6980,0,0.65576171875,-0.00982666015625,0.68206787109375
1759329429983,424853543,6980,1,0.6650390625,-0.00469970703125,0.66717529296875
1759329429983,424853543,6980,2,0.651123046875,0.02996826171875,0.64447021484375
1759329429983,424853543,6980,3,0.718994140625,-0.01837158203125,0.67254638671875
1759329429983,424853543,6980,4,0.593017578125,-0.01983642578125,0.65911865234375
1759329429983,424853543,6980,5,0.6181640625,0.05511474609375,0.67156982421875
1759329429983,424853543,6980,6,0.6962890625,-0.04132080078125,0.70233154296875
1759329429983,424853543,6980,7,0.635498046875,-0.06353759765625,0.66424560546875
1759329429983,424853543,6980,8,0.676025390625,-0.08673095703125,0.72259521484375
1759329429983,424853543,6980,9,0.63134765625,-0.09527587890625,0.69647216796875
1759329429983,424853543,6980,10,0.628173828125,-0.09747314453125,0.69134521484375
1759329429983,424853543,6980,11,0.63916015625,-0.09283447265625,0.69793701171875
1759329429983,424853543,6980,12,0.63232421875,-0.09649658203125,0.69915771484375
1759329429983,424853543,6980,13,0.632568359375,-0.09039306640625,0.69940185546875
1759329429983,424853543,6980,14,0.6513671875,-0.08526611328125,0.69305419921875
1759329429983,424853543,6980,15,0.6494140625,-0.06695556640625,0.74554443359375
1759329429983,424853543,6980,16,0.735107421875,0.04559326171875,0.58978271484375
1759329429983,424853543,6980,17,0.554443359375,-0.02471923828125,0.65081787109375
1759329429983,424853543,6980,18,0.688720703125,0.03558349609375,0.66668701171875
1759329429983,424853543,6980,19,0.648681640625,0.02801513671875,0.68499755859375
1759329429983,424853543,6980,20,0.637939453125,0.02435302734375,0.66278076171875
1759329429983,424853543,6980,21,0.755126953125,0.01995849609375,0.63006591796875
1759329429983,424853543,6980,22,0.656494140625,0.03314208984375,0.63909912109375
1759329429983,424853543,6980,23,0.61767578125,0.04486083984375,0.66424560546875
1759329429983,424853543,6980,24,0.634765625,0.08148193359375,0.67474365234375
1759329429983,424853543,6980,25,0.666015625,-0.02056884765625,0.63861083984375
1759329429983,424853543,6980,26,0.65966796875,-0.01739501953125,0.68890380859375
1759329429983,424853543,6980,27,0.665771484375,-0.04351806640625,0.72747802734375
1759329429983,424853543,6980,28,0.639404296875,-0.07672119140625,0.68353271484375
1759329429983,424853543,6980,29,0.642333984375,-0.11114501953125,0.68817138671875
1759329429983,424853543,6980,30,0.6484375,-0.10894775390625,0.68841552734375
1759329429983,424853543,6980,31,0.642578125,-0.12408447265625,0.68963623046875
1759329432534,424856086,6981,0,0.637451171875,-0.10772705078125,0.68841552734375
1759329432534,424856086,6981,1,0.634765625,-0.11480712890625,0.68841552734375
1759329432534,424856086,6981,2,0.636474609375,-0.12310791015625,0.70355224609375
1759329432534,424856086,6981,3,0.63330078125,-0.11383056640625,0.69915771484375
1759329432534,424856086,6981,4,0.629150390625,-0.11700439453125,0.68768310546875
1759329432534,424856086,6981,5,0.758056640625,-0.11749267578125,0.67474365234375
1759329432534,424856086,6981,6,0.6025390625,0.05584716796875,0.61517333984375
1759329432534,424856086,6981,7,0.64111328125,-0.06427001953125,0.68353271484375
1759329432534,424856086,6981,8,0.64892578125,-0.00933837890625,0.69500732421875
1759329432534,424856086,6981,9,0.559814453125,-0.01788330078125,0.65594482421875
1759329432534,424856086,6981,10,0.71435546875,-0.01641845703125,0.67181396484375
1759329432534,424856086,6981,11,0.643310546875,-0.13433837890625,0.71575927734375
1759329432534,424856086,6981,12,0.657958984375,-0.09332275390625,0.70428466796875
1759329432534,424856086,6981,13,0.647216796875,-0.11456298828125,0.69012451171875
1759329432534,424856086,6981,14,0.660888671875,-0.13409423828125,0.66912841796875
1759329432534,424856086,6981,15,0.6240234375,-0.11749267578125,0.67938232421875
1759329432534,424856086,6981,16,0.6396484375,-0.09429931640625,0.71673583984375
1759329432534,424856086,6981,17,0.650634765625,-0.02838134765625,0.70281982421875
1759329432534,424856086,6981,18,0.624755859375,-0.00543212890625,0.65081787109375
1759329432534,424856086,6981,19,0.665771484375,-0.02716064453125,0.68060302734375
1759329432534,424856086,6981,20,0.650634765625,-0.00201416015625,0.67913818359375
1759329432534,424856086,6981,21,0.610595703125,-0.03570556640625,0.66619873046875
1759329432534,424856086,6981,22,0.798828125,0.00994873046875,0.63787841796875
1759329432534,424856086,6981,23,0.60546875,-0.02789306640625,0.69085693359375
1759329432534,424856086,6981,24,0.657958984375,-0.01959228515625,0.64129638671875
1759329432534,424856086,6981,25,0.590576171875,-0.01397705078125,0.64666748046875
1759329432534,424856086,6981,26,0.689453125,-0.06549072265625,0.68963623046875
1759329432534,424856086,6981,27,0.66943359375,-0.09552001953125,0.71771240234375
1759329432534,424856086,6981,28,0.6689453125,-0.11700439453125,0.69232177734375
1759329432534,424856086,6981,29,0.641357421875,-0.11993408203125,0.67279052734375
1759329432534,424856086,6981,30,0.647216796875,-0.13262939453125,0.67425537109375
1759329432534,424856086,6981,31,0.66162109375,-0.13214111328125,0.67352294921875
1759329435232,424858629,6982,0,0.645751953125,-0.14263916015625,0.67205810546875
1759329435232,424858629,6982,1,0.634033203125,-0.12408447265625,0.67156982421875
1759329435232,424858629,6982,2,0.639892578125,-0.12994384765625,0.68011474609375
1759329435232,424858629,6982,3,0.71435546875,-0.13848876953125,0.73089599609375
1759329435232,424858629,6982,4,0.682861328125,-0.04229736328125,0.60931396484375
1759329435232,424858629,6982,5,0.607666015625,-0.01055908203125,0.64080810546875
1759329435232,424858629,6982,6,0.645263671875,-0.03961181640625,0.69158935546875
1759329435232,424858629,6982,7,0.656005859375,0.00628662109375,0.66595458984375
1759329435232,424858629,6982,8,0.666259765625,-0.05474853515625,0.67987060546875
1759329435232,424858629,6982,9,0.739013671875,-0.00225830078125,0.64007568359375
1759329435232,424858629,6982,10,0.625,0.00677490234375,0.66033935546875
1759329435232,424858629,6982,11,0.635009765625,-0.01397705078125,0.67401123046875
1759329435232,424858629,6982,12,0.607177734375,0.01190185546875,0.62933349609375
1759329435232,424858629,6982,13,0.698486328125,-0.07574462890625,0.70257568359375
1759329435232,424858629,6982,14,0.68017578125,-0.10430908203125,0.71527099609375
1759329435232,424858629,6982,15,0.645751953125,-0.10626220703125,0.67205810546875
1759329435232,424858629,6982,16,0.65283203125,-0.12115478515625,0.69305419921875
1759329435232,424858629,6982,17,0.680419921875,-0.11309814453125,0.71551513671875
1759329435232,424858629,6982,18,0.703857421875,0.00091552734375,0.64935302734375
1759329435232,424858629,6982,19,0.552978515625,0.02459716796875,0.62786865234375
1759329435232,424858629,6982,20,0.70458984375,-0.02130126953125,0.68109130859375
1759329435232,424858629,6982,21,0.613525390625,0.00970458984375,0.67083740234375
1759329435232,424858629,6982,22,0.664794921875,-0.05059814453125,0.65277099609375
1759329435232,424858629,6982,23,0.66552734375,-0.08111572265625,0.69500732421875
1759329435232,424858629,6982,24,0.649658203125,-0.06597900390625,0.68743896484375
1759329435232,424858629,6982,25,0.6416015625,-0.09259033203125,0.68865966796875
1759329435232,424858629,6982,26,0.649169921875,-0.11529541015625,0.68695068359375
1759329435232,424858629,6982,27,0.661376953125,-0.11285400390625,0.68402099609375
1759329435232,424858629,6982,28,0.660400390625,-0.11846923828125,0.70526123046875
1759329435232,424858629,6982,29,0.6875,-0.08380126953125,0.70794677734375
1759329435232,424858629,6982,30,0.578857421875,0.07244873046875,0.61737060546875
1759329435232,424858629,6982,31,0.681396484375,-0.02545166015625,0.69134521484375
1759329437632,424861173,6983,0,0.69140625,0.00726318359375,0.64886474609375
1759329437632,424861173,6983,1,0.652099609375,0.01239013671875,0.64813232421875
1759329437632,424861173,6983,2,0.670654296875,-0.00152587890625,0.64544677734375
1759329437632,424861173,6983,3,0.66162109375,0.01654052734375,0.64373779296875
1759329437632,424861173,6983,4,0.6533203125,-0.02593994140625,0.66644287109375
1759329437632,424861173,6983,5,0.674072265625,-0.03619384765625,0.66619873046875
1759329437632,424861173,6983,6,0.678466796875,-0.05548095703125,0.66400146484375
1759329437632,424861173,6983,7,0.6572265625,-0.06817626953125,0.67620849609375
1759329437632,424861173,6983,8,0.679443359375,-0.08135986328125,0.68621826171875
1759329437632,424861173,6983,9,0.650146484375,-0.09771728515625,0.68524169921875
1759329437632,424861173,6983,10,0.64794921875,-0.10089111328125,0.68890380859375
1759329437632,424861173,6983,11,0.6396484375,-0.10968017578125,0.69281005859375
1759329437632,424861173,6983,12,0.623291015625,-0.10040283203125,0.69549560546875
1759329437632,424861173,6983,13,0.626220703125,-0.09918212890625,0.70404052734375
1759329437632,424861173,6983,14,0.637939453125,-0.06939697265625,0.70770263671875
1759329437632,424861173,6983,15,0.674560546875,-0.01617431640625,0.70330810546875
1759329437632,424861173,6983,16,0.572021484375,0.02557373046875,0.62835693359375
1759329437632,424861173,6983,17,0.68408203125,-0.00567626953125,0.69207763671875
1759329437632,424861173,6983,18,0.617919921875,0.01141357421875,0.66741943359375
1759329437632,424861173,6983,19,0.602294921875,-0.02325439453125,0.65692138671875
1759329437632,424861173,6983,20,0.708251953125,-0.04254150390625,0.72625732421875
1759329437632,424861173,6983,21,0.624267578125,-0.06549072265625,0.70819091796875
1759329437632,424861173,6983,22,0.629638671875,-0.07794189453125,0.70574951171875
1759329437632,424861173,6983,23,0.646484375,-0.07550048828125,0.70916748046875
1759329437632,424861173,6983,24,0.615478515625,-0.07281494140625,0.70257568359375
1759329437632,424861173,6983,25,0.615966796875,-0.06768798828125,0.70892333984375
1759329437632,424861173,6983,26,0.630615234375,-0.03814697265625,0.71380615234375
1759329437632,424861173,6983,27,0.701171875,-0.05963134765625,0.70745849609375
1759329437632,424861173,6983,28,0.59033203125,0.04046630859375,0.62689208984375
1759329437632,424861173,6983,29,0.684326171875,-0.04229736328125,0.66278076171875
1759329437632,424861173,6983,30,0.644287109375,0.00311279296875,0.67425537109375
1759329437632,424861173,6983,31,0.67041015625,0.01654052734375,0.68060302734375
1759329440182,424863716,6984,0,0.68603515625,-0.00128173828125,0.65960693359375
1759329440182,424863716,6984,1,0.622314453125,-0.03912353515625,0.67181396484375
1759329440182,424863716,6984,2,0.5751953125,0.02313232421875,0.64691162109375
1759329440182,424863716,6984,3,0.701171875,-0.03912353515625,0.71429443359375
1759329440182,424863716,6984,4,0.640869140625,-0.07061767578125,0.71502685546875
1759329440182,424863716,6984,5,0.65576171875,-0.05865478515625,0.70452880859375
1759329440182,424863716,6984,6,0.629150390625,-0.07623291015625,0.70281982421875
1759329440182,424863716,6984,7,0.63232421875,-0.07086181640625,0.69378662109375
1759329440182,424863716,6984,8,0.6455078125,-0.06817626953125,0.70648193359375
1759329440182,424863716,6984,9,0.650634765625,-0.06622314453125,0.72161865234375
1759329440182,424863716,6984,10,0.69384765625,-0.00885009765625,0.64813232421875
1759329440182,424863716,6984,11,0.59716796875,0.00701904296875,0.65789794921875
1759329440182,424863716,6984,12,0.661865234375,-0.00933837890625,0.68646240234375
1759329440182,424863716,6984,13,0.64697265625,-0.00128173828125,0.66619873046875
1759329440182,424863716,6984,14,0.701416015625,0.01678466796875,0.66864013671875
1759329440182,424863716,6984,15,0.658203125,-0.00933837890625,0.64422607421875
