receivedPhoneTimestamp,respeckTimestamp,packetSeqNum,sampleSeqNum,accelX,accelY,accelZ
1759329066229,424489910,6837,0,-0.009521484375,-1.02447509765625,-0.05718994140625
1759329066229,424489910,6837,1,0.051025390625,-0.99688720703125,-0.06549072265625
1759329066229,424489910,6837,2,0.111572265625,-1.00250244140625,-0.04669189453125
1759329066229,424489910,6837,3,0.07568359375,-0.99542236328125,-0.06304931640625
1759329066229,424489910,6837,4,0.043701171875,-1.03204345703125,-0.03863525390625
1759329066229,424489910,6837,5,0.088623046875,-0.99713134765625,-0.04351806640625
1759329066229,424489910,6837,6,0.0703125,-1.00933837890625,-0.03472900390625
1759329066229,424489910,6837,7,0.05419921875,-1.00469970703125,-0.03887939453125
1759329066229,424489910,6837,8,0.053955078125,-1.00885009765625,-0.03057861328125
1759329066229,424489910,6837,9,0.048095703125,-1.00445556640625,-0.01763916015625
1759329066229,424489910,6837,10,0.045654296875,-1.00225830078125,0.00115966796875
1759329066229,424489910,6837,11,0.0361328125,-1.00640869140625,0.00994873046875
1759329066229,424489910,6837,12,0.03857421875,-1.00030517578125,0.00164794921875
1759329066229,424489910,6837,13,0.032470703125,-1.00836181640625,0.00897216796875
1759329066229,424489910,6837,14,0.061767578125,-1.01641845703125,0.00262451171875
1759329066229,424489910,6837,15,0.06103515625,-1.01837158203125,-0.01837158203125
1759329066229,424489910,6837,16,0.050537109375,-0.98785400390625,-6.103515625e-05
1759329066229,424489910,6837,17,0.041015625,-1.01470947265625,-0.00030517578125
1759329066229,424489910,6837,18,0.06103515625,-1.00567626953125,-0.00738525390625
1759329066229,424489910,6837,19,0.046630859375,-1.01885986328125,-0.01519775390625
1759329066229,424489910,6837,20,0.0478515625,-1.00274658203125,-0.01861572265625
1759329066229,424489910,6837,21,0.0439453125,-1.01715087890625,-0.00958251953125
1759329066229,424489910,6837,22,0.03857421875,-1.01129150390625,-0.01275634765625
1759329066229,424489910,6837,23,0.047119140625,-0.99908447265625,-0.00909423828125
1759329066229,424489910,6837,24,0.02783203125,-1.00616455078125,-0.00958251953125
1759329066229,424489910,6837,25,0.02490234375,-1.01495361328125,-0.01641845703125
1759329066229,424489910,6837,26,0.02880859375,-1.00543212890625,-0.01641845703125
1759329066229,424489910,6837,27,0.026123046875,-1.00982666015625,-0.01910400390625
1759329066229,424489910,6837,28,0.03857421875,-1.00885009765625,-0.02667236328125
1759329066229,424489910,6837,29,0.023193359375,-1.01324462890625,-0.02130126953125
1759329066229,424489910,6837,30,0.033935546875,-1.01763916015625,-0.02740478515625
1759329066229,424489910,6837,31,0.03857421875,-1.00811767578125,-0.02154541015625
1759329068780,424492453,6838,0,0.0419921875,-1.01397705078125,-0.02447509765625
1759329068780,424492453,6838,1,0.037353515625,-1.01324462890625,-0.02740478515625
1759329068780,424492453,6838,2,0.0322265625,-1.00518798828125,-0.04351806640625
1759329068780,424492453,6838,3,0.00732421875,-1.02716064453125,-0.09478759765625
1759329068780,424492453,6838,4,0.029541015625,-1.00958251953125,-0.05596923828125
1759329068780,424492453,6838,5,0.06689453125,-0.97320556640625,-0.07623291015625
1759329068780,424492453,6838,6,0.08544921875,-1.02789306640625,0.01043701171875
1759329068780,424492453,6838,7,0.051025390625,-0.98248291015625,0.01043701171875
1759329068780,424492453,6838,8,0.041015625,-1.03009033203125,0.01434326171875
1759329068780,424492453,6838,9,0.04541015625,-1.01226806640625,0.03167724609375
1759329068780,424492453,6838,10,0.046630859375,-1.01593017578125,0.05706787109375
1759329068780,424492453,6838,11,0.02783203125,-1.00860595703125,0.02410888671875
1759329068780,424492453,6838,12,0.07470703125,-1.00372314453125,0.01605224609375
1759329068780,424492453,6838,13,0.07421875,-0.99053955078125,0.02947998046875
1759329068780,424492453,6838,14,0.020751953125,-1.01031494140625,0.13934326171875
1759329068780,424492453,6838,15,0.070068359375,-1.01422119140625,0.00335693359375
1759329068780,424492453,6838,16,0.04248046875,-0.98492431640625,0.03802490234375
1759329068780,424492453,6838,17,0.0458984375,-1.05377197265625,0.01629638671875
1759329068780,424492453,6838,18,0.038818359375,-1.02398681640625,0.02142333984375
1759329068780,424492453,6838,19,0.04443359375,-1.01348876953125,0.00628662109375
1759329068780,424492453,6838,20,0.00244140625,-1.01470947265625,0.00213623046875
1759329068780,424492453,6838,21,0.01318359375,-1.03082275390625,0.01629638671875
1759329068780,424492453,6838,22,-0.005859375,-1.01080322265625,0.02239990234375
1759329068780,424492453,6838,23,-0.037109375,-1.01055908203125,0.03411865234375
1759329068780,424492453,6838,24,-0.032470703125,-0.99151611328125,0.02435302734375
1759329068780,424492453,6838,25,-0.03955078125,-1.01007080078125,0.02484130859375
1759329068780,424492453,6838,26,0.021240234375,-0.97686767578125,0.00482177734375
1759329068780,424492453,6838,27,-0.0283203125,-1.06866455078125,0.12713623046875
1759329068780,424492453,6838,28,0.028076171875,-0.95733642578125,0.12542724609375
1759329068780,424492453,6838,29,-0.033935546875,-1.00665283203125,0.14129638671875
1759329068780,424492453,6838,30,0.0791015625,-1.01031494140625,0.00897216796875
1759329068780,424492453,6838,31,0.007080078125,-1.03839111328125,0.06365966796875
1759329071330,424494996,6839,0,0.046875,-0.99029541015625,0.11395263671875
1759329071330,424494996,6839,1,0.03173828125,-1.01007080078125,0.17352294921875
1759329071330,424494996,6839,2,0.030029296875,-0.99371337890625,-0.00250244140625
1759329071330,424494996,6839,3,0.094970703125,-1.03375244140625,0.01629638671875
1759329071330,424494996,6839,4,0.046142578125,-0.99273681640625,0.11248779296875
1759329071330,424494996,6839,5,0.052490234375,-0.97686767578125,0.16693115234375
1759329071330,424494996,6839,6,0.0625,-1.02935791015625,0.02630615234375
1759329071330,424494996,6839,7,0.046142578125,-0.96466064453125,0.06243896484375
1759329071330,424494996,6839,8,0.087890625,-1.03009033203125,0.06146240234375
1759329071330,424494996,6839,9,0.01708984375,-1.01300048828125,0.06390380859375
1759329071330,424494996,6839,10,0.0771484375,-1.00103759765625,0.03314208984375
1759329071330,424494996,6839,11,0.01806640625,-1.04595947265625,-0.02374267578125
1759329071330,424494996,6839,12,0.071044921875,-0.99468994140625,-0.06622314453125
1759329071330,424494996,6839,13,0.0263671875,-0.98956298828125,-0.04913330078125
1759329071330,424494996,6839,14,0.020263671875,-1.04693603515625,-0.06622314453125
1759329071330,424494996,6839,15,0.072021484375,-1.00836181640625,-0.04888916015625
1759329071330,424494996,6839,16,0.057373046875,-1.00323486328125,0.05413818359375
1759329071330,424494996,6839,17,0.033447265625,-0.97979736328125,0.11517333984375
1759329071330,424494996,6839,18,0.072998046875,-1.00933837890625,-0.06475830078125
1759329071330,424494996,6839,19,0.160400390625,-1.02398681640625,-0.08721923828125
1759329071330,424494996,6839,20,0.082763671875,-1.00225830078125,0.04144287109375
1759329071330,424494996,6839,21,0.103515625,-0.97247314453125,0.04290771484375
1759329071330,424494996,6839,22,0.0751953125,-1.01812744140625,-0.02203369140625
1759329071330,424494996,6839,23,0.12548828125,-0.98736572265625,-0.01080322265625
1759329071330,424494996,6839,24,0.095703125,-1.01202392578125,-0.01202392578125
1759329071330,424494996,6839,25,0.11474609375,-1.02960205078125,-0.04913330078125
1759329071330,424494996,6839,26,0.118896484375,-1.00811767578125,-0.07574462890625
1759329071330,424494996,6839,27,0.10400390625,-1.01397705078125,-0.03790283203125
1759329071330,424494996,6839,28,0.05712890625,-1.00469970703125,-0.02081298828125
1759329071330,424494996,6839,29,0.05859375,-0.97906494140625,-0.04547119140625
1759329071330,424494996,6839,30,0.068603515625,-1.01348876953125,-0.01275634765625
1759329071330,424494996,6839,31,0.0732421875,-0.99761962890625,0.04754638671875
1759329073731,424497539,6840,0,0.057861328125,-1.04547119140625,0.07513427734375
1759329073731,424497539,6840,1,0.048583984375,-0.97271728515625,0.00018310546875
1759329073731,424497539,6840,2,0.0908203125,-1.01446533203125,0.01263427734375
1759329073731,424497539,6840,3,0.013916015625,-0.99420166015625,0.02215576171875
1759329073731,424497539,6840,4,0.0087890625,-0.99371337890625,0.01531982421875
1759329073731,424497539,6840,5,0.055908203125,-1.03204345703125,-0.03350830078125
1759329073731,424497539,6840,6,0.092529296875,-1.03082275390625,-0.10943603515625
1759329073731,424497539,6840,7,0.100341796875,-1.00885009765625,-0.08697509765625
1759329073731,424497539,6840,8,0.0546875,-1.00103759765625,-0.05670166015625
1759329073731,424497539,6840,9,0.0576171875,-0.98394775390625,-0.11285400390625
1759329073731,424497539,6840,10,0.081787109375,-1.00762939453125,0.07757568359375
1759329073731,424497539,6840,11,-0.036376953125,-0.98126220703125,0.08758544921875
1759329073731,424497539,6840,12,0.1591796875,-1.04815673828125,-0.06573486328125
1759329073731,424497539,6840,13,0.048095703125,-0.99737548828125,-0.00494384765625
1759329073731,424497539,6840,14,0.01708984375,-0.98980712890625,-0.00201416015625
1759329073731,424497539,6840,15,0.10400390625,-1.05377197265625,-0.08258056640625
1759329073731,424497539,6840,16,0.09716796875,-0.99322509765625,-0.10894775390625
1759329073731,424497539,6840,17,0.0927734375,-1.00006103515625,-0.08282470703125
1759329073731,424497539,6840,18,0.072509765625,-0.99737548828125,-0.10357666015625
1759329073731,424497539,6840,19,0.0673828125,-1.00006103515625,-0.09185791015625
1759329073731,424497539,6840,20,0.075927734375,-1.00714111328125,-0.09991455078125
1759329073731,424497539,6840,21,0.076904296875,-1.00933837890625,-0.15264892578125
1759329073731,424497539,6840,22,0.070068359375,-0.99322509765625,0.04119873046875
1759329073731,424497539,6840,23,0.020751953125,-0.98565673828125,0.06341552734375
1759329073731,424497539,6840,24,0.12744140625,-1.04180908203125,-0.10577392578125
1759329073731,424497539,6840,25,0.0517578125,-0.98638916015625,-0.03179931640625
1759329073731,424497539,6840,26,0.024169921875,-1.01934814453125,-0.01544189453125
1759329073731,424497539,6840,27,0.092041015625,-1.00567626953125,-0.04107666015625
1759329073731,424497539,6840,28,0.056396484375,-1.01446533203125,-0.05596923828125
1759329073731,424497539,6840,29,0.073974609375,-1.00909423828125,-0.07110595703125
1759329073731,424497539,6840,30,0.061767578125,-1.00836181640625,-0.07989501953125
1759329073731,424497539,6840,31,0.076416015625,-1.01812744140625,-0.06549072265625
1759329076280,424500082,6841,0,0.082763671875,-1.01861572265625,-0.12530517578125
1759329076280,424500082,6841,1,0.100341796875,-0.99835205078125,0.03216552734375
1759329076280,424500082,6841,2,0.041748046875,-0.96099853515625,0.05169677734375
1759329076280,424500082,6841,3,0.11474609375,-1.03790283203125,-0.03448486328125
1759329076280,424500082,6841,4,0.040771484375,-1.00982666015625,-0.00274658203125
1759329076280,424500082,6841,5,0.046630859375,-1.02398681640625,-0.03717041015625
1759329076280,424500082,6841,6,0.046630859375,-1.01666259765625,-0.02569580078125
1759329076280,424500082,6841,7,0.0703125,-1.01055908203125,-0.03472900390625
1759329076280,424500082,6841,8,0.067626953125,-1.00811767578125,-0.04425048828125
1759329076280,424500082,6841,9,0.068359375,-1.00689697265625,-0.03839111328125
1759329076280,424500082,6841,10,0.03466796875,-0.98956298828125,-0.05718994140625
1759329076280,424500082,6841,11,0.029541015625,-0.99346923828125,-0.05157470703125
1759329076280,424500082,6841,12,0.041015625,-1.00445556640625,-0.08062744140625
1759329076280,424500082,6841,13,0.06005859375,-1.00689697265625,0.03265380859375
1759329076280,424500082,6841,14,0.019775390625,-1.00909423828125,0.06927490234375
1759329076280,424500082,6841,15,0.060546875,-1.01519775390625,0.04217529296875
1759329076280,424500082,6841,16,0.071044921875,-1.01226806640625,-0.04595947265625
1759329076280,424500082,6841,17,0.092041015625,-1.00982666015625,0.01190185546875
1759329076280,424500082,6841,18,0.006591796875,-1.00543212890625,0.11297607421875
1759329076280,424500082,6841,19,0.0810546875,-1.01373291015625,0.00750732421875
1759329076280,424500082,6841,20,0.05126953125,-0.98516845703125,-0.00836181640625
1759329076280,424500082,6841,21,0.061279296875,-1.00323486328125,0.02288818359375
1759329076280,424500082,6841,22,0.045166015625,-1.03204345703125,0.01409912109375
1759329076280,424500082,6841,23,0.04541015625,-0.99908447265625,-0.00958251953125
1759329076280,424500082,6841,24,0.068115234375,-1.00299072265625,-0.01226806640625
1759329076280,424500082,6841,25,0.0458984375,-1.00982666015625,-0.05084228515625
1759329076280,424500082,6841,26,0.037353515625,-1.02520751953125,-0.01129150390625
1759329076280,424500082,6841,27,0.0576171875,-0.99664306640625,-0.01934814453125
1759329076280,424500082,6841,28,0.066650390625,-1.04302978515625,-0.04425048828125
1759329076280,424500082,6841,29,0.075439453125,-1.00811767578125,-0.06988525390625
1759329076280,424500082,6841,30,0.061279296875,-1.02740478515625,-0.04644775390625
1759329076280,424500082,6841,31,0.089111328125,-1.01617431640625,-0.05767822265625
1759329078830,424502625,6842,0,0.092041015625,-0.99468994140625,-0.03643798828125
1759329078830,424502625,6842,1,0.037353515625,-1.02032470703125,-0.03179931640625
1759329078830,424502625,6842,2,0.0595703125,-0.99517822265625,-0.08013916015625
1759329078830,424502625,6842,3,0.068603515625,-0.99053955078125,-0.09112548828125
1759329078830,424502625,6842,4,0.06884765625,-1.00543212890625,0.04046630859375
1759329078830,424502625,6842,5,0.0185546875,-0.99761962890625,0.06903076171875
1759329078830,424502625,6842,6,0.11181640625,-1.00616455078125,-0.07476806640625
1759329078830,424502625,6842,7,0.039794921875,-1.04034423828125,0.05023193359375
1759329078830,424502625,6842,8,0.08056640625,-0.97735595703125,0.07147216796875
1759329078830,424502625,6842,9,0.093994140625,-1.02178955078125,0.03558349609375
1759329078830,424502625,6842,10,0.06640625,-0.98883056640625,0.02142333984375
1759329078830,424502625,6842,11,0.107177734375,-1.02081298828125,-0.00128173828125
1759329078830,424502625,6842,12,0.113525390625,-1.00030517578125,-0.00152587890625
1759329078830,424502625,6842,13,0.112548828125,-0.99786376953125,0.00360107421875
1759329078830,424502625,6842,14,0.135986328125,-0.99420166015625,-0.03497314453125
1759329078830,424502625,6842,15,0.116455078125,-1.00152587890625,-0.02325439453125
1759329078830,424502625,6842,16,0.08203125,-0.99835205078125,-0.01690673828125
1759329078830,424502625,6842,17,0.083740234375,-1.01348876953125,-0.01080322265625
1759329078830,424502625,6842,18,0.078857421875,-1.00665283203125,-0.01177978515625
1759329078830,424502625,6842,19,0.060791015625,-1.00714111328125,0.01116943359375
1759329078830,424502625,6842,20,0.037841796875,-0.96832275390625,0.00677490234375
1759329078830,424502625,6842,21,-0.00244140625,-1.02520751953125,0.01800537109375
1759329078830,424502625,6842,22,0.138916015625,-1.04986572265625,0.00262451171875
1759329078830,424502625,6842,23,0.068603515625,-1.01910400390625,-0.02008056640625
1759329078830,424502625,6842,24,0.01611328125,-1.03985595703125,-0.03082275390625
1759329078830,424502625,6842,25,0.02392578125,-0.99322509765625,-0.02008056640625
1759329078830,424502625,6842,26,0.018798828125,-1.01788330078125,-0.03082275390625
1759329078830,424502625,6842,27,0.05078125,-0.99029541015625,-0.03448486328125
1759329078830,424502625,6842,28,0.03173828125,-0.99102783203125,-0.02716064453125
1759329078830,424502625,6842,29,0.047607421875,-1.01300048828125,-0.04425048828125
1759329078830,424502625,6842,30,0.076904296875,-0.97125244140625,0.06268310546875
1759329078830,424502625,6842,31,0.03857421875,-1.02447509765625,0.10345458984375
1759329081530,424505168,6843,0,0.06884765625,-1.01324462890625,0.09222412109375
1759329081530,424505168,6843,1,0.05908203125,-0.99981689453125,0.01019287109375
1759329081530,424505168,6843,2,0.08984375,-0.99322509765625,0.02606201171875
1759329081530,424505168,6843,3,0.067138671875,-1.04986572265625,0.01849365234375
1759329081530,424505168,6843,4,0.060546875,-1.00885009765625,-0.00836181640625
1759329081530,424505168,6843,5,0.05029296875,-1.00982666015625,-0.02447509765625
1759329081530,424505168,6843,6,0.0400390625,-1.01373291015625,-0.03375244140625
1759329081530,424505168,6843,7,0.059814453125,-1.00787353515625,-0.02789306640625
1759329081530,424505168,6843,8,0.044921875,-1.00396728515625,-0.03546142578125
1759329081530,424505168,6843,9,0.04052734375,-0.99517822265625,-0.04010009765625
1759329081530,424505168,6843,10,0.03271484375,-1.01544189453125,-0.00592041015625
1759329081530,424505168,6843,11,0.035888671875,-0.99932861328125,-0.03985595703125
1759329081530,424505168,6843,12,0.0703125,-0.99835205078125,0.05413818359375
1759329081530,424505168,6843,13,0.03125,-1.00250244140625,0.08050537109375
1759329081530,424505168,6843,14,0.04443359375,-1.02838134765625,0.07269287109375
1759329081530,424505168,6843,15,0.064453125,-0.99639892578125,0.05535888671875
1759329081530,424505168,6843,16,0.08642578125,-1.02813720703125,-0.03936767578125
1759329081530,424505168,6843,17,0.09521484375,-0.98736572265625,0.08221435546875
1759329081530,424505168,6843,18,0.017333984375,-1.00885009765625,0.11907958984375
1759329081530,424505168,6843,19,0.055419921875,-1.01470947265625,0.04803466796875
1759329081530,424505168,6843,20,0.09521484375,-0.99932861328125,0.03875732421875
1759329081530,424505168,6843,21,0.041015625,-1.01690673828125,0.06072998046875
1759329081530,424505168,6843,22,0.04638671875,-0.99591064453125,0.04876708984375
1759329081530,424505168,6843,23,0.022216796875,-1.01641845703125,0.05828857421875
1759329081530,424505168,6843,24,0.082763671875,-1.05255126953125,-0.01519775390625
1759329081530,424505168,6843,25,0.079345703125,-0.97296142578125,-0.01885986328125
1759329081530,424505168,6843,26,0.083984375,-0.98883056640625,-0.02301025390625
1759329081530,424505168,6843,27,0.08544921875,-0.98419189453125,0.02630615234375
1759329081530,424505168,6843,28,0.049072265625,-1.00958251953125,0.07220458984375
1759329081530,424505168,6843,29,0.083984375,-1.02886962890625,0.01531982421875
1759329081530,424505168,6843,30,0.111083984375,-0.99273681640625,0.00604248046875
1759329081530,424505168,6843,31,0.077880859375,-1.00738525390625,0.04437255859375
1759329083930,424507711,6844,0,0.10791015625,-1.00201416015625,0.01361083984375
1759329083930,424507711,6844,1,0.092529296875,-1.00640869140625,0.02215576171875
1759329083930,424507711,6844,2,0.105712890625,-0.99835205078125,0.02044677734375
1759329083930,424507711,6844,3,0.058349609375,-1.00054931640625,0.02386474609375
1759329083930,424507711,6844,4,0.08056640625,-1.03668212890625,0.01336669921875
1759329083930,424507711,6844,5,0.083984375,-0.98638916015625,0.00628662109375
1759329083930,424507711,6844,6,0.071533203125,-1.01153564453125,-0.00518798828125
1759329083930,424507711,6844,7,0.0595703125,-0.98590087890625,-0.01470947265625
1759329083930,424507711,6844,8,0.059814453125,-1.04913330078125,-0.02691650390625
1759329083930,424507711,6844,9,0.05859375,-0.99200439453125,-0.03961181640625
1759329083930,424507711,6844,10,0.068359375,-0.99981689453125,-0.04425048828125
1759329083930,424507711,6844,11,0.05615234375,-1.00396728515625,-0.04254150390625
1759329083930,424507711,6844,12,0.047607421875,-1.00811767578125,-0.04962158203125
1759329083930,424507711,6844,13,0.072021484375,-1.02056884765625,-0.06378173828125
1759329083930,424507711,6844,14,0.09423828125,-0.98736572265625,-0.08160400390625
1759329083930,424507711,6844,15,0.03564453125,-1.00787353515625,0.06146240234375
1759329083930,424507711,6844,16,0.07373046875,-1.00860595703125,0.06878662109375
1759329083930,424507711,6844,17,0.046630859375,-1.01837158203125,-0.02960205078125
1759329083930,424507711,6844,18,0.090576171875,-1.00177001953125,-0.04498291015625
1759329083930,424507711,6844,19,0.065185546875,-1.01348876953125,-0.02227783203125
1759329083930,424507711,6844,20,0.138427734375,-1.01617431640625,-0.01519775390625
1759329083930,424507711,6844,21,0.086669921875,-0.99053955078125,-0.00787353515625
1759329083930,424507711,6844,22,0.049072265625,-1.03009033203125,-0.02374267578125
1759329083930,424507711,6844,23,0.0703125,-1.00762939453125,-0.04571533203125
1759329083930,424507711,6844,24,0.083984375,-0.99957275390625,-0.03887939453125
1759329083930,424507711,6844,25,0.04541015625,-0.97784423828125,-0.04132080078125
1759329083930,424507711,6844,26,0.032958984375,-1.02569580078125,-0.04913330078125
1759329083930,424507711,6844,27,0.0166015625,-1.02935791015625,-0.02496337890625
1759329083930,424507711,6844,28,0.071044921875,-0.96929931640625,-0.08038330078125
1759329083930,424507711,6844,29,0.03955078125,-1.02276611328125,0.03143310546875
1759329083930,424507711,6844,30,0.047119140625,-1.01690673828125,0.07904052734375
1759329083930,424507711,6844,31,0.034912109375,-1.00396728515625,0.04583740234375
1759329086480,424510254,6845,0,0.049560546875,-1.02862548828125,-0.06695556640625
1759329086480,424510254,6845,1,0.051513671875,-0.99859619140625,-0.00225830078125
1759329086480,424510254,6845,2,0.0419921875,-0.99151611328125,0.07147216796875
1759329086480,424510254,6845,3,0.07568359375,-1.02154541015625,0.08563232421875
1759329086480,424510254,6845,4,-0.025146484375,-0.99835205078125,0.02825927734375
1759329086480,424510254,6845,5,0.041748046875,-1.02008056640625,0.01531982421875
1759329086480,424510254,6845,6,0.020751953125,-1.01275634765625,0.02459716796875
1759329086480,424510254,6845,7,0.05615234375,-1.03082275390625,0.00067138671875
1759329086480,424510254,6845,8,0.031982421875,-1.00787353515625,-0.00054931640625
1759329086480,424510254,6845,9,0.011474609375,-1.00543212890625,0.01678466796875
1759329086480,424510254,6845,10,-0.011962890625,-1.00860595703125,-0.00152587890625
1759329086480,424510254,6845,11,0.00341796875,-1.00250244140625,-0.00347900390625
1759329086480,424510254,6845,12,0.00048828125,-1.00909423828125,-0.00567626953125
1759329086480,424510254,6845,13,0.04833984375,-0.98028564453125,-0.02447509765625
1759329086480,424510254,6845,14,0.005126953125,-1.03253173828125,0.08416748046875
1759329086480,424510254,6845,15,0.00830078125,-1.02130126953125,0.11663818359375
1759329086480,424510254,6845,16,0.039306640625,-1.00909423828125,-0.00958251953125
1759329086480,424510254,6845,17,0.04931640625,-1.00836181640625,0.00482177734375
1759329086480,424510254,6845,18,0.02294921875,-1.01959228515625,0.04290771484375
1759329086480,424510254,6845,19,0.01416015625,-1.02130126953125,0.02947998046875
1759329086480,424510254,6845,20,0.017333984375,-1.00567626953125,0.01458740234375
1759329086480,424510254,6845,21,0.01171875,-1.00909423828125,0.01702880859375
1759329086480,424510254,6845,22,-0.005859375,-1.01007080078125,0.01458740234375
1759329086480,424510254,6845,23,0.002197265625,-1.01470947265625,0.01531982421875
1759329086480,424510254,6845,24,0.01220703125,-1.00445556640625,0.01165771484375
1759329086480,424510254,6845,25,0.016357421875,-1.01763916015625,-0.00274658203125
1759329086480,424510254,6845,26,0.073974609375,-0.99737548828125,-0.00958251953125
1759329086480,424510254,6845,27,-0.022705078125,-1.02032470703125,0.13494873046875
1759329086480,424510254,6845,28,0.065185546875,-0.99810791015625,0.03729248046875
1759329086480,424510254,6845,29,0.057373046875,-1.01348876953125,-0.03814697265625
1759329086480,424510254,6845,30,0.049072265625,-1.01763916015625,0.06951904296875
1759329086480,424510254,6845,31,0.01025390625,-1.00103759765625,0.11444091796875
1759329089030,424512797,6846,0,0.015380859375,-1.02496337890625,0.03411865234375
1759329089030,424512797,6846,1,0.101806640625,-1.01373291015625,0.01995849609375
1759329089030,424512797,6846,2,0.037353515625,-0.99127197265625,0.03363037109375
1759329089030,424512797,6846,3,0.07421875,-1.02935791015625,0.02850341796875
1759329089030,424512797,6846,4,0.03662109375,-1.00811767578125,0.04852294921875
1759329089030,424512797,6846,5,-0.024658203125,-1.01446533203125,0.06024169921875
1759329089030,424512797,6846,6,0.01611328125,-1.01080322265625,0.02850341796875
1759329089030,424512797,6846,7,0.031982421875,-1.01568603515625,-0.00323486328125
1759329089030,424512797,6846,8,0.034423828125,-1.02008056640625,0.01629638671875
1759329089030,424512797,6846,9,0.03125,-1.01397705078125,0.02288818359375
1759329089030,424512797,6846,10,0.022216796875,-1.00250244140625,0.01824951171875
1759329089030,424512797,6846,11,0.0361328125,-1.01641845703125,-0.01495361328125
1759329089030,424512797,6846,12,0.0693359375,-1.00396728515625,0.02630615234375
1759329089030,424512797,6846,13,0.048583984375,-0.99713134765625,0.13836669921875
1759329089030,424512797,6846,14,0.03955078125,-0.99835205078125,0.07098388671875
1759329089030,424512797,6846,15,0.06689453125,-1.01593017578125,0.01092529296875
1759329089030,424512797,6846,16,0.04736328125,-1.00762939453125,0.03558349609375
1759329089030,424512797,6846,17,0.08349609375,-1.01275634765625,0.03216552734375
1759329089030,424512797,6846,18,0.044677734375,-1.01666259765625,0.00018310546875
1759329089030,424512797,6846,19,0.032958984375,-1.00518798828125,-0.01983642578125
1759329089030,424512797,6846,20,0.0595703125,-1.00836181640625,-0.01470947265625
1759329089030,424512797,6846,21,0.045654296875,-1.00494384765625,-0.02081298828125
1759329089030,424512797,6846,22,0.0322265625,-1.00274658203125,-0.01129150390625
1759329089030,424512797,6846,23,0.0439453125,-1.01861572265625,0.00555419921875
1759329089030,424512797,6846,24,0.058837890625,-0.99176025390625,-0.02081298828125
1759329089030,424512797,6846,25,0.0546875,-0.99566650390625,0.11590576171875
1759329089030,424512797,6846,26,0.043701171875,-1.01763916015625,0.11541748046875
1759329089030,424512797,6846,27,0.046630859375,-1.00323486328125,-0.00030517578125
1759329089030,424512797,6846,28,0.060546875,-1.01617431640625,0.03875732421875
1759329089030,424512797,6846,29,0.03662109375,-1.00909423828125,0.05340576171875
1759329089030,424512797,6846,30,0.05029296875,-1.02838134765625,0.00286865234375
1759329089030,424512797,6846,31,0.04736328125,-1.01446533203125,0.00238037109375
1759329091581,424515340,6847,0,0.042724609375,-1.00518798828125,0.00360107421875
1759329091581,424515340,6847,1,0.040771484375,-1.00933837890625,-0.00347900390625
1759329091581,424515340,6847,2,0.04052734375,-1.00567626953125,0.00091552734375
1759329091581,424515340,6847,3,0.036376953125,-1.00152587890625,0.00164794921875
1759329091581,424515340,6847,4,0.025146484375,-1.01104736328125,0.01922607421875
1759329091581,424515340,6847,5,0.056640625,-1.01739501953125,-0.00836181640625
1759329091581,424515340,6847,6,0.069580078125,-0.98345947265625,0.10345458984375
1759329091581,424515340,6847,7,0.014892578125,-1.01617431640625,0.13079833984375
1759329091581,424515340,6847,8,0.06591796875,-1.01300048828125,0.05706787109375
1759329091581,424515340,6847,9,0.066650390625,-0.99420166015625,0.02752685546875
1759329091581,424515340,6847,10,0.023681640625,-1.00421142578125,0.04022216796875
1759329091581,424515340,6847,11,0.03369140625,-1.03326416015625,0.03387451171875
1759329091581,424515340,6847,12,0.045166015625,-1.00714111328125,0.00360107421875
1759329091581,424515340,6847,13,0.04931640625,-1.02325439453125,0.00775146484375
1759329091581,424515340,6847,14,0.02001953125,-1.00982666015625,-0.01495361328125
1759329091581,424515340,6847,15,0.031494140625,-1.00616455078125,0.00262451171875
1759329091581,424515340,6847,16,0.025146484375,-0.99932861328125,-0.00445556640625
1759329091581,424515340,6847,17,0.027587890625,-1.01153564453125,-0.00592041015625
1759329091581,424515340,6847,18,0.0244140625,-1.01544189453125,-0.00494384765625
1759329091581,424515340,6847,19,0.068115234375,-0.98834228515625,0.05828857421875
1759329091581,424515340,6847,20,0.033447265625,-1.00494384765625,0.10247802734375
1759329091581,424515340,6847,21,0.06005859375,-1.01495361328125,0.09710693359375
1759329091581,424515340,6847,22,0.050537109375,-1.00006103515625,0.10394287109375
1759329091581,424515340,6847,23,0.046875,-1.02447509765625,0.07073974609375
1759329091581,424515340,6847,24,0.060791015625,-1.00128173828125,0.05828857421875
1759329091581,424515340,6847,25,0.0810546875,-0.98199462890625,0.11639404296875
1759329091581,424515340,6847,26,-0.018310546875,-1.03717041015625,0.09906005859375
1759329091581,424515340,6847,27,0.125244140625,-0.96173095703125,0.05682373046875
1759329091581,424515340,6847,28,0.014892578125,-1.03594970703125,0.05706787109375
1759329091581,424515340,6847,29,0.030029296875,-1.00274658203125,0.02923583984375
1759329091581,424515340,6847,30,0.0439453125,-1.01446533203125,0.03460693359375
1759329091581,424515340,6847,31,0.065185546875,-1.01055908203125,-0.01031494140625
1759329094130,424517883,6848,0,0.05517578125,-0.99346923828125,0.10858154296875
1759329094130,424517883,6848,1,0.020751953125,-0.98443603515625,0.13055419921875
1759329094130,424517883,6848,2,0.0732421875,-1.03814697265625,0.04168701171875
1759329094130,424517883,6848,3,0.060791015625,-0.97296142578125,0.05389404296875
1759329094130,424517883,6848,4,0.028076171875,-1.02569580078125,0.04119873046875
1759329094130,424517883,6848,5,0.0458984375,-1.00738525390625,0.01361083984375
1759329094130,424517883,6848,6,0.060546875,-1.02056884765625,0.01678466796875
1759329094130,424517883,6848,7,0.042236328125,-1.01324462890625,0.00897216796875
1759329094130,424517883,6848,8,0.040771484375,-1.00933837890625,-0.00543212890625
1759329094130,424517883,6848,9,0.035888671875,-1.01861572265625,0.00653076171875
1759329094130,424517883,6848,10,0.050537109375,-1.00909423828125,0.01995849609375
1759329094130,424517883,6848,11,0.071044921875,-0.99029541015625,0.02093505859375
1759329094130,424517883,6848,12,0.056884765625,-1.00054931640625,0.12762451171875
1759329094130,424517883,6848,13,0.0751953125,-0.97686767578125,0.12420654296875
1759329094130,424517883,6848,14,0.067138671875,-1.01568603515625,0.11663818359375
1759329094130,424517883,6848,15,0.093017578125,-0.99517822265625,0.12274169921875
1759329094130,424517883,6848,16,0.061279296875,-1.00103759765625,0.07635498046875
1759329094130,424517883,6848,17,0.12353515625,-1.00738525390625,0.06707763671875
1759329094130,424517883,6848,18,0.04248046875,-0.97247314453125,0.14495849609375
1759329094130,424517883,6848,19,0.070068359375,-1.02520751953125,0.11663818359375
1759329094130,424517883,6848,20,0.085693359375,-0.97515869140625,0.06390380859375
1759329094130,424517883,6848,21,0.046142578125,-1.01568603515625,0.05096435546875
1759329094130,424517883,6848,22,0.093505859375,-1.03399658203125,0.04168701171875
1759329094130,424517883,6848,23,0.0791015625,-0.99615478515625,-0.02984619140625
1759329094130,424517883,6848,24,0.053466796875,-1.01812744140625,0.00311279296875
1759329094130,424517883,6848,25,0.064453125,-1.00714111328125,-0.00787353515625
1759329094130,424517883,6848,26,0.0419921875,-1.00567626953125,-0.00152587890625
1759329094130,424517883,6848,27,0.042724609375,-1.02447509765625,0.01068115234375
1759329094130,424517883,6848,28,0.057861328125,-0.99664306640625,0.01629638671875
1759329094130,424517883,6848,29,0.0556640625,-0.98516845703125,0.01043701171875
1759329094130,424517883,6848,30,0.05859375,-1.02740478515625,0.11346435546875
1759329094130,424517883,6848,31,0.0703125,-0.99200439453125,0.07293701171875
1759329096680,424520427,6849,0,0.036865234375,-1.01739501953125,-0.00054931640625
1759329096680,424520427,6849,1,0.056640625,-0.99859619140625,0.03826904296875
1759329096680,424520427,6849,2,0.04541015625,-1.01300048828125,0.04827880859375
1759329096680,424520427,6849,3,0.057373046875,-1.01861572265625,-0.01593017578125
1759329096680,424520427,6849,4,0.051025390625,-1.01129150390625,-0.01348876953125
1759329096680,424520427,6849,5,0.03369140625,-1.01226806640625,-0.02813720703125
1759329096680,424520427,6849,6,0.09619140625,-1.00177001953125,0.05169677734375
1759329096680,424520427,6849,7,0.017333984375,-0.96710205078125,0.13616943359375
1759329096680,424520427,6849,8,0.0732421875,-1.04083251953125,0.04998779296875
1759329096680,424520427,6849,9,0.02685546875,-0.99713134765625,0.01312255859375
1759329096680,424520427,6849,10,0.07470703125,-1.03179931640625,0.00531005859375
1759329096680,424520427,6849,11,0.04541015625,-1.02105712890625,0.04949951171875
1759329096680,424520427,6849,12,0.073486328125,-1.00665283203125,0.02850341796875
1759329096680,424520427,6849,13,0.062255859375,-1.00811767578125,0.02166748046875
1759329096680,424520427,6849,14,0.05712890625,-0.99957275390625,0.04266357421875
1759329096680,424520427,6849,15,0.060791015625,-1.01788330078125,0.00457763671875
