receivedPhoneTimestamp,respeckTimestamp,packetSeqNum,sampleSeqNum,accelX,accelY,accelZ
1759689701450,817715761,11129,10,-0.112548828125,-0.96148681640625,0.15228271484375
1759689701450,817715761,11129,11,-0.105712890625,-0.96905517578125,0.13739013671875
1759689701450,817715761,11129,12,-0.133544921875,-0.96759033203125,0.15399169921875
1759689701450,817715761,11129,13,-0.103271484375,-0.96734619140625,0.16107177734375
1759689701450,817715761,11129,14,-0.127197265625,-0.97711181640625,0.16595458984375
1759689701450,817715761,11129,15,-0.11767578125,-0.96319580078125,0.16961669921875
1759689701450,817715761,11129,16,-0.11767578125,-0.95513916015625,0.15716552734375
1759689701450,817715761,11129,17,-0.108642578125,-0.95123291015625,0.14129638671875
1759689701450,817715761,11129,18,-0.11279296875,-0.95587158203125,0.14984130859375
1759689701450,817715761,11129,19,-0.092041015625,-0.94073486328125,0.10687255859375
1759689701450,817715761,11129,20,-0.084228515625,-0.98004150390625,0.09271240234375
1759689701450,817715761,11129,21,-0.0927734375,-1.02593994140625,0.11370849609375
1759689701450,817715761,11129,22,-0.060791015625,-0.97662353515625,0.08660888671875
1759689701450,817715761,11129,23,-0.0732421875,-0.97344970703125,0.09051513671875
1759689701450,817715761,11129,24,-0.085205078125,-1.01715087890625,0.14227294921875
1759689701450,817715761,11129,25,-0.089599609375,-0.94244384765625,0.12274169921875
1759689701450,817715761,11129,26,-0.08740234375,-0.96588134765625,0.14569091796875
1759689701450,817715761,11129,27,-0.08251953125,-0.99053955078125,0.08807373046875
1759689701450,817715761,11129,28,-0.049072265625,-0.98736572265625,0.11810302734375
1759689701450,817715761,11129,29,-0.125244140625,-0.98004150390625,0.16644287109375
1759689701450,817715761,11129,30,-0.093505859375,-0.92852783203125,0.15716552734375
1759689701450,817715761,11129,31,-0.10791015625,-1.00543212890625,0.15643310546875
1759689703999,817718340,11130,0,-0.11767578125,-0.97686767578125,0.12078857421875
1759689703999,817718340,11130,1,-0.099853515625,-0.97344970703125,0.13201904296875
1759689703999,817718340,11130,2,-0.073974609375,-0.96856689453125,0.08074951171875
1759689703999,817718340,11130,3,-0.072509765625,-0.92510986328125,0.06463623046875
1759689703999,817718340,11130,4,-0.078125,-1.05621337890625,0.15667724609375
1759689703999,817718340,11130,5,-0.0849609375,-0.94390869140625,0.13885498046875
1759689703999,817718340,11130,6,-0.10009765625,-0.96612548828125,0.16204833984375
1759689703999,817718340,11130,7,-0.10009765625,-0.95587158203125,0.16473388671875
1759689703999,817718340,11130,8,-0.10400390625,-0.99151611328125,0.17279052734375
1759689703999,817718340,11130,9,-0.111328125,-0.97735595703125,0.17864990234375
1759689703999,817718340,11130,10,-0.1240234375,-0.96612548828125,0.15594482421875
1759689703999,817718340,11130,11,-0.095458984375,-0.96759033203125,0.17572021484375
1759689703999,817718340,11130,12,-0.1015625,-0.95953369140625,0.15057373046875
1759689703999,817718340,11130,13,-0.09228515625,-0.95880126953125,0.16351318359375
1759689703999,817718340,11130,14,-0.084228515625,-0.94708251953125,0.14447021484375
1759689703999,817718340,11130,15,-0.00390625,-0.87677001953125,0.00286865234375
1759689703999,817718340,11130,16,-0.130615234375,-1.07550048828125,0.15032958984375
1759689703999,817718340,11130,17,-0.043212890625,-0.97784423828125,0.10418701171875
1759689703999,817718340,11130,18,-0.061767578125,-0.99639892578125,0.09295654296875
1759689703999,817718340,11130,19,-0.05078125,-1.00177001953125,0.09881591796875
1759689703999,817718340,11130,20,-0.036376953125,-0.96734619140625,0.10198974609375
1759689703999,817718340,11130,21,-0.0810546875,-0.99249267578125,0.11590576171875
1759689703999,817718340,11130,22,-0.053466796875,-0.92559814453125,0.12249755859375
1759689703999,817718340,11130,23,-0.06103515625,-1.03155517578125,0.07489013671875
1759689703999,817718340,11130,24,-0.040771484375,-0.96490478515625,0.12908935546875
1759689703999,817718340,11130,25,-0.114990234375,-0.98663330078125,0.17498779296875
1759689703999,817718340,11130,26,-0.09033203125,-0.93951416015625,0.14959716796875
1759689703999,817718340,11130,27,-0.10693359375,-0.99761962890625,0.15179443359375
1759689703999,817718340,11130,28,-0.10400390625,-0.96417236328125,0.14520263671875
1759689703999,817718340,11130,29,-0.0966796875,-0.97979736328125,0.14788818359375
1759689703999,817718340,11130,30,-0.109375,-0.95269775390625,0.15228271484375
1759689703999,817718340,11130,31,-0.128662109375,-0.96881103515625,0.18817138671875
1759689706699,817720920,11131,0,-0.09619140625,-0.93316650390625,0.06512451171875
1759689706699,817720920,11131,1,-0.0859375,-1.00372314453125,0.18865966796875
1759689706699,817720920,11131,2,-0.060791015625,-0.97808837890625,0.13446044921875
1759689706699,817720920,11131,3,-0.10302734375,-0.98712158203125,0.14447021484375
1759689706699,817720920,11131,4,-0.089599609375,-0.94879150390625,0.14666748046875
1759689706699,817720920,11131,5,-0.092041015625,-0.96514892578125,0.18353271484375
1759689706699,817720920,11131,6,-0.11767578125,-0.98492431640625,0.15960693359375
1759689706699,817720920,11131,7,-0.091064453125,-0.97613525390625,0.12908935546875
1759689706699,817720920,11131,8,-0.099609375,-0.97247314453125,0.12640380859375
1759689706699,817720920,11131,9,-0.091552734375,-0.98126220703125,0.12396240234375
1759689706699,817720920,11131,10,-0.09326171875,-0.97833251953125,0.11395263671875
1759689706699,817720920,11131,11,-0.099609375,-0.96929931640625,0.12811279296875
1759689706699,817720920,11131,12,-0.095947265625,-0.97467041015625,0.13641357421875
1759689706699,817720920,11131,13,-0.103759765625,-0.96343994140625,0.12982177734375
1759689706699,817720920,11131,14,-0.103759765625,-0.95391845703125,0.13177490234375
1759689706699,817720920,11131,15,0.004150390625,-0.88555908203125,0.04754638671875
1759689706699,817720920,11131,16,-0.183837890625,-1.08551025390625,0.12396240234375
1759689706699,817720920,11131,17,-0.039306640625,-0.96734619140625,0.10980224609375
1759689706699,817720920,11131,18,-0.07666015625,-0.99786376953125,0.11737060546875
1759689706699,817720920,11131,19,-0.086181640625,-0.99688720703125,0.12811279296875
1759689706699,817720920,11131,20,-0.083984375,-0.95440673828125,0.11102294921875
1759689706699,817720920,11131,21,-0.08984375,-0.96685791015625,0.13787841796875
1759689706699,817720920,11131,22,-0.091064453125,-0.98785400390625,0.13763427734375
1759689706699,817720920,11131,23,-0.0810546875,-0.97637939453125,0.13812255859375
1759689706699,817720920,11131,24,-0.08740234375,-0.96734619140625,0.13983154296875
1759689706699,817720920,11131,25,-0.080078125,-0.97296142578125,0.13787841796875
1759689706699,817720920,11131,26,-0.09375,-0.97442626953125,0.13690185546875
1759689706699,817720920,11131,27,-0.078857421875,-1.02227783203125,0.13983154296875
1759689706699,817720920,11131,28,-0.102783203125,-0.94390869140625,0.16448974609375
1759689706699,817720920,11131,29,-0.071044921875,-0.94024658203125,0.18157958984375
1759689706699,817720920,11131,30,-0.128662109375,-0.97393798828125,0.19989013671875
1759689706699,817720920,11131,31,-0.09619140625,-0.95562744140625,0.19525146484375
1759689709098,817723499,11132,0,-0.10107421875,-0.95367431640625,0.19573974609375
1759689709098,817723499,11132,1,-0.138671875,-0.95684814453125,0.22088623046875
1759689709098,817723499,11132,2,-0.128173828125,-0.95782470703125,0.17987060546875
1759689709098,817723499,11132,3,-0.101806640625,-0.97271728515625,0.22845458984375
1759689709098,817723499,11132,4,-0.1142578125,-0.95953369140625,0.18402099609375
1759689709098,817723499,11132,5,-0.135009765625,-0.94024658203125,0.22308349609375
1759689709098,817723499,11132,6,-0.14453125,-0.96661376953125,0.19891357421875
1759689709098,817723499,11132,7,-0.12646484375,-0.92559814453125,0.20208740234375
1759689709098,817723499,11132,8,-0.10205078125,-0.97857666015625,0.18792724609375
1759689709098,817723499,11132,9,-0.118896484375,-0.96124267578125,0.16961669921875
1759689709098,817723499,11132,10,-0.122314453125,-0.97393798828125,0.18768310546875
1759689709098,817723499,11132,11,-0.113037109375,-0.94903564453125,0.17742919921875
1759689709098,817723499,11132,12,-0.10986328125,-0.97686767578125,0.13299560546875
1759689709098,817723499,11132,13,-0.07373046875,-0.92437744140625,0.14324951171875
1759689709098,817723499,11132,14,-0.102294921875,-1.03033447265625,0.17327880859375
1759689709098,817723499,11132,15,-0.087158203125,-0.94610595703125,0.16180419921875
1759689709098,817723499,11132,16,-0.102294921875,-0.96099853515625,0.17498779296875
1759689709098,817723499,11132,17,-0.101806640625,-0.97125244140625,0.18402099609375
1759689709098,817723499,11132,18,-0.14208984375,-0.95513916015625,0.18524169921875
1759689709098,817723499,11132,19,-0.0986328125,-0.96685791015625,0.18963623046875
1759689709098,817723499,11132,20,-0.14990234375,-0.97564697265625,0.17572021484375
1759689709098,817723499,11132,21,-0.11865234375,-0.97052001953125,0.17962646484375
1759689709098,817723499,11132,22,-0.113037109375,-0.96881103515625,0.16302490234375
1759689709098,817723499,11132,23,-0.090087890625,-0.96539306640625,0.12689208984375
1759689709098,817723499,11132,24,-0.076904296875,-0.93536376953125,0.13568115234375
1759689709098,817723499,11132,25,-0.138427734375,-0.99224853515625,0.14251708984375
1759689709098,817723499,11132,26,-0.08837890625,-0.95172119140625,0.11102294921875
1759689709098,817723499,11132,27,-0.079345703125,-0.99322509765625,0.12249755859375
1759689709098,817723499,11132,28,-0.085205078125,-0.98590087890625,0.10638427734375
1759689709098,817723499,11132,29,-0.0693359375,-0.98443603515625,0.12908935546875
1759689709098,817723499,11132,30,-0.06591796875,-0.97882080078125,0.10711669921875
1759689709098,817723499,11132,31,-0.06298828125,-0.96002197265625,0.04876708984375
1759689711649,817726072,11133,0,-0.075439453125,-0.99908447265625,0.13641357421875
1759689711649,817726072,11133,1,-0.070556640625,-0.96783447265625,0.16033935546875
1759689711649,817726072,11133,2,-0.069580078125,-0.97198486328125,0.13104248046875
1759689711649,817726072,11133,3,-0.054931640625,-0.99981689453125,0.09661865234375
1759689711649,817726072,11133,4,-0.088134765625,-0.93731689453125,0.16107177734375
1759689711649,817726072,11133,5,-0.083251953125,-0.98150634765625,0.18353271484375
1759689711649,817726072,11133,6,-0.11572265625,-0.96661376953125,0.15765380859375
1759689711649,817726072,11133,7,-0.091064453125,-0.98492431640625,0.18109130859375
1759689711649,817726072,11133,8,-0.1240234375,-0.94757080078125,0.17279052734375
1759689711649,817726072,11133,9,-0.119873046875,-0.96270751953125,0.16400146484375
1759689711649,817726072,11133,10,-0.12060546875,-0.96539306640625,0.16937255859375
1759689711649,817726072,11133,11,-0.1337890625,-0.97003173828125,0.17498779296875
1759689711649,817726072,11133,12,-0.13232421875,-0.96417236328125,0.18255615234375
1759689711649,817726072,11133,13,-0.102294921875,-0.96514892578125,0.17498779296875
1759689711649,817726072,11133,14,-0.10791015625,-0.96173095703125,0.15447998046875
1759689711649,817726072,11133,15,-0.044677734375,-0.93560791015625,0.12420654296875
1759689711649,817726072,11133,16,-0.17626953125,-1.02252197265625,0.11029052734375
1759689711649,817726072,11133,17,-0.064697265625,-0.94683837890625,0.17156982421875
1759689711649,817726072,11133,18,-0.11083984375,-0.97222900390625,0.15252685546875
1759689711649,817726072,11133,19,-0.105712890625,-0.97003173828125,0.18817138671875
1759689711649,817726072,11133,20,-0.135986328125,-0.95489501953125,0.19012451171875
1759689711649,817726072,11133,21,-0.115234375,-0.95440673828125,0.20330810546875
1759689711649,817726072,11133,22,-0.127197265625,-0.95416259765625,0.20989990234375
1759689711649,817726072,11133,23,-0.14306640625,-0.94854736328125,0.22137451171875
1759689711649,817726072,11133,24,-0.164306640625,-0.95147705078125,0.21136474609375
1759689711649,817726072,11133,25,-0.167724609375,-0.95318603515625,0.22943115234375
1759689711649,817726072,11133,26,-0.157958984375,-0.94122314453125,0.22406005859375
1759689711649,817726072,11133,27,-0.156494140625,-0.95098876953125,0.23382568359375
1759689711649,817726072,11133,28,-0.1328125,-0.94635009765625,0.22406005859375
1759689711649,817726072,11133,29,-0.160400390625,-0.94024658203125,0.23919677734375
1759689711649,817726072,11133,30,-0.142333984375,-0.93170166015625,0.17205810546875
1759689711649,817726072,11133,31,-0.11865234375,-0.94952392578125,0.18402099609375
1759689714349,817728651,11134,0,-0.126708984375,-0.94171142578125,0.18548583984375
1759689714349,817728651,11134,1,-0.113037109375,-0.97174072265625,0.16009521484375
1759689714349,817728651,11134,2,-0.099609375,-0.98516845703125,0.15838623046875
1759689714349,817728651,11134,3,-0.107421875,-0.96856689453125,0.15618896484375
1759689714349,817728651,11134,4,-0.091552734375,-0.97418212890625,0.21380615234375
1759689714349,817728651,11134,5,-0.136962890625,-0.95611572265625,0.17498779296875
1759689714349,817728651,11134,6,-0.08984375,-0.92950439453125,0.17181396484375
1759689714349,817728651,11134,7,-0.13671875,-1.02935791015625,0.22088623046875
1759689714349,817728651,11134,8,-0.102783203125,-0.91534423828125,0.18841552734375
1759689714349,817728651,11134,9,-0.12451171875,-0.96319580078125,0.21771240234375
1759689714349,817728651,11134,10,-0.1279296875,-0.92681884765625,0.22308349609375
1759689714349,817728651,11134,11,-0.130126953125,-0.97711181640625,0.22601318359375
1759689714349,817728651,11134,12,-0.163818359375,-0.95440673828125,0.19476318359375
1759689714349,817728651,11134,13,-0.14990234375,-0.94927978515625,0.22625732421875
1759689714349,817728651,11134,14,-0.15478515625,-0.94708251953125,0.23236083984375
1759689714349,817728651,11134,15,-0.147216796875,-0.95489501953125,0.22503662109375
1759689714349,817728651,11134,16,-0.12744140625,-0.94342041015625,0.22918701171875
1759689714349,817728651,11134,17,-0.133056640625,-0.95343017578125,0.21917724609375
1759689714349,817728651,11134,18,-0.1162109375,-0.94708251953125,0.21331787109375
1759689714349,817728651,11134,19,-0.081298828125,-0.93780517578125,0.13421630859375
1759689714349,817728651,11134,20,-0.105224609375,-0.93023681640625,0.14739990234375
1759689714349,817728651,11134,21,-0.104248046875,-1.02008056640625,0.17669677734375
1759689714349,817728651,11134,22,-0.082275390625,-0.96685791015625,0.14202880859375
1759689714349,817728651,11134,23,-0.0537109375,-0.97711181640625,0.13079833984375
1759689714349,817728651,11134,24,-0.084716796875,-0.97857666015625,0.14300537109375
1759689714349,817728651,11134,25,-0.074462890625,-0.98712158203125,0.15594482421875
1759689714349,817728651,11134,26,-0.052001953125,-0.91754150390625,0.11907958984375
1759689714349,817728651,11134,27,-0.08203125,-1.02520751953125,0.15106201171875
1759689714349,817728651,11134,28,-0.064208984375,-0.99664306640625,0.17181396484375
1759689714349,817728651,11134,29,-0.08740234375,-0.95098876953125,0.16595458984375
1759689714349,817728651,11134,30,-0.105712890625,-0.93609619140625,0.16473388671875
1759689714349,817728651,11134,31,-0.0693359375,-0.98419189453125,0.16839599609375
1759689716898,817731230,11135,0,-0.1259765625,-0.97125244140625,0.17596435546875
1759689716898,817731230,11135,1,-0.13623046875,-0.95831298828125,0.18524169921875
1759689716898,817731230,11135,2,-0.1318359375,-0.97222900390625,0.21063232421875
1759689716898,817731230,11135,3,-0.152099609375,-0.96075439453125,0.20208740234375
1759689716898,817731230,11135,4,-0.115966796875,-0.96148681640625,0.20062255859375
1759689716898,817731230,11135,5,-0.114501953125,-0.95391845703125,0.16107177734375
1759689716898,817731230,11135,6,-0.12939453125,-0.94903564453125,0.13836669921875
1759689716898,817731230,11135,7,-0.052734375,-0.90704345703125,0.10028076171875
1759689716898,817731230,11135,8,-0.1953125,-1.07061767578125,0.13299560546875
1759689716898,817731230,11135,9,0.006103515625,-0.92584228515625,0.10394287109375
1759689716898,817731230,11135,10,-0.115234375,-1.00714111328125,0.11932373046875
1759689716898,817731230,11135,11,-0.0712890625,-0.96148681640625,0.10809326171875
1759689716898,817731230,11135,12,-0.083740234375,-0.97003173828125,0.15960693359375
1759689716898,817731230,11135,13,-0.10693359375,-0.96539306640625,0.16644287109375
1759689716898,817731230,11135,14,-0.051025390625,-0.98834228515625,0.11541748046875
1759689716898,817731230,11135,15,-0.078857421875,-0.97662353515625,0.09246826171875
1759689716898,817731230,11135,16,-0.05322265625,-0.99835205078125,0.15032958984375
1759689716898,817731230,11135,17,-0.0771484375,-0.96490478515625,0.14178466796875
1759689716898,817731230,11135,18,-0.10009765625,-0.95465087890625,0.15350341796875
1759689716898,817731230,11135,19,-0.093994140625,-0.95880126953125,0.16937255859375
1759689716898,817731230,11135,20,-0.121826171875,-0.96710205078125,0.17156982421875
1759689716898,817731230,11135,21,-0.12939453125,-0.96368408203125,0.16986083984375
1759689716898,817731230,11135,22,-0.1455078125,-0.96881103515625,0.18011474609375
1759689716898,817731230,11135,23,-0.131591796875,-0.97149658203125,0.17376708984375
1759689716898,817731230,11135,24,-0.127197265625,-0.96612548828125,0.15594482421875
1759689716898,817731230,11135,25,-0.096923828125,-0.97906494140625,0.11004638671875
1759689716898,817731230,11135,26,-0.085205078125,-0.94659423828125,0.08221435546875
1759689716898,817731230,11135,27,-0.0546875,-0.92852783203125,0.08612060546875
1759689716898,817731230,11135,28,-0.112548828125,-1.04400634765625,0.10662841796875
1759689716898,817731230,11135,29,-0.06689453125,-0.96246337890625,0.11737060546875
1759689716898,817731230,11135,30,-0.079833984375,-0.97662353515625,0.13153076171875
1759689716898,817731230,11135,31,-0.06591796875,-0.97882080078125,0.14178466796875
1759689719449,817733809,11136,0,-0.11181640625,-0.96514892578125,0.18377685546875
1759689719449,817733809,11136,1,-0.096923828125,-0.96612548828125,0.18743896484375
1759689719449,817733809,11136,2,-0.121337890625,-0.96588134765625,0.15545654296875
1759689719449,817733809,11136,3,-0.113525390625,-0.96710205078125,0.16961669921875
1759689719449,817733809,11136,4,-0.115234375,-0.98028564453125,0.16204833984375
1759689719449,817733809,11136,5,-0.15234375,-0.95391845703125,0.16278076171875
1759689719449,817733809,11136,6,-0.1171875,-0.97076416015625,0.17059326171875
1759689719449,817733809,11136,7,-0.11669921875,-0.96124267578125,0.15130615234375
1759689719449,817733809,11136,8,-0.11669921875,-0.96246337890625,0.14129638671875
1759689719449,817733809,11136,9,-0.125,-0.95074462890625,0.15130615234375
1759689719449,817733809,11136,10,-0.027099609375,-0.97882080078125,0.07977294921875
1759689719449,817733809,11136,11,-0.094970703125,-0.97906494140625,0.10223388671875
1759689719449,817733809,11136,12,-0.07470703125,-0.97442626953125,0.08245849609375
1759689719449,817733809,11136,13,-0.058837890625,-1.01177978515625,0.08050537109375
1759689719449,817733809,11136,14,-0.0595703125,-0.96929931640625,0.07684326171875
1759689719449,817733809,11136,15,-0.052978515625,-0.96490478515625,0.05584716796875
1759689719449,817733809,11136,16,-0.07421875,-1.00982666015625,0.06976318359375
1759689719449,817733809,11136,17,-0.095458984375,-0.97198486328125,0.13885498046875
1759689719449,817733809,11136,18,-0.05908203125,-0.98394775390625,0.14862060546875
1759689719449,817733809,11136,19,-0.069091796875,-0.97369384765625,0.11224365234375
1759689719449,817733809,11136,20,-0.091552734375,-0.95245361328125,0.11956787109375
1759689719449,817733809,11136,21,-0.104736328125,-1.02740478515625,0.10711669921875
1759689719449,817733809,11136,22,-0.033203125,-0.93756103515625,0.16351318359375
1759689719449,817733809,11136,23,-0.1396484375,-0.98004150390625,0.18328857421875
1759689719449,817733809,11136,24,-0.1259765625,-0.94366455078125,0.17864990234375
1759689719449,817733809,11136,25,-0.1123046875,-0.97711181640625,0.17449951171875
1759689719449,817733809,11136,26,-0.144287109375,-0.95709228515625,0.16497802734375
1759689719449,817733809,11136,27,-0.154296875,-0.97125244140625,0.18377685546875
1759689719449,817733809,11136,28,-0.13916015625,-0.94879150390625,0.20477294921875
1759689719449,817733809,11136,29,-0.132568359375,-0.96978759765625,0.19915771484375
1759689719449,817733809,11136,30,-0.14794921875,-0.94439697265625,0.20941162109375
1759689719449,817733809,11136,31,-0.138427734375,-0.95318603515625,0.17572021484375
1759689721995,817736388,11137,0,-0.130615234375,-0.95465087890625,0.16156005859375
1759689721995,817736388,11137,1,-0.108154296875,-0.93902587890625,0.16229248046875
1759689721995,817736388,11137,2,-0.10888671875,-0.93951416015625,0.11468505859375
1759689721995,817736388,11137,3,-0.103515625,-1.04937744140625,0.07904052734375
1759689721995,817736388,11137,4,-0.060546875,-0.96710205078125,0.13177490234375
1759689721995,817736388,11137,5,-0.062744140625,-0.95928955078125,0.14276123046875
1759689721995,817736388,11137,6,-0.0859375,-0.97418212890625,0.14837646484375
1759689721995,817736388,11137,7,-0.078369140625,-0.95196533203125,0.16497802734375
1759689721995,817736388,11137,8,-0.109130859375,-0.99493408203125,0.16888427734375
1759689721995,817736388,11137,9,-0.070068359375,-0.95538330078125,0.16375732421875
1759689721995,817736388,11137,10,-0.122802734375,-0.97711181640625,0.19549560546875
1759689721995,817736388,11137,11,-0.10205078125,-0.93658447265625,0.19012451171875
1759689721995,817736388,11137,12,-0.123291015625,-0.95855712890625,0.19061279296875
1759689721995,817736388,11137,13,-0.138427734375,-0.99761962890625,0.20379638671875
1759689721995,817736388,11137,14,-0.143310546875,-0.94586181640625,0.20916748046875
1759689721995,817736388,11137,15,-0.119140625,-0.95294189453125,0.22235107421875
1759689721995,817736388,11137,16,-0.12451171875,-0.95147705078125,0.21136474609375
1759689721995,817736388,11137,17,-0.11181640625,-0.94561767578125,0.19915771484375
1759689721995,817736388,11137,18,-0.12060546875,-0.93487548828125,0.20208740234375
1759689721995,817736388,11137,19,-0.02587890625,-0.88116455078125,0.08050537109375
1759689721995,817736388,11137,20,-0.1416015625,-1.02886962890625,0.11688232421875
1759689721995,817736388,11137,21,-0.064697265625,-0.99835205078125,0.14300537109375
1759689721995,817736388,11137,22,-0.07666015625,-0.99224853515625,0.17010498046875
1759689721995,817736388,11137,23,-0.085205078125,-0.94683837890625,0.12762451171875
1759689721995,817736388,11137,24,-0.08740234375,-0.97637939453125,0.16009521484375
1759689721995,817736388,11137,25,-0.1337890625,-0.96807861328125,0.20086669921875
1759689721995,817736388,11137,26,-0.095947265625,-0.95855712890625,0.16986083984375
1759689721995,817736388,11137,27,-0.078125,-0.94830322265625,0.16156005859375
1759689721995,817736388,11137,28,-0.1005859375,-0.99371337890625,0.17987060546875
1759689721995,817736388,11137,29,-0.12255859375,-0.94781494140625,0.21575927734375
1759689721995,817736388,11137,30,-0.115478515625,-0.97174072265625,0.20306396484375
1759689721995,817736388,11137,31,-0.085693359375,-0.93096923828125,0.19476318359375
1759689724549,817738968,11138,0,-0.1396484375,-0.96881103515625,0.21185302734375
1759689724549,817738968,11138,1,-0.134521484375,-0.94830322265625,0.20062255859375
1759689724549,817738968,11138,2,-0.13720703125,-0.96759033203125,0.19598388671875
1759689724549,817738968,11138,3,-0.155517578125,-0.95343017578125,0.21478271484375
1759689724549,817738968,11138,4,-0.1201171875,-0.94781494140625,0.20965576171875
1759689724549,817738968,11138,5,-0.14697265625,-0.94879150390625,0.19598388671875
1759689724549,817738968,11138,6,-0.135498046875,-0.94952392578125,0.19793701171875
1759689724549,817738968,11138,7,-0.1240234375,-0.96075439453125,0.19793701171875
1759689724549,817738968,11138,8,-0.055419921875,-0.88360595703125,0.11444091796875
1759689724549,817738968,11138,9,-0.1533203125,-1.05865478515625,0.14739990234375
1759689724549,817738968,11138,10,-0.05908203125,-0.96197509765625,0.16693115234375
1759689724549,817738968,11138,11,-0.09423828125,-0.95709228515625,0.15570068359375
1759689724549,817738968,11138,12,-0.093994140625,-0.98077392578125,0.19158935546875
1759689724549,817738968,11138,13,-0.11181640625,-0.95880126953125,0.18597412109375
1759689724549,817738968,11138,14,-0.10791015625,-0.97442626953125,0.19012451171875
1759689724549,817738968,11138,15,-0.135009765625,-0.93902587890625,0.21234130859375
1759689724549,817738968,11138,16,-0.122802734375,-0.95635986328125,0.20355224609375
1759689724549,817738968,11138,17,-0.14501953125,-0.96514892578125,0.20452880859375
1759689724549,817738968,11138,18,-0.156005859375,-0.96466064453125,0.19476318359375
1759689724549,817738968,11138,19,-0.123046875,-0.94927978515625,0.19061279296875
1759689724549,817738968,11138,20,-0.1337890625,-0.96612548828125,0.18109130859375
1759689724549,817738968,11138,21,-0.120849609375,-0.95025634765625,0.16253662109375
1759689724549,817738968,11138,22,-0.08837890625,-0.93902587890625,0.06048583984375
1759689724549,817738968,11138,23,-0.095703125,-0.95513916015625,0.18597412109375
1759689724549,817738968,11138,24,-0.109619140625,-1.02960205078125,0.15570068359375
1759689724549,817738968,11138,25,-0.092529296875,-0.97637939453125,0.13421630859375
1759689724549,817738968,11138,26,-0.087646484375,-0.96221923828125,0.13641357421875
1759689724549,817738968,11138,27,-0.098388671875,-0.96636962890625,0.17913818359375
1759689724549,817738968,11138,28,-0.1201171875,-0.96368408203125,0.18621826171875
1759689724549,817738968,11138,29,-0.096435546875,-0.94635009765625,0.16937255859375
1759689724549,817738968,11138,30,-0.11572265625,-0.97418212890625,0.18768310546875
1759689724549,817738968,11138,31,-0.081298828125,-0.95758056640625,0.20281982421875
1759689727249,817741547,11139,0,-0.129150390625,-0.97662353515625,0.21575927734375
1759689727249,817741547,11139,1,-0.095947265625,-0.93194580078125,0.19793701171875
1759689727249,817741547,11139,2,-0.1279296875,-0.94512939453125,0.21136474609375
1759689727249,817741547,11139,3,-0.153076171875,-0.98297119140625,0.20916748046875
1759689727249,817741547,11139,4,-0.11376953125,-0.96319580078125,0.20257568359375
1759689727249,817741547,11139,5,-0.13037109375,-0.94244384765625,0.20965576171875
1759689727249,817741547,11139,6,-0.146484375,-0.95733642578125,0.21600341796875
1759689727249,817741547,11139,7,-0.1279296875,-0.95245361328125,0.20965576171875
1759689727249,817741547,11139,8,-0.14013671875,-0.94903564453125,0.21746826171875
1759689727249,817741547,11139,9,-0.12451171875,-0.95196533203125,0.20208740234375
1759689727249,817741547,11139,10,-0.08642578125,-0.91827392578125,0.12884521484375
1759689727249,817741547,11139,11,-0.1162109375,-0.99029541015625,0.13201904296875
1759689727249,817741547,11139,12,-0.121337890625,-0.97100830078125,0.21527099609375
1759689727249,817741547,11139,13,-0.099365234375,-0.96734619140625,0.16693115234375
1759689727249,817741547,11139,14,-0.09521484375,-0.95660400390625,0.17205810546875
1759689727249,817741547,11139,15,-0.1201171875,-0.96807861328125,0.18914794921875
1759689727249,817741547,11139,16,-0.125244140625,-0.97491455078125,0.20599365234375
1759689727249,817741547,11139,17,-0.08837890625,-0.92584228515625,0.18231201171875
1759689727249,817741547,11139,18,-0.1201171875,-0.99859619140625,0.21624755859375
1759689727249,817741547,11139,19,-0.046875,-0.94488525390625,0.19793701171875
1759689727249,817741547,11139,20,-0.126220703125,-0.99053955078125,0.19207763671875
1759689727249,817741547,11139,21,-0.06005859375,-0.92047119140625,0.19940185546875
1759689727249,817741547,11139,22,-0.142333984375,-0.95147705078125,0.20550537109375
1759689727249,817741547,11139,23,-0.12451171875,-0.97564697265625,0.18621826171875
1759689727249,817741547,11139,24,-0.130126953125,-0.96636962890625,0.20574951171875
1759689727249,817741547,11139,25,-0.123779296875,-0.95391845703125,0.20306396484375
1759689727249,817741547,11139,26,-0.131591796875,-0.95025634765625,0.20550537109375
1759689727249,817741547,11139,27,-0.134765625,-0.95782470703125,0.20843505859375
1759689727249,817741547,11139,28,-0.122314453125,-0.94488525390625,0.20379638671875
1759689727249,817741547,11139,29,-0.109375,-0.95880126953125,0.16180419921875
1759689727249,817741547,11139,30,-0.129150390625,-0.96148681640625,0.18524169921875
1759689727249,817741547,11139,31,-0.126708984375,-0.94415283203125,0.17352294921875
1759689729796,817744126,11140,0,-0.07666015625,-0.90240478515625,0.11248779296875
1759689729796,817744126,11140,1,-0.085205078125,-1.06427001953125,0.10565185546875
1759689729796,817744126,11140,2,-0.0478515625,-0.96563720703125,0.12445068359375
1759689729796,817744126,11140,3,-0.099853515625,-0.97393798828125,0.15008544921875
1759689729796,817744126,11140,4,-0.08642578125,-0.96563720703125,0.17352294921875
1759689729796,817744126,11140,5,-0.115478515625,-0.96368408203125,0.19647216796875
1759689729796,817744126,11140,6,-0.104736328125,-0.96026611328125,0.20135498046875
1759689729796,817744126,11140,7,-0.136474609375,-0.98712158203125,0.19305419921875
1759689729796,817744126,11140,8,-0.1455078125,-0.96490478515625,0.17156982421875
1759689729796,817744126,11140,9,-0.10302734375,-0.95220947265625,0.18524169921875
1759689729796,817744126,11140,10,-0.111328125,-0.95831298828125,0.17034912109375
1759689729796,817744126,11140,11,-0.10693359375,-0.96588134765625,0.15765380859375
1759689729796,817744126,11140,12,-0.099365234375,-0.94122314453125,0.14666748046875
1759689729796,817744126,11140,13,-0.013427734375,-0.90191650390625,0.00335693359375
1759689729796,817744126,11140,14,-0.11328125,-1.02325439453125,0.12493896484375
1759689729796,817744126,11140,15,-0.0712890625,-1.01226806640625,0.10198974609375
1759689729796,817744126,11140,16,-0.044189453125,-0.99981689453125,0.13909912109375
1759689729796,817744126,11140,17,-0.078369140625,-0.96368408203125,0.11322021484375
1759689729796,817744126,11140,18,-0.06005859375,-0.99200439453125,0.11614990234375
1759689729796,817744126,11140,19,-0.07568359375,-0.96246337890625,0.11883544921875
1759689729796,817744126,11140,20,-0.094482421875,-0.98883056640625,0.11761474609375
1759689729796,817744126,11140,21,-0.0478515625,-0.98223876953125,0.12005615234375
1759689729796,817744126,11140,22,-0.07958984375,-0.96710205078125,0.10784912109375
1759689729796,817744126,11140,23,-0.046630859375,-0.99420166015625,0.11566162109375
1759689729796,817744126,11140,24,-0.057373046875,-0.97003173828125,0.14617919921875
1759689729796,817744126,11140,25,-0.06982421875,-0.94903564453125,0.16986083984375
1759689729796,817744126,11140,26,-0.099609375,-0.98590087890625,0.16619873046875
1759689729796,817744126,11140,27,-0.0908203125,-0.96075439453125,0.17791748046875
1759689729796,817744126,11140,28,-0.14306640625,-0.96319580078125,0.20721435546875
1759689729796,817744126,11140,29,-0.1279296875,-0.94879150390625,0.17034912109375
1759689729796,817744126,11140,30,-0.102294921875,-0.96002197265625,0.17645263671875
1759689729796,817744126,11140,31,-0.09765625,-0.95001220703125,0.17767333984375
1759689732349,817746705,11141,0,-0.132568359375,-0.96246337890625,0.20355224609375
