receivedPhoneTimestamp,respeckTimestamp,packetSeqNum,sampleSeqNum,accelX,accelY,accelZ
1759597320276,698837750,13707,0,0.503662109375,-0.02935791015625,-0.88531494140625
1759597320276,698837750,13707,1,0.502685546875,-0.02984619140625,-0.88629150390625
1759597320276,698837750,13707,2,0.505859375,-0.02862548828125,-0.88897705078125
1759597320276,698837750,13707,3,0.503662109375,-0.02838134765625,-0.88507080078125
1759597320276,698837750,13707,4,0.5048828125,-0.02764892578125,-0.88897705078125
1759597320276,698837750,13707,5,0.5048828125,-0.02642822265625,-0.89215087890625
1759597320276,698837750,13707,6,0.503662109375,-0.02764892578125,-0.88897705078125
1759597320276,698837750,13707,7,0.504638671875,-0.02740478515625,-0.89239501953125
1759597320276,698837750,13707,8,0.505126953125,-0.02935791015625,-0.88775634765625
1759597320276,698837750,13707,9,0.502685546875,-0.02886962890625,-0.88555908203125
1759597320276,698837750,13707,10,0.50390625,-0.02886962890625,-0.89117431640625
1759597320276,698837750,13707,11,0.503662109375,-0.03009033203125,-0.88922119140625
1759597320276,698837750,13707,12,0.50390625,-0.02667236328125,-0.88360595703125
1759597320276,698837750,13707,13,0.502685546875,-0.02789306640625,-0.88848876953125
1759597320276,698837750,13707,14,0.505859375,-0.02740478515625,-0.88824462890625
1759597320276,698837750,13707,15,0.504638671875,-0.02838134765625,-0.88507080078125
1759597320276,698837750,13707,16,0.506103515625,-0.02691650390625,-0.88873291015625
1759597320276,698837750,13707,17,0.505615234375,-0.02593994140625,-0.88629150390625
1759597320276,698837750,13707,18,0.509765625,-0.02325439453125,-0.88360595703125
1759597320276,698837750,13707,19,0.513916015625,-0.02227783203125,-0.87945556640625
1759597320276,698837750,13707,20,0.521728515625,-0.02105712890625,-0.87774658203125
1759597320276,698837750,13707,21,0.525146484375,-0.03057861328125,-0.87139892578125
1759597320276,698837750,13707,22,0.532958984375,-0.03009033203125,-0.86358642578125
1759597320276,698837750,13707,23,0.53662109375,-0.03082275390625,-0.86187744140625
1759597320276,698837750,13707,24,0.534912109375,-0.02911376953125,-0.86334228515625
1759597320276,698837750,13707,25,0.52783203125,-0.02569580078125,-0.86578369140625
1759597320276,698837750,13707,26,0.520263671875,-0.02349853515625,-0.88311767578125
1759597320276,698837750,13707,27,0.5087890625,-0.01251220703125,-0.88653564453125
1759597320276,698837750,13707,28,0.506591796875,-0.01202392578125,-0.89434814453125
1759597320276,698837750,13707,29,0.510986328125,-0.01788330078125,-0.88775634765625
1759597320276,698837750,13707,30,0.515380859375,-0.01495361328125,-0.87530517578125
1759597320276,698837750,13707,31,0.520751953125,-0.01495361328125,-0.85943603515625
1759597322796,698840317,13708,0,0.531982421875,-0.01641845703125,-0.86505126953125
1759597322796,698840317,13708,1,0.541259765625,-0.01568603515625,-0.88311767578125
1759597322796,698840317,13708,2,0.553955078125,-0.02154541015625,-0.82061767578125
1759597322796,698840317,13708,3,0.544677734375,-0.01690673828125,-0.86529541015625
1759597322796,698840317,13708,4,0.53662109375,-0.01129150390625,-0.87164306640625
1759597322796,698840317,13708,5,0.528564453125,-0.01715087890625,-0.87139892578125
1759597322796,698840317,13708,6,0.533447265625,-0.02081298828125,-0.86822509765625
1759597322796,698840317,13708,7,0.529052734375,-0.01763916015625,-0.87017822265625
1759597322796,698840317,13708,8,0.525146484375,-0.01788330078125,-0.87652587890625
1759597322796,698840317,13708,9,0.52587890625,-0.01861572265625,-0.87896728515625
1759597322796,698840317,13708,10,0.529296875,-0.01788330078125,-0.86920166015625
1759597322796,698840317,13708,11,0.52978515625,-0.02008056640625,-0.86773681640625
1759597322796,698840317,13708,12,0.528076171875,-0.01983642578125,-0.87432861328125
1759597322796,698840317,13708,13,0.52294921875,-0.01959228515625,-0.87506103515625
1759597322796,698840317,13708,14,0.52294921875,-0.01568603515625,-0.87481689453125
1759597322796,698840317,13708,15,0.521484375,-0.01568603515625,-0.87530517578125
1759597322796,698840317,13708,16,0.5263671875,-0.01495361328125,-0.87164306640625
1759597322796,698840317,13708,17,0.53369140625,-0.01715087890625,-0.86578369140625
1759597322796,698840317,13708,18,0.535400390625,-0.01690673828125,-0.86627197265625
1759597322796,698840317,13708,19,0.540283203125,-0.01983642578125,-0.85992431640625
1759597322796,698840317,13708,20,0.540771484375,-0.01934814453125,-0.86456298828125
1759597322796,698840317,13708,21,0.539794921875,-0.02130126953125,-0.86260986328125
1759597322796,698840317,13708,22,0.5419921875,-0.02105712890625,-0.85748291015625
1759597322796,698840317,13708,23,0.541015625,-0.01959228515625,-0.87799072265625
1759597322796,698840317,13708,24,0.54248046875,-0.01910400390625,-0.85162353515625
1759597322796,698840317,13708,25,0.538818359375,-0.01934814453125,-0.86187744140625
1759597322796,698840317,13708,26,0.537353515625,-0.01837158203125,-0.86700439453125
1759597322796,698840317,13708,27,0.535400390625,-0.01641845703125,-0.86456298828125
1759597322796,698840317,13708,28,0.536376953125,-0.01861572265625,-0.86431884765625
1759597322796,698840317,13708,29,0.53857421875,-0.01153564453125,-0.87579345703125
1759597322796,698840317,13708,30,0.54345703125,-0.02789306640625,-0.84161376953125
1759597322796,698840317,13708,31,0.538330078125,-0.02471923828125,-0.87017822265625
1759597325317,698842884,13709,0,0.536376953125,-0.02691650390625,-0.86212158203125
1759597325317,698842884,13709,1,0.531005859375,-0.01763916015625,-0.87481689453125
1759597325317,698842884,13709,2,0.528076171875,-0.01934814453125,-0.87066650390625
1759597325317,698842884,13709,3,0.528564453125,-0.02056884765625,-0.87017822265625
1759597325317,698842884,13709,4,0.526611328125,-0.01788330078125,-0.86968994140625
1759597325317,698842884,13709,5,0.52294921875,-0.01544189453125,-0.87628173828125
1759597325317,698842884,13709,6,0.515869140625,-0.01129150390625,-0.87701416015625
1759597325317,698842884,13709,7,0.515625,-0.00982666015625,-0.87823486328125
1759597325317,698842884,13709,8,0.518310546875,-0.01129150390625,-0.87969970703125
1759597325317,698842884,13709,9,0.523681640625,-0.01812744140625,-0.87091064453125
1759597325317,698842884,13709,10,0.523681640625,-0.01983642578125,-0.87359619140625
1759597325317,698842884,13709,11,0.5341796875,-0.01983642578125,-0.87139892578125
1759597325317,698842884,13709,12,0.536376953125,-0.01715087890625,-0.86993408203125
1759597325317,698842884,13709,13,0.5400390625,-0.01837158203125,-0.86016845703125
1759597325317,698842884,13709,14,0.544921875,-0.01983642578125,-0.84503173828125
1759597325317,698842884,13709,15,0.5478515625,-0.01470947265625,-0.86090087890625
1759597325317,698842884,13709,16,0.543212890625,-0.02520751953125,-0.85845947265625
1759597325317,698842884,13709,17,0.539306640625,-0.02496337890625,-0.87261962890625
1759597325317,698842884,13709,18,0.546875,-0.02032470703125,-0.88897705078125
1759597325317,698842884,13709,19,0.594970703125,-0.02691650390625,-0.76739501953125
1759597325317,698842884,13709,20,0.57080078125,-0.01983642578125,-0.83819580078125
1759597325317,698842884,13709,21,0.54296875,-0.01300048828125,-0.86920166015625
1759597325317,698842884,13709,22,0.536376953125,-0.01617431640625,-0.87408447265625
1759597325317,698842884,13709,23,0.533935546875,-0.02056884765625,-0.86212158203125
1759597325317,698842884,13709,24,0.5283203125,-0.02056884765625,-0.87335205078125
1759597325317,698842884,13709,25,0.529296875,-0.01934814453125,-0.87725830078125
1759597325317,698842884,13709,26,0.531982421875,-0.01739501953125,-0.88555908203125
1759597325317,698842884,13709,27,0.570068359375,-0.02618408203125,-0.82769775390625
1759597325317,698842884,13709,28,0.580078125,-0.03082275390625,-0.81182861328125
1759597325317,698842884,13709,29,0.556884765625,-0.02203369140625,-0.85919189453125
1759597325317,698842884,13709,30,0.5498046875,-0.02618408203125,-0.86090087890625
1759597325317,698842884,13709,31,0.53955078125,-0.03302001953125,-0.86309814453125
1759597328016,698845452,13710,0,0.534912109375,-0.02960205078125,-0.87139892578125
1759597328016,698845452,13710,1,0.535888671875,-0.02813720703125,-0.85919189453125
1759597328016,698845452,13710,2,0.530517578125,-0.03009033203125,-0.86749267578125
1759597328016,698845452,13710,3,0.5263671875,-0.02862548828125,-0.87091064453125
1759597328016,698845452,13710,4,0.521484375,-0.02642822265625,-0.87628173828125
1759597328016,698845452,13710,5,0.51953125,-0.02178955078125,-0.88067626953125
1759597328016,698845452,13710,6,0.512939453125,-0.02056884765625,-0.88116455078125
1759597328016,698845452,13710,7,0.51318359375,-0.01934814453125,-0.88092041015625
1759597328016,698845452,13710,8,0.51708984375,-0.01763916015625,-0.88824462890625
1759597328016,698845452,13710,9,0.5322265625,-0.02325439453125,-0.91168212890625
1759597328016,698845452,13710,10,0.58349609375,-0.04693603515625,-0.74981689453125
1759597328016,698845452,13710,11,0.557861328125,-0.03009033203125,-0.87310791015625
1759597328016,698845452,13710,12,0.543212890625,-0.02935791015625,-0.86676025390625
1759597328016,698845452,13710,13,0.535888671875,-0.02276611328125,-0.87237548828125
1759597328016,698845452,13710,14,0.529541015625,-0.02569580078125,-0.86871337890625
1759597328016,698845452,13710,15,0.531494140625,-0.02154541015625,-0.87310791015625
1759597328016,698845452,13710,16,0.529541015625,-0.02178955078125,-0.87457275390625
1759597328016,698845452,13710,17,0.531005859375,-0.02081298828125,-0.87408447265625
1759597328016,698845452,13710,18,0.537841796875,-0.02301025390625,-0.86749267578125
1759597328016,698845452,13710,19,0.545166015625,-0.02423095703125,-0.86138916015625
1759597328016,698845452,13710,20,0.55322265625,-0.02496337890625,-0.84161376953125
1759597328016,698845452,13710,21,0.55517578125,-0.02642822265625,-0.85430908203125
1759597328016,698845452,13710,22,0.5439453125,-0.02374267578125,-0.85845947265625
1759597328016,698845452,13710,23,0.53857421875,-0.02154541015625,-0.86651611328125
1759597328016,698845452,13710,24,0.534423828125,-0.01983642578125,-0.87286376953125
1759597328016,698845452,13710,25,0.53076171875,-0.02178955078125,-0.86993408203125
1759597328016,698845452,13710,26,0.53173828125,-0.02130126953125,-0.87603759765625
1759597328016,698845452,13710,27,0.5390625,-0.02227783203125,-0.86798095703125
1759597328016,698845452,13710,28,0.549072265625,-0.02276611328125,-0.84307861328125
1759597328016,698845452,13710,29,0.537353515625,-0.01910400390625,-0.86553955078125
1759597328016,698845452,13710,30,0.529296875,-0.01690673828125,-0.87628173828125
1759597328016,698845452,13710,31,0.532470703125,-0.01885986328125,-0.86627197265625
1759597330536,698848019,13711,0,0.532958984375,-0.01959228515625,-0.86749267578125
1759597330536,698848019,13711,1,0.5302734375,-0.01885986328125,-0.87359619140625
1759597330536,698848019,13711,2,0.52978515625,-0.01544189453125,-0.86651611328125
1759597330536,698848019,13711,3,0.52587890625,-0.01715087890625,-0.87042236328125
1759597330536,698848019,13711,4,0.5283203125,-0.01568603515625,-0.87432861328125
1759597330536,698848019,13711,5,0.529541015625,-0.01568603515625,-0.87310791015625
1759597330536,698848019,13711,6,0.529052734375,-0.01812744140625,-0.86993408203125
1759597330536,698848019,13711,7,0.526611328125,-0.01544189453125,-0.87310791015625
1759597330536,698848019,13711,8,0.529541015625,-0.01666259765625,-0.87554931640625
1759597330536,698848019,13711,9,0.532958984375,-0.01690673828125,-0.86724853515625
1759597330536,698848019,13711,10,0.535400390625,-0.01739501953125,-0.87091064453125
1759597330536,698848019,13711,11,0.535888671875,-0.01739501953125,-0.86041259765625
1759597330536,698848019,13711,12,0.535400390625,-0.02008056640625,-0.86749267578125
1759597330536,698848019,13711,13,0.533447265625,-0.02325439453125,-0.86920166015625
1759597330536,698848019,13711,14,0.531005859375,-0.01934814453125,-0.86749267578125
1759597330536,698848019,13711,15,0.530029296875,-0.02081298828125,-0.86529541015625
1759597330536,698848019,13711,16,0.531982421875,-0.02032470703125,-0.87384033203125
1759597330536,698848019,13711,17,0.530029296875,-0.02325439453125,-0.86895751953125
1759597330536,698848019,13711,18,0.531494140625,-0.02349853515625,-0.86920166015625
1759597330536,698848019,13711,19,0.530517578125,-0.02349853515625,-0.87017822265625
1759597330536,698848019,13711,20,0.5361328125,-0.02740478515625,-0.87139892578125
1759597330536,698848019,13711,21,0.539306640625,-0.02984619140625,-0.85797119140625
1759597330536,698848019,13711,22,0.535400390625,-0.02618408203125,-0.87091064453125
1759597330536,698848019,13711,23,0.532958984375,-0.02593994140625,-0.87188720703125
1759597330536,698848019,13711,24,0.54248046875,-0.03179931640625,-0.86749267578125
1759597330536,698848019,13711,25,0.548095703125,-0.03375244140625,-0.84625244140625
1759597330536,698848019,13711,26,0.542236328125,-0.03302001953125,-0.86358642578125
1759597330536,698848019,13711,27,0.5390625,-0.03082275390625,-0.87213134765625
1759597330536,698848019,13711,28,0.553466796875,-0.03570556640625,-0.86236572265625
1759597330536,698848019,13711,29,0.561279296875,-0.04522705078125,-0.80474853515625
1759597330536,698848019,13711,30,0.546630859375,-0.03717041015625,-0.88214111328125
1759597330536,698848019,13711,31,0.541259765625,-0.03692626953125,-0.85675048828125
1759597333056,698850586,13712,0,0.53564453125,-0.03204345703125,-0.86724853515625
1759597333056,698850586,13712,1,0.533935546875,-0.02618408203125,-0.87286376953125
1759597333056,698850586,13712,2,0.531494140625,-0.02593994140625,-0.86407470703125
1759597333056,698850586,13712,3,0.53076171875,-0.02593994140625,-0.87139892578125
1759597333056,698850586,13712,4,0.530517578125,-0.02130126953125,-0.86798095703125
1759597333056,698850586,13712,5,0.528564453125,-0.02130126953125,-0.87164306640625
1759597333056,698850586,13712,6,0.530029296875,-0.02349853515625,-0.87017822265625
1759597333056,698850586,13712,7,0.529541015625,-0.02178955078125,-0.86968994140625
1759597333056,698850586,13712,8,0.5302734375,-0.02008056640625,-0.87432861328125
1759597333056,698850586,13712,9,0.531494140625,-0.02081298828125,-0.86920166015625
1759597333056,698850586,13712,10,0.535400390625,-0.02276611328125,-0.86749267578125
1759597333056,698850586,13712,11,0.53564453125,-0.02349853515625,-0.86480712890625
1759597333056,698850586,13712,12,0.537841796875,-0.02227783203125,-0.86383056640625
1759597333056,698850586,13712,13,0.537841796875,-0.02642822265625,-0.86651611328125
1759597333056,698850586,13712,14,0.541748046875,-0.02520751953125,-0.85919189453125
1759597333056,698850586,13712,15,0.541748046875,-0.02471923828125,-0.85333251953125
1759597333056,698850586,13712,16,0.537109375,-0.02301025390625,-0.87408447265625
1759597333056,698850586,13712,17,0.53466796875,-0.02642822265625,-0.86285400390625
1759597333056,698850586,13712,18,0.535888671875,-0.02398681640625,-0.87335205078125
1759597333056,698850586,13712,19,0.543701171875,-0.02642822265625,-0.88165283203125
1759597333056,698850586,13712,20,0.56689453125,-0.03424072265625,-0.81036376953125
1759597333056,698850586,13712,21,0.552490234375,-0.02813720703125,-0.85992431640625
1759597333056,698850586,13712,22,0.54345703125,-0.02374267578125,-0.86529541015625
1759597333056,698850586,13712,23,0.53857421875,-0.01788330078125,-0.87506103515625
1759597333056,698850586,13712,24,0.543701171875,-0.01715087890625,-0.86773681640625
1759597333056,698850586,13712,25,0.564208984375,-0.02642822265625,-0.83013916015625
1759597333056,698850586,13712,26,0.563720703125,-0.02276611328125,-0.83209228515625
1759597333056,698850586,13712,27,0.538818359375,-0.01251220703125,-0.87603759765625
1759597333056,698850586,13712,28,0.531005859375,-0.01885986328125,-0.87652587890625
1759597333056,698850586,13712,29,0.5263671875,-0.01934814453125,-0.87286376953125
1759597333056,698850586,13712,30,0.52880859375,-0.02203369140625,-0.86724853515625
1759597333056,698850586,13712,31,0.52880859375,-0.01885986328125,-0.87017822265625
1759597335758,698853153,13713,0,0.52197265625,-0.02301025390625,-0.86602783203125
1759597335758,698853153,13713,1,0.529052734375,-0.01959228515625,-0.89385986328125
1759597335758,698853153,13713,2,0.537109375,-0.03277587890625,-0.84942626953125
1759597335758,698853153,13713,3,0.536376953125,-0.03179931640625,-0.86968994140625
1759597335758,698853153,13713,4,0.530029296875,-0.03082275390625,-0.86773681640625
1759597335758,698853153,13713,5,0.52197265625,-0.02398681640625,-0.87847900390625
1759597335758,698853153,13713,6,0.5185546875,-0.02032470703125,-0.87457275390625
1759597335758,698853153,13713,7,0.51904296875,-0.02423095703125,-0.87750244140625
1759597335758,698853153,13713,8,0.518798828125,-0.01837158203125,-0.88482666015625
1759597335758,698853153,13713,9,0.5390625,-0.03204345703125,-0.87017822265625
1759597335758,698853153,13713,10,0.5625,-0.03985595703125,-0.81402587890625
1759597335758,698853153,13713,11,0.54052734375,-0.02740478515625,-0.87042236328125
1759597335758,698853153,13713,12,0.522216796875,-0.02325439453125,-0.87872314453125
1759597335758,698853153,13713,13,0.518798828125,-0.02325439453125,-0.88238525390625
1759597335758,698853153,13713,14,0.518798828125,-0.02398681640625,-0.87359619140625
1759597335758,698853153,13713,15,0.52392578125,-0.02349853515625,-0.88604736328125
1759597335758,698853153,13713,16,0.54443359375,-0.02398681640625,-0.85260009765625
1759597335758,698853153,13713,17,0.54736328125,-0.02691650390625,-0.82916259765625
1759597335758,698853153,13713,18,0.52880859375,-0.02838134765625,-0.88800048828125
1759597335758,698853153,13713,19,0.522705078125,-0.02764892578125,-0.87432861328125
1759597335758,698853153,13713,20,0.52001953125,-0.02056884765625,-0.88507080078125
1759597335758,698853153,13713,21,0.520751953125,-0.02374267578125,-0.87408447265625
1759597335758,698853153,13713,22,0.5224609375,-0.02520751953125,-0.87384033203125
1759597335758,698853153,13713,23,0.5205078125,-0.02227783203125,-0.87603759765625
1759597335758,698853153,13713,24,0.51953125,-0.01885986328125,-0.88433837890625
1759597335758,698853153,13713,25,0.53466796875,-0.02349853515625,-0.93536376953125
1759597335758,698853153,13713,26,0.604736328125,-0.05059814453125,-0.71197509765625
1759597335758,698853153,13713,27,0.57421875,-0.05523681640625,-0.83868408203125
1759597335758,698853153,13713,28,0.548095703125,-0.02813720703125,-0.87115478515625
1759597335758,698853153,13713,29,0.52734375,-0.01739501953125,-0.87823486328125
1759597335758,698853153,13713,30,0.518310546875,-0.01690673828125,-0.88189697265625
1759597335758,698853153,13713,31,0.518310546875,-0.02471923828125,-0.87652587890625
1759597338280,698855720,13714,0,0.519775390625,-0.02227783203125,-0.87554931640625
1759597338280,698855720,13714,1,0.517822265625,-0.01861572265625,-0.87677001953125
1759597338280,698855720,13714,2,0.51953125,-0.01641845703125,-0.87921142578125
1759597338280,698855720,13714,3,0.51953125,-0.01666259765625,-0.87725830078125
1759597338280,698855720,13714,4,0.517822265625,-0.01275634765625,-0.87823486328125
1759597338280,698855720,13714,5,0.515869140625,-0.01055908203125,-0.87579345703125
1759597338280,698855720,13714,6,0.515869140625,-0.01104736328125,-0.87579345703125
1759597338280,698855720,13714,7,0.515625,-0.00909423828125,-0.87677001953125
1759597338280,698855720,13714,8,0.5146484375,-0.01055908203125,-0.88165283203125
1759597338280,698855720,13714,9,0.516845703125,-0.00811767578125,-0.87847900390625
1759597338280,698855720,13714,10,0.51904296875,-0.00714111328125,-0.87969970703125
1759597338280,698855720,13714,11,0.51953125,-0.00958251953125,-0.87506103515625
1759597338280,698855720,13714,12,0.51953125,-0.00689697265625,-0.87554931640625
1759597338280,698855720,13714,13,0.519775390625,-0.00665283203125,-0.87652587890625
1759597338280,698855720,13714,14,0.52099609375,-0.00787353515625,-0.87506103515625
1759597338280,698855720,13714,15,0.52197265625,-0.00518798828125,-0.87554931640625
1759597338280,698855720,13714,16,0.531494140625,-0.00811767578125,-0.86798095703125
1759597338280,698855720,13714,17,0.53515625,-0.01934814453125,-0.87335205078125
1759597338280,698855720,13714,18,0.536376953125,-0.02203369140625,-0.85455322265625
1759597338280,698855720,13714,19,0.53076171875,-0.01739501953125,-0.86724853515625
1759597338280,698855720,13714,20,0.519287109375,-0.01959228515625,-0.88214111328125
1759597338280,698855720,13714,21,0.517333984375,-0.02447509765625,-0.87799072265625
1759597338280,698855720,13714,22,0.50927734375,-0.02154541015625,-0.88726806640625
1759597338280,698855720,13714,23,0.50732421875,-0.01885986328125,-0.88336181640625
1759597338280,698855720,13714,24,0.51025390625,-0.01861572265625,-0.88726806640625
1759597338280,698855720,13714,25,0.51171875,-0.01715087890625,-0.87945556640625
1759597338280,698855720,13714,26,0.5146484375,-0.01422119140625,-0.89117431640625
1759597338280,698855720,13714,27,0.52294921875,-0.02447509765625,-0.86016845703125
1759597338280,698855720,13714,28,0.5263671875,-0.02935791015625,-0.87237548828125
1759597338280,698855720,13714,29,0.522216796875,-0.02935791015625,-0.87335205078125
1759597338280,698855720,13714,30,0.516845703125,-0.02081298828125,-0.87896728515625
1759597338280,698855720,13714,31,0.51904296875,-0.01812744140625,-0.87799072265625
1759597340797,698858287,13715,0,0.521240234375,-0.01861572265625,-0.87701416015625
1759597340797,698858287,13715,1,0.525146484375,-0.02056884765625,-0.86920166015625
1759597340797,698858287,13715,2,0.52490234375,-0.01837158203125,-0.87091064453125
1759597340797,698858287,13715,3,0.52001953125,-0.01641845703125,-0.87896728515625
1759597340797,698858287,13715,4,0.5166015625,-0.01715087890625,-0.87725830078125
1759597340797,698858287,13715,5,0.5205078125,-0.01666259765625,-0.87945556640625
1759597340797,698858287,13715,6,0.52001953125,-0.01617431640625,-0.87603759765625
1759597340797,698858287,13715,7,0.51904296875,-0.01324462890625,-0.87677001953125
1759597340797,698858287,13715,8,0.517578125,-0.01251220703125,-0.87554931640625
1759597340797,698858287,13715,9,0.519287109375,-0.01202392578125,-0.88018798828125
1759597340797,698858287,13715,10,0.517578125,-0.01007080078125,-0.87725830078125
1759597340797,698858287,13715,11,0.520263671875,-0.01080322265625,-0.87579345703125
1759597340797,698858287,13715,12,0.51806640625,-0.00958251953125,-0.87872314453125
1759597340797,698858287,13715,13,0.51904296875,-0.01031494140625,-0.88433837890625
1759597340797,698858287,13715,14,0.51904296875,-0.01446533203125,-0.86676025390625
1759597340797,698858287,13715,15,0.51708984375,-0.01568603515625,-0.88629150390625
1759597340797,698858287,13715,16,0.51708984375,-0.02252197265625,-0.87188720703125
1759597340797,698858287,13715,17,0.51318359375,-0.01397705078125,-0.88604736328125
1759597340797,698858287,13715,18,0.5146484375,-0.01275634765625,-0.88604736328125
1759597340797,698858287,13715,19,0.5185546875,-0.02130126953125,-0.87750244140625
1759597340797,698858287,13715,20,0.522216796875,-0.02642822265625,-0.87017822265625
1759597340797,698858287,13715,21,0.52099609375,-0.02374267578125,-0.86798095703125
1759597340797,698858287,13715,22,0.5166015625,-0.01885986328125,-0.89971923828125
1759597340797,698858287,13715,23,0.534423828125,-0.02276611328125,-0.88067626953125
1759597340797,698858287,13715,24,0.55419921875,-0.03131103515625,-0.81793212890625
1759597340797,698858287,13715,25,0.54248046875,-0.03179931640625,-0.86846923828125
1759597340797,698858287,13715,26,0.53125,-0.02716064453125,-0.86602783203125
1759597340797,698858287,13715,27,0.52099609375,-0.02081298828125,-0.88555908203125
1759597340797,698858287,13715,28,0.521240234375,-0.02252197265625,-0.87432861328125
1759597340797,698858287,13715,29,0.520263671875,-0.01861572265625,-0.88262939453125
1759597340797,698858287,13715,30,0.53662109375,-0.02593994140625,-0.89141845703125
1759597340797,698858287,13715,31,0.57373046875,-0.04351806640625,-0.77764892578125
1759597343496,698860854,13716,0,0.545166015625,-0.03350830078125,-0.88653564453125
1759597343496,698860854,13716,1,0.531494140625,-0.02886962890625,-0.86260986328125
1759597343496,698860854,13716,2,0.51904296875,-0.02081298828125,-0.88507080078125
1759597343496,698860854,13716,3,0.5107421875,-0.02374267578125,-0.88409423828125
1759597343496,698860854,13716,4,0.51123046875,-0.01837158203125,-0.88287353515625
1759597343496,698860854,13716,5,0.51318359375,-0.01544189453125,-0.88360595703125
1759597343496,698860854,13716,6,0.509765625,-0.01446533203125,-0.87799072265625
1759597343496,698860854,13716,7,0.51025390625,-0.01446533203125,-0.88360595703125
1759597343496,698860854,13716,8,0.51220703125,-0.01568603515625,-0.88043212890625
1759597343496,698860854,13716,9,0.512451171875,-0.01470947265625,-0.88018798828125
1759597343496,698860854,13716,10,0.51611328125,-0.01300048828125,-0.87823486328125
1759597343496,698860854,13716,11,0.51513671875,-0.01470947265625,-0.87701416015625
1759597343496,698860854,13716,12,0.5185546875,-0.01300048828125,-0.87896728515625
1759597343496,698860854,13716,13,0.51904296875,-0.01153564453125,-0.87799072265625
1759597343496,698860854,13716,14,0.517578125,-0.01495361328125,-0.88214111328125
1759597343496,698860854,13716,15,0.519775390625,-0.01715087890625,-0.86749267578125
1759597343496,698860854,13716,16,0.5205078125,-0.01739501953125,-0.88385009765625
1759597343496,698860854,13716,17,0.52001953125,-0.01641845703125,-0.87017822265625
1759597343496,698860854,13716,18,0.512451171875,-0.01177978515625,-0.88726806640625
1759597343496,698860854,13716,19,0.509033203125,-0.01422119140625,-0.88214111328125
1759597343496,698860854,13716,20,0.507568359375,-0.01666259765625,-0.88726806640625
1759597343496,698860854,13716,21,0.510986328125,-0.02032470703125,-0.87896728515625
1759597343496,698860854,13716,22,0.514404296875,-0.01885986328125,-0.87921142578125
1759597343496,698860854,13716,23,0.51171875,-0.01934814453125,-0.87506103515625
1759597343496,698860854,13716,24,0.5146484375,-0.01812744140625,-0.88629150390625
1759597343496,698860854,13716,25,0.517822265625,-0.02154541015625,-0.87628173828125
1759597343496,698860854,13716,26,0.515380859375,-0.02349853515625,-0.88336181640625
1759597343496,698860854,13716,27,0.514892578125,-0.02227783203125,-0.87554931640625
1759597343496,698860854,13716,28,0.510986328125,-0.02178955078125,-0.88116455078125
1759597343496,698860854,13716,29,0.51318359375,-0.02227783203125,-0.88092041015625
1759597343496,698860854,13716,30,0.51171875,-0.02056884765625,-0.87310791015625
1759597343496,698860854,13716,31,0.513916015625,-0.01934814453125,-0.88824462890625
1759597346016,698863421,13717,0,0.5283203125,-0.02301025390625,-0.88287353515625
1759597346016,698863421,13717,1,0.54736328125,-0.03253173828125,-0.82281494140625
1759597346016,698863421,13717,2,0.53564453125,-0.02789306640625,-0.87750244140625
1759597346016,698863421,13717,3,0.52685546875,-0.02618408203125,-0.87017822265625
1759597346016,698863421,13717,4,0.5205078125,-0.02105712890625,-0.87750244140625
1759597346016,698863421,13717,5,0.515625,-0.02276611328125,-0.87896728515625
1759597346016,698863421,13717,6,0.513427734375,-0.02105712890625,-0.88262939453125
1759597346016,698863421,13717,7,0.523193359375,-0.02252197265625,-0.89825439453125
1759597346016,698863421,13717,8,0.550048828125,-0.03204345703125,-0.83941650390625
1759597346016,698863421,13717,9,0.55322265625,-0.04254150390625,-0.83966064453125
1759597346016,698863421,13717,10,0.5361328125,-0.02984619140625,-0.87921142578125
1759597346016,698863421,13717,11,0.52685546875,-0.03009033203125,-0.87213134765625
1759597346016,698863421,13717,12,0.524169921875,-0.02789306640625,-0.87579345703125
1759597346016,698863421,13717,13,0.522705078125,-0.02764892578125,-0.87750244140625
1759597346016,698863421,13717,14,0.52783203125,-0.02447509765625,-0.89361572265625
1759597346016,698863421,13717,15,0.550537109375,-0.03765869140625,-0.82720947265625
1759597346016,698863421,13717,16,0.545166015625,-0.03277587890625,-0.86700439453125
1759597346016,698863421,13717,17,0.53662109375,-0.03057861328125,-0.86505126953125
1759597346016,698863421,13717,18,0.53662109375,-0.03106689453125,-0.86553955078125
1759597346016,698863421,13717,19,0.534423828125,-0.03057861328125,-0.87237548828125
1759597346016,698863421,13717,20,0.53271484375,-0.03033447265625,-0.87213134765625
1759597346016,698863421,13717,21,0.538818359375,-0.03033447265625,-0.86578369140625
1759597346016,698863421,13717,22,0.54150390625,-0.03302001953125,-0.84649658203125
1759597346016,698863421,13717,23,0.53271484375,-0.03253173828125,-0.87213134765625
1759597346016,698863421,13717,24,0.51904296875,-0.02838134765625,-0.87701416015625
1759597346016,698863421,13717,25,0.512451171875,-0.02178955078125,-0.88311767578125
1759597346016,698863421,13717,26,0.51171875,-0.01934814453125,-0.88311767578125
1759597346016,698863421,13717,27,0.512451171875,-0.02056884765625,-0.88238525390625
1759597346016,698863421,13717,28,0.5107421875,-0.02227783203125,-0.87847900390625
1759597346016,698863421,13717,29,0.510009765625,-0.01837158203125,-0.88116455078125
1759597346016,698863421,13717,30,0.51025390625,-0.01885986328125,-0.88189697265625
1759597346016,698863421,13717,31,0.51025390625,-0.02032470703125,-0.88726806640625
1759597346018,698863421,13717,0,0.5283203125,-0.02301025390625,-0.88287353515625
1759597346018,698863421,13717,1,0.54736328125,-0.03253173828125,-0.82281494140625
1759597346018,698863421,13717,2,0.53564453125,-0.02789306640625,-0.87750244140625
1759597346018,698863421,13717,3,0.52685546875,-0.02618408203125,-0.87017822265625
1759597346018,698863421,13717,4,0.5205078125,-0.02105712890625,-0.87750244140625
1759597346018,698863421,13717,5,0.515625,-0.02276611328125,-0.87896728515625
1759597346018,698863421,13717,6,0.513427734375,-0.02105712890625,-0.88262939453125
1759597346018,698863421,13717,7,0.523193359375,-0.02252197265625,-0.89825439453125
1759597346018,698863421,13717,8,0.550048828125,-0.03204345703125,-0.83941650390625
1759597346018,698863421,13717,9,0.55322265625,-0.04254150390625,-0.83966064453125
1759597346018,698863421,13717,10,0.5361328125,-0.02984619140625,-0.87921142578125
1759597346018,698863421,13717,11,0.52685546875,-0.03009033203125,-0.87213134765625
1759597346018,698863421,13717,12,0.524169921875,-0.02789306640625,-0.87579345703125
1759597346018,698863421,13717,13,0.522705078125,-0.02764892578125,-0.87750244140625
1759597346018,698863421,13717,14,0.52783203125,-0.02447509765625,-0.89361572265625
1759597346018,698863421,13717,15,0.550537109375,-0.03765869140625,-0.82720947265625
1759597346018,698863421,13717,16,0.545166015625,-0.03277587890625,-0.86700439453125
1759597346018,698863421,13717,17,0.53662109375,-0.03057861328125,-0.86505126953125
1759597346018,698863421,13717,18,0.53662109375,-0.03106689453125,-0.86553955078125
1759597346018,698863421,13717,19,0.534423828125,-0.03057861328125,-0.87237548828125
1759597346018,698863421,13717,20,0.53271484375,-0.03033447265625,-0.87213134765625
1759597346018,698863421,13717,21,0.538818359375,-0.03033447265625,-0.86578369140625
1759597346018,698863421,13717,22,0.54150390625,-0.03302001953125,-0.84649658203125
1759597346018,698863421,13717,23,0.53271484375,-0.03253173828125,-0.87213134765625
1759597346018,698863421,13717,24,0.51904296875,-0.02838134765625,-0.87701416015625
1759597346018,698863421,13717,25,0.512451171875,-0.02178955078125,-0.88311767578125
1759597346018,698863421,13717,26,0.51171875,-0.01934814453125,-0.88311767578125
