receivedPhoneTimestamp,respeckTimestamp,packetSeqNum,sampleSeqNum,accelX,accelY,accelZ
1760000843454,1124555760,12074,31,0.4814453125,0.07318115234375,-0.86383056640625
1760000845796,1124558279,12075,0,0.4833984375,0.06829833984375,-0.85919189453125
1760000845796,1124558279,12075,1,0.48779296875,0.06463623046875,-0.86676025390625
1760000845796,1124558279,12075,2,0.474609375,0.06756591796875,-0.84893798828125
1760000845796,1124558279,12075,3,0.460693359375,0.08319091796875,-0.86065673828125
1760000845796,1124558279,12075,4,0.493896484375,0.09295654296875,-0.87164306640625
1760000845796,1124558279,12075,5,0.505859375,0.09222412109375,-0.85626220703125
1760000845796,1124558279,12075,6,0.51904296875,0.09735107421875,-0.82501220703125
1760000845796,1124558279,12075,7,0.600341796875,0.10174560546875,-0.80181884765625
1760000845796,1124558279,12075,8,0.578369140625,0.05072021484375,-0.66021728515625
1760000845796,1124558279,12075,9,0.635498046875,0.08294677734375,-0.78936767578125
1760000845796,1124558279,12075,10,0.6103515625,0.09783935546875,-0.85504150390625
1760000845796,1124558279,12075,11,0.549560546875,0.09222412109375,-0.80450439453125
1760000845796,1124558279,12075,12,0.621337890625,0.10540771484375,-0.84820556640625
1760000845796,1124558279,12075,13,0.572509765625,0.03973388671875,-0.65875244140625
1760000845796,1124558279,12075,14,0.613525390625,0.06390380859375,-0.74615478515625
1760000845796,1124558279,12075,15,0.60986328125,0.08221435546875,-0.81011962890625
1760000845796,1124558279,12075,16,0.581298828125,0.08050537109375,-0.80377197265625
1760000845796,1124558279,12075,17,0.550537109375,0.08392333984375,-0.82086181640625
1760000845796,1124558279,12075,18,0.525634765625,0.08514404296875,-0.83428955078125
1760000845796,1124558279,12075,19,0.519287109375,0.08319091796875,-0.83453369140625
1760000845796,1124558279,12075,20,0.510009765625,0.08270263671875,-0.84259033203125
1760000845796,1124558279,12075,21,0.494384765625,0.08441162109375,-0.85186767578125
1760000845796,1124558279,12075,22,0.478515625,0.07855224609375,-0.85577392578125
1760000845796,1124558279,12075,23,0.480224609375,0.07366943359375,-0.86920166015625
1760000845796,1124558279,12075,24,0.47265625,0.07318115234375,-0.86065673828125
1760000845796,1124558279,12075,25,0.466796875,0.08856201171875,-0.85968017578125
1760000845796,1124558279,12075,26,0.49072265625,0.09490966796875,-0.85968017578125
1760000845796,1124558279,12075,27,0.511962890625,0.09197998046875,-0.85797119140625
1760000845796,1124558279,12075,28,0.541259765625,0.10443115234375,-0.92413330078125
1760000845796,1124558279,12075,29,0.6103515625,0.05316162109375,-0.69122314453125
1760000845796,1124558279,12075,30,0.572265625,0.02581787109375,-0.65509033203125
1760000845796,1124558279,12075,31,0.623046875,0.06829833984375,-0.84185791015625
1760000848316,1124560798,12076,0,0.594970703125,0.05731201171875,-0.79058837890625
1760000848316,1124560798,12076,1,0.577880859375,0.05828857421875,-0.78228759765625
1760000848316,1124560798,12076,2,0.5751953125,0.07000732421875,-0.80035400390625
1760000848316,1124560798,12076,3,0.562255859375,0.08099365234375,-0.81231689453125
1760000848316,1124560798,12076,4,0.546875,0.08758544921875,-0.82989501953125
1760000848316,1124560798,12076,5,0.52880859375,0.08612060546875,-0.82867431640625
1760000848316,1124560798,12076,6,0.52392578125,0.08489990234375,-0.82598876953125
1760000848316,1124560798,12076,7,0.520263671875,0.08953857421875,-0.83843994140625
1760000848316,1124560798,12076,8,0.51123046875,0.08880615234375,-0.83721923828125
1760000848316,1124560798,12076,9,0.503173828125,0.09002685546875,-0.84503173828125
1760000848316,1124560798,12076,10,0.494384765625,0.08319091796875,-0.84698486328125
1760000848316,1124560798,12076,11,0.487548828125,0.08221435546875,-0.85723876953125
1760000848316,1124560798,12076,12,0.484619140625,0.08074951171875,-0.86016845703125
1760000848316,1124560798,12076,13,0.479736328125,0.07586669921875,-0.86456298828125
1760000848316,1124560798,12076,14,0.480712890625,0.07098388671875,-0.86260986328125
1760000848316,1124560798,12076,15,0.4873046875,0.06756591796875,-0.86529541015625
1760000848316,1124560798,12076,16,0.466552734375,0.06414794921875,-0.85089111328125
1760000848316,1124560798,12076,17,0.47509765625,0.08734130859375,-0.86968994140625
1760000848316,1124560798,12076,18,0.51220703125,0.08758544921875,-0.86895751953125
1760000848316,1124560798,12076,19,0.548095703125,0.09808349609375,-0.90216064453125
1760000848316,1124560798,12076,20,0.615966796875,0.05560302734375,-0.72467041015625
1760000848316,1124560798,12076,21,0.570556640625,0.02337646484375,-0.67559814453125
1760000848316,1124560798,12076,22,0.6201171875,0.04998779296875,-0.80596923828125
1760000848316,1124560798,12076,23,0.600830078125,0.05780029296875,-0.82379150390625
1760000848316,1124560798,12076,24,0.5947265625,0.04754638671875,-0.76739501953125
1760000848316,1124560798,12076,25,0.583740234375,0.04925537109375,-0.76300048828125
1760000848316,1124560798,12076,26,0.588623046875,0.06072998046875,-0.79302978515625
1760000848316,1124560798,12076,27,0.57421875,0.07440185546875,-0.81964111328125
1760000848316,1124560798,12076,28,0.539794921875,0.08270263671875,-0.83551025390625
1760000848316,1124560798,12076,29,0.517822265625,0.08172607421875,-0.83648681640625
1760000848316,1124560798,12076,30,0.510498046875,0.08148193359375,-0.83843994140625
1760000848316,1124560798,12076,31,0.501708984375,0.08123779296875,-0.85040283203125
1760000850657,1124563311,12077,0,0.4970703125,0.07684326171875,-0.85430908203125
1760000850657,1124563311,12077,1,0.48583984375,0.07757568359375,-0.85382080078125
1760000850657,1124563311,12077,2,0.486083984375,0.07415771484375,-0.86334228515625
1760000850657,1124563311,12077,3,0.4833984375,0.07269287109375,-0.86285400390625
1760000850657,1124563311,12077,4,0.478271484375,0.07098388671875,-0.85308837890625
1760000850657,1124563311,12077,5,0.47900390625,0.08221435546875,-0.86041259765625
1760000850657,1124563311,12077,6,0.520751953125,0.09075927734375,-0.86968994140625
1760000850657,1124563311,12077,7,0.609130859375,0.08734130859375,-0.87213134765625
1760000850657,1124563311,12077,8,0.543701171875,0.01507568359375,-0.64385986328125
1760000850657,1124563311,12077,9,0.6015625,0.04559326171875,-0.76617431640625
1760000850657,1124563311,12077,10,0.600341796875,0.05072021484375,-0.81817626953125
1760000850657,1124563311,12077,11,0.57958984375,0.06243896484375,-0.82647705078125
1760000850657,1124563311,12077,12,0.541748046875,0.06951904296875,-0.82135009765625
1760000850657,1124563311,12077,13,0.512939453125,0.07073974609375,-0.83258056640625
1760000850657,1124563311,12077,14,0.505615234375,0.06829833984375,-0.85186767578125
1760000850657,1124563311,12077,15,0.497802734375,0.06756591796875,-0.85504150390625
1760000850657,1124563311,12077,16,0.48583984375,0.07073974609375,-0.86065673828125
1760000850657,1124563311,12077,17,0.478515625,0.06585693359375,-0.85845947265625
1760000850657,1124563311,12077,18,0.484375,0.06219482421875,-0.86578369140625
1760000850657,1124563311,12077,19,0.483642578125,0.06121826171875,-0.86676025390625
1760000850657,1124563311,12077,20,0.472900390625,0.06072998046875,-0.85943603515625
1760000850657,1124563311,12077,21,0.47802734375,0.06170654296875,-0.86773681640625
1760000850657,1124563311,12077,22,0.478271484375,0.06121826171875,-0.86846923828125
1760000850657,1124563311,12077,23,0.47412109375,0.06072998046875,-0.86676025390625
1760000850657,1124563311,12077,24,0.46435546875,0.06829833984375,-0.86553955078125
1760000850657,1124563311,12077,25,0.48193359375,0.07855224609375,-0.87750244140625
1760000850657,1124563311,12077,26,0.509521484375,0.08026123046875,-0.87579345703125
1760000850657,1124563311,12077,27,0.590087890625,0.08221435546875,-0.87677001953125
1760000850657,1124563311,12077,28,0.572509765625,0.02557373046875,-0.67828369140625
1760000850657,1124563311,12077,29,0.589111328125,0.02679443359375,-0.71636962890625
1760000850657,1124563311,12077,30,0.6162109375,0.04412841796875,-0.82501220703125
1760000850657,1124563311,12077,31,0.5908203125,0.05364990234375,-0.82208251953125
1760000853178,1124565830,12078,0,0.6259765625,0.05877685546875,-0.86260986328125
1760000853178,1124565830,12078,1,0.572998046875,0.00482177734375,-0.66680908203125
1760000853178,1124565830,12078,2,0.591064453125,0.02142333984375,-0.72564697265625
1760000853178,1124565830,12078,3,0.606201171875,0.03558349609375,-0.81060791015625
1760000853178,1124565830,12078,4,0.582275390625,0.05438232421875,-0.82818603515625
1760000853178,1124565830,12078,5,0.55078125,0.06292724609375,-0.84136962890625
1760000853178,1124565830,12078,6,0.509033203125,0.06268310546875,-0.83404541015625
1760000853178,1124565830,12078,7,0.495849609375,0.06195068359375,-0.85113525390625
1760000853178,1124565830,12078,8,0.4912109375,0.07098388671875,-0.86627197265625
1760000853178,1124565830,12078,9,0.476318359375,0.06854248046875,-0.86212158203125
1760000853178,1124565830,12078,10,0.468505859375,0.06097412109375,-0.86700439453125
1760000853178,1124565830,12078,11,0.472412109375,0.05853271484375,-0.87042236328125
1760000853178,1124565830,12078,12,0.47802734375,0.05657958984375,-0.86407470703125
1760000853178,1124565830,12078,13,0.4794921875,0.05047607421875,-0.86553955078125
1760000853178,1124565830,12078,14,0.458251953125,0.05487060546875,-0.85919189453125
1760000853178,1124565830,12078,15,0.4658203125,0.06683349609375,-0.88409423828125
1760000853178,1124565830,12078,16,0.479248046875,0.06634521484375,-0.88751220703125
1760000853178,1124565830,12078,17,0.5146484375,0.06317138671875,-0.85430908203125
1760000853178,1124565830,12078,18,0.548828125,0.06268310546875,-0.81964111328125
1760000853178,1124565830,12078,19,0.61669921875,0.07122802734375,-0.82208251953125
1760000853178,1124565830,12078,20,0.577880859375,0.01922607421875,-0.68243408203125
1760000853178,1124565830,12078,21,0.60205078125,0.01654052734375,-0.73931884765625
1760000853178,1124565830,12078,22,0.614501953125,0.04876708984375,-0.83892822265625
1760000853178,1124565830,12078,23,0.5751953125,0.05218505859375,-0.81451416015625
1760000853178,1124565830,12078,24,0.571044921875,0.04486083984375,-0.78692626953125
1760000853178,1124565830,12078,25,0.566650390625,0.04949951171875,-0.77764892578125
1760000853178,1124565830,12078,26,0.571044921875,0.06243896484375,-0.82281494140625
1760000853178,1124565830,12078,27,0.558837890625,0.06317138671875,-0.83160400390625
1760000853178,1124565830,12078,28,0.53369140625,0.06781005859375,-0.82965087890625
1760000853178,1124565830,12078,29,0.525390625,0.07171630859375,-0.83404541015625
1760000853178,1124565830,12078,30,0.513427734375,0.07659912109375,-0.83160400390625
1760000853178,1124565830,12078,31,0.513671875,0.07781982421875,-0.83966064453125
1760000855695,1124568349,12079,0,0.494873046875,0.07806396484375,-0.84503173828125
1760000855695,1124568349,12079,1,0.4892578125,0.08148193359375,-0.86651611328125
1760000855695,1124568349,12079,2,0.478759765625,0.08001708984375,-0.86578369140625
1760000855695,1124568349,12079,3,0.46923828125,0.07513427734375,-0.86358642578125
1760000855695,1124568349,12079,4,0.460693359375,0.07464599609375,-0.87188720703125
1760000855695,1124568349,12079,5,0.458740234375,0.06951904296875,-0.87213134765625
1760000855695,1124568349,12079,6,0.467041015625,0.06585693359375,-0.87115478515625
1760000855695,1124568349,12079,7,0.462890625,0.06024169921875,-0.87310791015625
1760000855695,1124568349,12079,8,0.46826171875,0.06170654296875,-0.87359619140625
1760000855695,1124568349,12079,9,0.466064453125,0.05755615234375,-0.87164306640625
1760000855695,1124568349,12079,10,0.467529296875,0.05780029296875,-0.87115478515625
1760000855695,1124568349,12079,11,0.456298828125,0.06292724609375,-0.87506103515625
1760000855695,1124568349,12079,12,0.454833984375,0.07049560546875,-0.88189697265625
1760000855695,1124568349,12079,13,0.463134765625,0.07220458984375,-0.88214111328125
1760000855695,1124568349,12079,14,0.480712890625,0.07489013671875,-0.87579345703125
1760000855695,1124568349,12079,15,0.571533203125,0.07537841796875,-0.87017822265625
1760000855695,1124568349,12079,16,0.5400390625,0.02337646484375,-0.69415283203125
1760000855695,1124568349,12079,17,0.574462890625,0.03167724609375,-0.75762939453125
1760000855695,1124568349,12079,18,0.593994140625,0.04803466796875,-0.86968994140625
1760000855695,1124568349,12079,19,0.549560546875,0.03704833984375,-0.80987548828125
1760000855695,1124568349,12079,20,0.531494140625,0.04681396484375,-0.81890869140625
1760000855695,1124568349,12079,21,0.52099609375,0.06585693359375,-0.84625244140625
1760000855695,1124568349,12079,22,0.51318359375,0.07366943359375,-0.85137939453125
1760000855695,1124568349,12079,23,0.495849609375,0.07244873046875,-0.84869384765625
1760000855695,1124568349,12079,24,0.482421875,0.07318115234375,-0.85845947265625
1760000855695,1124568349,12079,25,0.470703125,0.07464599609375,-0.86944580078125
1760000855695,1124568349,12079,26,0.46435546875,0.07562255859375,-0.87506103515625
1760000855695,1124568349,12079,27,0.456298828125,0.06927490234375,-0.87164306640625
1760000855695,1124568349,12079,28,0.456787109375,0.06707763671875,-0.87457275390625
1760000855695,1124568349,12079,29,0.45654296875,0.06414794921875,-0.87896728515625
1760000855695,1124568349,12079,30,0.45654296875,0.05780029296875,-0.87310791015625
1760000855695,1124568349,12079,31,0.463623046875,0.05462646484375,-0.87677001953125
1760000858215,1124570868,12080,0,0.480712890625,0.04779052734375,-0.87921142578125
1760000858215,1124570868,12080,1,0.4814453125,0.03973388671875,-0.86822509765625
1760000858215,1124570868,12080,2,0.482177734375,0.03729248046875,-0.86407470703125
1760000858215,1124570868,12080,3,0.482421875,0.03289794921875,-0.85406494140625
1760000858215,1124570868,12080,4,0.484130859375,0.03509521484375,-0.87017822265625
1760000858215,1124570868,12080,5,0.45751953125,0.04486083984375,-0.86114501953125
1760000858215,1124570868,12080,6,0.46875,0.05633544921875,-0.89263916015625
1760000858215,1124570868,12080,7,0.486083984375,0.05511474609375,-0.87994384765625
1760000858215,1124570868,12080,8,0.498046875,0.05438232421875,-0.85162353515625
1760000858215,1124570868,12080,9,0.508544921875,0.05657958984375,-0.84210205078125
1760000858215,1124570868,12080,10,0.564208984375,0.06805419921875,-0.89215087890625
1760000858215,1124570868,12080,11,0.57861328125,0.02264404296875,-0.71978759765625
1760000858215,1124570868,12080,12,0.57568359375,0.00628662109375,-0.72369384765625
1760000858215,1124570868,12080,13,0.60693359375,0.03680419921875,-0.84381103515625
1760000858215,1124570868,12080,14,0.5849609375,0.04315185546875,-0.82940673828125
1760000858215,1124570868,12080,15,0.6357421875,0.03778076171875,-0.84014892578125
1760000858215,1124570868,12080,16,0.570068359375,-0.00982666015625,-0.65875244140625
1760000858215,1124570868,12080,17,0.61767578125,-0.00787353515625,-0.75396728515625
1760000858215,1124570868,12080,18,0.598876953125,0.00823974609375,-0.78961181640625
1760000858215,1124570868,12080,19,0.593017578125,0.03460693359375,-0.81866455078125
1760000858215,1124570868,12080,20,0.572509765625,0.04486083984375,-0.82354736328125
1760000858215,1124570868,12080,21,0.541015625,0.05560302734375,-0.82281494140625
1760000858215,1124570868,12080,22,0.531982421875,0.06146240234375,-0.82550048828125
1760000858215,1124570868,12080,23,0.52685546875,0.06707763671875,-0.84429931640625
1760000858215,1124570868,12080,24,0.5068359375,0.07171630859375,-0.85113525390625
1760000858215,1124570868,12080,25,0.491943359375,0.07025146484375,-0.84942626953125
1760000858215,1124570868,12080,26,0.482666015625,0.07098388671875,-0.86138916015625
1760000858215,1124570868,12080,27,0.477294921875,0.07049560546875,-0.86309814453125
1760000858215,1124570868,12080,28,0.469970703125,0.06317138671875,-0.87310791015625
1760000858215,1124570868,12080,29,0.48291015625,0.05706787109375,-0.85870361328125
1760000858215,1124570868,12080,30,0.486083984375,0.05316162109375,-0.86798095703125
1760000858215,1124570868,12080,31,0.490234375,0.04925537109375,-0.86285400390625
1760000860734,1124573387,12081,0,0.48681640625,0.04779052734375,-0.86724853515625
1760000860734,1124573387,12081,1,0.47607421875,0.04754638671875,-0.85919189453125
1760000860734,1124573387,12081,2,0.466552734375,0.05780029296875,-0.87139892578125
1760000860734,1124573387,12081,3,0.48388671875,0.06585693359375,-0.89117431640625
1760000860734,1124573387,12081,4,0.5751953125,0.08099365234375,-0.89752197265625
1760000860734,1124573387,12081,5,0.54345703125,0.02459716796875,-0.69122314453125
1760000860734,1124573387,12081,6,0.564208984375,0.02752685546875,-0.74200439453125
1760000860734,1124573387,12081,7,0.591064453125,0.04046630859375,-0.83551025390625
1760000860734,1124573387,12081,8,0.557373046875,0.05096435546875,-0.84185791015625
1760000860734,1124573387,12081,9,0.516845703125,0.05511474609375,-0.82598876953125
1760000860734,1124573387,12081,10,0.504638671875,0.06561279296875,-0.84918212890625
1760000860734,1124573387,12081,11,0.49462890625,0.06976318359375,-0.86407470703125
1760000860734,1124573387,12081,12,0.474853515625,0.07269287109375,-0.85577392578125
1760000860734,1124573387,12081,13,0.4599609375,0.07611083984375,-0.85821533203125
1760000860734,1124573387,12081,14,0.456787109375,0.08880615234375,-0.86920166015625
1760000860734,1124573387,12081,15,0.46240234375,0.09954833984375,-0.88458251953125
1760000860734,1124573387,12081,16,0.464599609375,0.09808349609375,-0.89166259765625
1760000860734,1124573387,12081,17,0.451171875,0.09246826171875,-0.86358642578125
1760000860734,1124573387,12081,18,0.45361328125,0.09100341796875,-0.86602783203125
1760000860734,1124573387,12081,19,0.455322265625,0.09368896484375,-0.87310791015625
1760000860734,1124573387,12081,20,0.44873046875,0.09320068359375,-0.87579345703125
1760000860734,1124573387,12081,21,0.468994140625,0.10150146484375,-0.87896728515625
1760000860734,1124573387,12081,22,0.494140625,0.10565185546875,-0.85430908203125
1760000860734,1124573387,12081,23,0.54296875,0.11834716796875,-0.90289306640625
1760000860734,1124573387,12081,24,0.621337890625,0.06707763671875,-0.73663330078125
1760000860734,1124573387,12081,25,0.560546875,0.03216552734375,-0.69293212890625
1760000860734,1124573387,12081,26,0.609130859375,0.05218505859375,-0.77496337890625
1760000860734,1124573387,12081,27,0.593017578125,0.07293701171875,-0.82867431640625
1760000860734,1124573387,12081,28,0.5712890625,0.07928466796875,-0.81646728515625
1760000860734,1124573387,12081,29,0.638427734375,0.06195068359375,-0.77593994140625
1760000860734,1124573387,12081,30,0.567138671875,0.02874755859375,-0.68048095703125
1760000860734,1124573387,12081,31,0.60107421875,0.05487060546875,-0.78497314453125
1760000863605,1124575906,12082,0,0.595703125,0.07342529296875,-0.83819580078125
1760000863605,1124575906,12082,1,0.568603515625,0.07708740234375,-0.82183837890625
1760000863605,1124575906,12082,2,0.5419921875,0.08245849609375,-0.81890869140625
1760000863605,1124575906,12082,3,0.519287109375,0.08636474609375,-0.82086181640625
1760000863605,1124575906,12082,4,0.511474609375,0.08953857421875,-0.84722900390625
1760000863605,1124575906,12082,5,0.501953125,0.08709716796875,-0.84967041015625
1760000863605,1124575906,12082,6,0.492919921875,0.08416748046875,-0.83746337890625
1760000863605,1124575906,12082,7,0.49169921875,0.08831787109375,-0.85186767578125
1760000863605,1124575906,12082,8,0.489013671875,0.09051513671875,-0.85626220703125
1760000863605,1124575906,12082,9,0.48193359375,0.08758544921875,-0.86676025390625
1760000863605,1124575906,12082,10,0.466796875,0.08563232421875,-0.85968017578125
1760000863605,1124575906,12082,11,0.4677734375,0.08294677734375,-0.86724853515625
1760000863605,1124575906,12082,12,0.472900390625,0.08099365234375,-0.87750244140625
1760000863605,1124575906,12082,13,0.467529296875,0.07391357421875,-0.87091064453125
1760000863605,1124575906,12082,14,0.472900390625,0.06829833984375,-0.86627197265625
1760000863605,1124575906,12082,15,0.470458984375,0.06365966796875,-0.85430908203125
1760000863605,1124575906,12082,16,0.483642578125,0.06439208984375,-0.87164306640625
1760000863605,1124575906,12082,17,0.482666015625,0.06195068359375,-0.86773681640625
1760000863605,1124575906,12082,18,0.483154296875,0.06536865234375,-0.86553955078125
1760000863605,1124575906,12082,19,0.460693359375,0.07049560546875,-0.87017822265625
1760000863605,1124575906,12082,20,0.4697265625,0.07733154296875,-0.87652587890625
1760000863605,1124575906,12082,21,0.4638671875,0.07708740234375,-0.87823486328125
1760000863605,1124575906,12082,22,0.47412109375,0.07586669921875,-0.86309814453125
1760000863605,1124575906,12082,23,0.4921875,0.08074951171875,-0.85333251953125
1760000863605,1124575906,12082,24,0.49658203125,0.08319091796875,-0.84747314453125
1760000863605,1124575906,12082,25,0.497314453125,0.08953857421875,-0.86260986328125
1760000863605,1124575906,12082,26,0.537109375,0.10028076171875,-0.90362548828125
1760000863605,1124575906,12082,27,0.604248046875,0.05462646484375,-0.72467041015625
1760000863605,1124575906,12082,28,0.566162109375,0.03070068359375,-0.71197509765625
1760000863605,1124575906,12082,29,0.595703125,0.04876708984375,-0.80206298828125
1760000863605,1124575906,12082,30,0.588134765625,0.06683349609375,-0.83013916015625
1760000863605,1124575906,12082,31,0.549072265625,0.05487060546875,-0.78692626953125
1760000865776,1124578425,12083,0,0.54931640625,0.05902099609375,-0.81402587890625
1760000865776,1124578425,12083,1,0.53857421875,0.07513427734375,-0.83770751953125
1760000865776,1124578425,12083,2,0.525146484375,0.08270263671875,-0.85186767578125
1760000865776,1124578425,12083,3,0.494384765625,0.07928466796875,-0.84088134765625
1760000865776,1124578425,12083,4,0.490478515625,0.08148193359375,-0.84918212890625
1760000865776,1124578425,12083,5,0.494140625,0.08026123046875,-0.84991455078125
1760000865776,1124578425,12083,6,0.483154296875,0.08319091796875,-0.85137939453125
1760000865776,1124578425,12083,7,0.473388671875,0.08319091796875,-0.86309814453125
1760000865776,1124578425,12083,8,0.463623046875,0.08343505859375,-0.86993408203125
1760000865776,1124578425,12083,9,0.457275390625,0.08001708984375,-0.86920166015625
1760000865776,1124578425,12083,10,0.45654296875,0.08148193359375,-0.87774658203125
1760000865776,1124578425,12083,11,0.45263671875,0.07171630859375,-0.87554931640625
1760000865776,1124578425,12083,12,0.453369140625,0.06903076171875,-0.87799072265625
1760000865776,1124578425,12083,13,0.44873046875,0.06317138671875,-0.87115478515625
1760000865776,1124578425,12083,14,0.452880859375,0.06488037109375,-0.88409423828125
1760000865776,1124578425,12083,15,0.458740234375,0.06268310546875,-0.87603759765625
1760000865776,1124578425,12083,16,0.457763671875,0.06219482421875,-0.87286376953125
1760000865776,1124578425,12083,17,0.451171875,0.06243896484375,-0.87188720703125
1760000865776,1124578425,12083,18,0.454833984375,0.06951904296875,-0.88067626953125
1760000865776,1124578425,12083,19,0.45458984375,0.06707763671875,-0.88970947265625
1760000865776,1124578425,12083,20,0.45751953125,0.06878662109375,-0.87799072265625
1760000865776,1124578425,12083,21,0.48828125,0.07586669921875,-0.85992431640625
1760000865776,1124578425,12083,22,0.494140625,0.07757568359375,-0.85821533203125
1760000865776,1124578425,12083,23,0.504638671875,0.08636474609375,-0.92462158203125
1760000865776,1124578425,12083,24,0.59033203125,0.03533935546875,-0.74688720703125
1760000865776,1124578425,12083,25,0.541259765625,0.02435302734375,-0.69927978515625
1760000865776,1124578425,12083,26,0.589599609375,0.04364013671875,-0.84307861328125
1760000865776,1124578425,12083,27,0.57861328125,0.05218505859375,-0.83966064453125
1760000865776,1124578425,12083,28,0.537109375,0.04168701171875,-0.78839111328125
1760000865776,1124578425,12083,29,0.52685546875,0.05487060546875,-0.82305908203125
1760000865776,1124578425,12083,30,0.52734375,0.06756591796875,-0.84332275390625
1760000865776,1124578425,12083,31,0.51708984375,0.07318115234375,-0.85357666015625
1760000868297,1124580944,12084,0,0.497802734375,0.07464599609375,-0.84722900390625
1760000868297,1124580944,12084,1,0.488037109375,0.07733154296875,-0.84796142578125
1760000868297,1124580944,12084,2,0.482666015625,0.07904052734375,-0.86944580078125
1760000868297,1124580944,12084,3,0.46630859375,0.08074951171875,-0.86407470703125
1760000868297,1124580944,12084,4,0.455810546875,0.07586669921875,-0.86627197265625
1760000868297,1124580944,12084,5,0.454833984375,0.07904052734375,-0.87774658203125
1760000868297,1124580944,12084,6,0.45947265625,0.07269287109375,-0.88726806640625
1760000868297,1124580944,12084,7,0.462646484375,0.06634521484375,-0.86480712890625
1760000868297,1124580944,12084,8,0.47412109375,0.05926513671875,-0.86700439453125
1760000868297,1124580944,12084,9,0.47900390625,0.05682373046875,-0.87286376953125
1760000868297,1124580944,12084,10,0.49365234375,0.04632568359375,-0.86700439453125
1760000868297,1124580944,12084,11,0.4892578125,0.03607177734375,-0.85406494140625
1760000868297,1124580944,12084,12,0.4921875,0.02923583984375,-0.85137939453125
1760000868297,1124580944,12084,13,0.49169921875,0.03216552734375,-0.85430908203125
1760000868297,1124580944,12084,14,0.476318359375,0.04217529296875,-0.86383056640625
1760000868297,1124580944,12084,15,0.474609375,0.05413818359375,-0.88897705078125
1760000868297,1124580944,12084,16,0.48779296875,0.05609130859375,-0.87725830078125
1760000868297,1124580944,12084,17,0.494384765625,0.05780029296875,-0.85699462890625
1760000868297,1124580944,12084,18,0.520263671875,0.06024169921875,-0.84918212890625
1760000868297,1124580944,12084,19,0.58642578125,0.05584716796875,-0.83380126953125
1760000868297,1124580944,12084,20,0.560302734375,0.01629638671875,-0.69244384765625
1760000868297,1124580944,12084,21,0.58447265625,0.02069091796875,-0.77374267578125
1760000868297,1124580944,12084,22,0.60009765625,0.05145263671875,-0.86700439453125
1760000868297,1124580944,12084,23,0.55517578125,0.04608154296875,-0.82012939453125
1760000868297,1124580944,12084,24,0.544189453125,0.05169677734375,-0.83746337890625
1760000868297,1124580944,12084,25,0.61865234375,0.03509521484375,-0.76959228515625
1760000868297,1124580944,12084,26,0.563232421875,0.00506591796875,-0.69293212890625
1760000868297,1124580944,12084,27,0.600341796875,0.02825927734375,-0.82086181640625
1760000868297,1124580944,12084,28,0.577880859375,0.03631591796875,-0.83184814453125
1760000868297,1124580944,12084,29,0.55615234375,0.04559326171875,-0.82403564453125
1760000868297,1124580944,12084,30,0.53759765625,0.05291748046875,-0.82843017578125
1760000868297,1124580944,12084,31,0.520263671875,0.05999755859375,-0.82598876953125
1760000870807,1124583463,12085,0,0.513427734375,0.06390380859375,-0.84552001953125
1760000870807,1124583463,12085,1,0.498291015625,0.07440185546875,-0.86138916015625
1760000870807,1124583463,12085,2,0.488037109375,0.06854248046875,-0.86163330078125
1760000870807,1124583463,12085,3,0.48583984375,0.07147216796875,-0.87359619140625
1760000870807,1124583463,12085,4,0.46728515625,0.06024169921875,-0.85479736328125
1760000870807,1124583463,12085,5,0.4677734375,0.06268310546875,-0.87213134765625
1760000870807,1124583463,12085,6,0.4755859375,0.05731201171875,-0.88311767578125
1760000870807,1124583463,12085,7,0.48388671875,0.04022216796875,-0.86480712890625
1760000870807,1124583463,12085,8,0.47607421875,0.03680419921875,-0.85626220703125
1760000870807,1124583463,12085,9,0.48486328125,0.03411865234375,-0.86651611328125
1760000870807,1124583463,12085,10,0.48828125,0.03143310546875,-0.86431884765625
1760000870807,1124583463,12085,11,0.489013671875,0.03143310546875,-0.86383056640625
1760000870807,1124583463,12085,12,0.482177734375,0.03436279296875,-0.86383056640625
1760000870807,1124583463,12085,13,0.46826171875,0.04754638671875,-0.87066650390625
1760000870807,1124583463,12085,14,0.485107421875,0.05560302734375,-0.88580322265625
1760000870807,1124583463,12085,15,0.51025390625,0.05511474609375,-0.88018798828125
1760000870807,1124583463,12085,16,0.560546875,0.06488037109375,-0.84405517578125
1760000870807,1124583463,12085,17,0.5625,0.02239990234375,-0.72247314453125
1760000870807,1124583463,12085,18,0.575927734375,0.01702880859375,-0.74615478515625
1760000870807,1124583463,12085,19,0.589599609375,0.04046630859375,-0.84283447265625
1760000870807,1124583463,12085,20,0.551025390625,0.04339599609375,-0.81939697265625
1760000870807,1124583463,12085,21,0.526611328125,0.04754638671875,-0.82257080078125
1760000870807,1124583463,12085,22,0.52685546875,0.06121826171875,-0.84649658203125
1760000870807,1124583463,12085,23,0.510986328125,0.06854248046875,-0.85455322265625
1760000870807,1124583463,12085,24,0.483154296875,0.06951904296875,-0.86138916015625
1760000870807,1124583463,12085,25,0.4677734375,0.06903076171875,-0.86749267578125
1760000870807,1124583463,12085,26,0.4619140625,0.07342529296875,-0.87188720703125
1760000870807,1124583463,12085,27,0.45849609375,0.07122802734375,-0.87579345703125
1760000870807,1124583463,12085,28,0.455810546875,0.06488037109375,-0.87188720703125
1760000870807,1124583463,12085,29,0.45556640625,0.06317138671875,-0.86651611328125
1760000870807,1124583463,12085,30,0.45068359375,0.06463623046875,-0.85430908203125
1760000870807,1124583463,12085,31,0.47412109375,0.08001708984375,-0.90362548828125
1760000873328,1124585982,12086,0,0.491455078125,0.08270263671875,-0.89141845703125
1760000873328,1124585982,12086,1,0.4658203125,0.07000732421875,-0.86016845703125
1760000873328,1124585982,12086,2,0.44091796875,0.07879638671875,-0.85797119140625
1760000873328,1124585982,12086,3,0.485107421875,0.09124755859375,-0.86431884765625
1760000873328,1124585982,12086,4,0.511474609375,0.08978271484375,-0.87457275390625
1760000873328,1124585982,12086,5,0.57177734375,0.09783935546875,-0.87164306640625
1760000873328,1124585982,12086,6,0.56201171875,0.04119873046875,-0.69635009765625
1760000873328,1124585982,12086,7,0.5888671875,0.03411865234375,-0.74102783203125
1760000873328,1124585982,12086,8,0.603515625,0.05413818359375,-0.83892822265625
1760000873328,1124585982,12086,9,0.58203125,0.05047607421875,-0.79913330078125
1760000873328,1124585982,12086,10,0.54931640625,0.04779052734375,-0.77569580078125
1760000873328,1124585982,12086,11,0.558349609375,0.06463623046875,-0.81890869140625
1760000873328,1124585982,12086,12,0.551025390625,0.07708740234375,-0.83624267578125
1760000873328,1124585982,12086,13,0.518798828125,0.08294677734375,-0.84771728515625
1760000873328,1124585982,12086,14,0.501953125,0.07806396484375,-0.83697509765625
1760000873328,1124585982,12086,15,0.491455078125,0.08123779296875,-0.84283447265625
1760000873328,1124585982,12086,16,0.4892578125,0.08538818359375,-0.86187744140625
1760000873328,1124585982,12086,17,0.47705078125,0.07928466796875,-0.86383056640625
1760000873328,1124585982,12086,18,0.46875,0.07757568359375,-0.86480712890625
1760000873328,1124585982,12086,19,0.4697265625,0.07293701171875,-0.86651611328125
1760000873328,1124585982,12086,20,0.4775390625,0.06365966796875,-0.86724853515625
1760000873328,1124585982,12086,21,0.480224609375,0.05975341796875,-0.86187744140625
