receivedPhoneTimestamp,respeckTimestamp,packetSeqNum,sampleSeqNum,accelX,accelY,accelZ
1760021993933,79766447,1533,17,0.323974609375,-0.23590087890625,-0.93829345703125
1760021993933,79766447,1533,18,0.32177734375,-0.23028564453125,-0.93756103515625
1760021993933,79766447,1533,19,0.324462890625,-0.22711181640625,-0.93487548828125
1760021993933,79766447,1533,20,0.324462890625,-0.22857666015625,-0.93389892578125
1760021993933,79766447,1533,21,0.322509765625,-0.22833251953125,-0.93658447265625
1760021993933,79766447,1533,22,0.324951171875,-0.22833251953125,-0.93511962890625
1760021993933,79766447,1533,23,0.322998046875,-0.22686767578125,-0.93487548828125
1760021993933,79766447,1533,24,0.32373046875,-0.22662353515625,-0.93560791015625
1760021993933,79766447,1533,25,0.323486328125,-0.22833251953125,-0.93927001953125
1760021993933,79766447,1533,26,0.323974609375,-0.22491455078125,-0.93853759765625
1760021993933,79766447,1533,27,0.3251953125,-0.22760009765625,-0.93194580078125
1760021993933,79766447,1533,28,0.32568359375,-0.21905517578125,-0.93780517578125
1760021993933,79766447,1533,29,0.324951171875,-0.21905517578125,-0.93560791015625
1760021993933,79766447,1533,30,0.323974609375,-0.21368408203125,-0.93829345703125
1760021993933,79766447,1533,31,0.323486328125,-0.21441650390625,-0.93487548828125
1760021996642,79769020,1534,0,0.325439453125,-0.20977783203125,-0.94000244140625
1760021996642,79769020,1534,1,0.3232421875,-0.20806884765625,-0.94073486328125
1760021996642,79769020,1534,2,0.32080078125,-0.20928955078125,-0.90557861328125
1760021996642,79769020,1534,3,0.330810546875,-0.21734619140625,-0.95074462890625
1760021996642,79769020,1534,4,0.324951171875,-0.21978759765625,-0.97027587890625
1760021996642,79769020,1534,5,0.31640625,-0.22222900390625,-0.93048095703125
1760021996642,79769020,1534,6,0.326904296875,-0.22491455078125,-0.93902587890625
1760021996642,79769020,1534,7,0.3115234375,-0.22711181640625,-0.92315673828125
1760021996642,79769020,1534,8,0.320068359375,-0.22564697265625,-0.94903564453125
1760021996642,79769020,1534,9,0.320556640625,-0.22955322265625,-0.94171142578125
1760021996642,79769020,1534,10,0.314453125,-0.22906494140625,-0.92657470703125
1760021996642,79769020,1534,11,0.309814453125,-0.23345947265625,-0.92828369140625
1760021996642,79769020,1534,12,0.314697265625,-0.23834228515625,-0.94708251953125
1760021996642,79769020,1534,13,0.308837890625,-0.23492431640625,-0.93975830078125
1760021996642,79769020,1534,14,0.309814453125,-0.23541259765625,-0.94342041015625
1760021996642,79769020,1534,15,0.307373046875,-0.23248291015625,-0.93438720703125
1760021996642,79769020,1534,16,0.3154296875,-0.22735595703125,-0.95001220703125
1760021996642,79769020,1534,17,0.313720703125,-0.22686767578125,-0.95489501953125
1760021996642,79769020,1534,18,0.319580078125,-0.21881103515625,-0.93414306640625
1760021996642,79769020,1534,19,0.304931640625,-0.22662353515625,-0.90997314453125
1760021996642,79769020,1534,20,0.322021484375,-0.22760009765625,-0.96710205078125
1760021996642,79769020,1534,21,0.324951171875,-0.22589111328125,-0.94952392578125
1760021996642,79769020,1534,22,0.31787109375,-0.23126220703125,-0.94903564453125
1760021996642,79769020,1534,23,0.316162109375,-0.22808837890625,-0.94097900390625
1760021996642,79769020,1534,24,0.303466796875,-0.23419189453125,-0.89434814453125
1760021996642,79769020,1534,25,0.3212890625,-0.23931884765625,-0.96270751953125
1760021996642,79769020,1534,26,0.318115234375,-0.24322509765625,-0.95318603515625
1760021996642,79769020,1534,27,0.31298828125,-0.24273681640625,-0.93365478515625
1760021996642,79769020,1534,28,0.315673828125,-0.24761962890625,-0.92681884765625
1760021996642,79769020,1534,29,0.314697265625,-0.24884033203125,-0.92828369140625
1760021996642,79769020,1534,30,0.322265625,-0.25128173828125,-0.94732666015625
1760021996642,79769020,1534,31,0.3115234375,-0.25299072265625,-0.91558837890625
1760021999188,79771593,1535,0,0.3095703125,-0.25201416015625,-0.93634033203125
1760021999188,79771593,1535,1,0.32080078125,-0.25225830078125,-0.95782470703125
1760021999188,79771593,1535,2,0.313232421875,-0.24615478515625,-0.92974853515625
1760021999188,79771593,1535,3,0.314697265625,-0.24566650390625,-0.93511962890625
1760021999188,79771593,1535,4,0.316650390625,-0.24200439453125,-0.94097900390625
1760021999188,79771593,1535,5,0.314697265625,-0.24127197265625,-0.94122314453125
1760021999188,79771593,1535,6,0.314453125,-0.23760986328125,-0.94122314453125
1760021999188,79771593,1535,7,0.316162109375,-0.23785400390625,-0.94073486328125
1760021999188,79771593,1535,8,0.3134765625,-0.23858642578125,-0.93267822265625
1760021999188,79771593,1535,9,0.315185546875,-0.23199462890625,-0.93609619140625
1760021999188,79771593,1535,10,0.3095703125,-0.22637939453125,-0.93878173828125
1760021999188,79771593,1535,11,0.318115234375,-0.23077392578125,-0.95220947265625
1760021999188,79771593,1535,12,0.315185546875,-0.22955322265625,-0.94049072265625
1760021999188,79771593,1535,13,0.313232421875,-0.22271728515625,-0.94122314453125
1760021999188,79771593,1535,14,0.31201171875,-0.22100830078125,-0.93560791015625
1760021999188,79771593,1535,15,0.317138671875,-0.22784423828125,-0.93707275390625
1760021999188,79771593,1535,16,0.3193359375,-0.23150634765625,-0.94000244140625
1760021999188,79771593,1535,17,0.3251953125,-0.23419189453125,-0.95147705078125
1760021999188,79771593,1535,18,0.306640625,-0.23248291015625,-0.91314697265625
1760021999188,79771593,1535,19,0.319091796875,-0.23785400390625,-0.93829345703125
1760021999188,79771593,1535,20,0.316650390625,-0.24053955078125,-0.94683837890625
1760021999188,79771593,1535,21,0.323486328125,-0.24053955078125,-0.94635009765625
1760021999188,79771593,1535,22,0.322998046875,-0.24005126953125,-0.93609619140625
1760021999188,79771593,1535,23,0.3203125,-0.24176025390625,-0.92706298828125
1760021999188,79771593,1535,24,0.31982421875,-0.25103759765625,-0.92877197265625
1760021999188,79771593,1535,25,0.32373046875,-0.25079345703125,-0.94317626953125
1760021999188,79771593,1535,26,0.320556640625,-0.24737548828125,-0.92974853515625
1760021999188,79771593,1535,27,0.326904296875,-0.24859619140625,-0.94415283203125
1760021999188,79771593,1535,28,0.312744140625,-0.24932861328125,-0.92413330078125
1760021999188,79771593,1535,29,0.321533203125,-0.25445556640625,-0.93243408203125
1760021999188,79771593,1535,30,0.32470703125,-0.25494384765625,-0.93121337890625
1760021999188,79771593,1535,31,0.319580078125,-0.25250244140625,-0.92388916015625
1760022001744,79774166,1536,0,0.32568359375,-0.25006103515625,-0.92926025390625
1760022001744,79774166,1536,1,0.325439453125,-0.24737548828125,-0.93951416015625
1760022001744,79774166,1536,2,0.318359375,-0.24591064453125,-0.93585205078125
1760022001744,79774166,1536,3,0.3173828125,-0.24395751953125,-0.93096923828125
1760022001744,79774166,1536,4,0.31982421875,-0.24566650390625,-0.93829345703125
1760022001744,79774166,1536,5,0.3203125,-0.24029541015625,-0.93853759765625
1760022001744,79774166,1536,6,0.313232421875,-0.24176025390625,-0.93023681640625
1760022001744,79774166,1536,7,0.31494140625,-0.23931884765625,-0.93023681640625
1760022001744,79774166,1536,8,0.315185546875,-0.23834228515625,-0.93707275390625
1760022001744,79774166,1536,9,0.31884765625,-0.23297119140625,-0.93829345703125
1760022001744,79774166,1536,10,0.310302734375,-0.22662353515625,-0.93780517578125
1760022001744,79774166,1536,11,0.318603515625,-0.23052978515625,-0.94000244140625
1760022001744,79774166,1536,12,0.31640625,-0.23272705078125,-0.94000244140625
1760022001744,79774166,1536,13,0.31591796875,-0.23712158203125,-0.94122314453125
1760022001744,79774166,1536,14,0.315673828125,-0.23712158203125,-0.94000244140625
1760022001744,79774166,1536,15,0.324951171875,-0.23614501953125,-0.93682861328125
1760022001744,79774166,1536,16,0.311767578125,-0.23858642578125,-0.91754150390625
1760022001744,79774166,1536,17,0.32470703125,-0.24249267578125,-0.94976806640625
1760022001744,79774166,1536,18,0.323486328125,-0.23931884765625,-0.94488525390625
1760022001744,79774166,1536,19,0.316650390625,-0.24053955078125,-0.92926025390625
1760022001744,79774166,1536,20,0.316650390625,-0.23931884765625,-0.94049072265625
1760022001744,79774166,1536,21,0.317138671875,-0.23468017578125,-0.93365478515625
1760022001744,79774166,1536,22,0.338623046875,-0.22784423828125,-1.00079345703125
1760022001744,79774166,1536,23,0.302734375,-0.24395751953125,-0.85650634765625
1760022001744,79774166,1536,24,0.311767578125,-0.24078369140625,-0.91973876953125
1760022001744,79774166,1536,25,0.350830078125,-0.24298095703125,-0.99664306640625
1760022001744,79774166,1536,26,0.31787109375,-0.25128173828125,-0.92120361328125
1760022001744,79774166,1536,27,0.309326171875,-0.25421142578125,-0.91705322265625
1760022001744,79774166,1536,28,0.34423828125,-0.26275634765625,-0.95733642578125
1760022001744,79774166,1536,29,0.304443359375,-0.25250244140625,-0.86431884765625
1760022001744,79774166,1536,30,0.347900390625,-0.26055908203125,-0.96612548828125
1760022001744,79774166,1536,31,0.337646484375,-0.26837158203125,-0.94122314453125
1760022004291,79776739,1537,0,0.301513671875,-0.25445556640625,-0.87261962890625
1760022004291,79776739,1537,1,0.341796875,-0.25518798828125,-0.95538330078125
1760022004291,79776739,1537,2,0.33447265625,-0.25738525390625,-0.94366455078125
1760022004291,79776739,1537,3,0.32373046875,-0.25177001953125,-0.92999267578125
1760022004291,79776739,1537,4,0.32421875,-0.24908447265625,-0.92291259765625
1760022004291,79776739,1537,5,0.32861328125,-0.24444580078125,-0.93243408203125
1760022004291,79776739,1537,6,0.3271484375,-0.22930908203125,-0.95538330078125
1760022004291,79776739,1537,7,0.332275390625,-0.23883056640625,-0.91729736328125
1760022004291,79776739,1537,8,0.30224609375,-0.24298095703125,-0.89678955078125
1760022004291,79776739,1537,9,0.337158203125,-0.24688720703125,-0.96343994140625
1760022004291,79776739,1537,10,0.3212890625,-0.24542236328125,-0.93218994140625
1760022004291,79776739,1537,11,0.330810546875,-0.24444580078125,-0.94512939453125
1760022004291,79776739,1537,12,0.32275390625,-0.24566650390625,-0.92706298828125
1760022004291,79776739,1537,13,0.322998046875,-0.24444580078125,-0.92852783203125
1760022004291,79776739,1537,14,0.32275390625,-0.24346923828125,-0.93804931640625
1760022004291,79776739,1537,15,0.3154296875,-0.23468017578125,-0.95758056640625
1760022004291,79776739,1537,16,0.324951171875,-0.24151611328125,-0.88946533203125
1760022004291,79776739,1537,17,0.319091796875,-0.23468017578125,-0.92950439453125
1760022004291,79776739,1537,18,0.3271484375,-0.23663330078125,-0.95733642578125
1760022004291,79776739,1537,19,0.34375,-0.23248291015625,-1.01593017578125
1760022004291,79776739,1537,20,0.306396484375,-0.23980712890625,-0.85186767578125
1760022004291,79776739,1537,21,0.302978515625,-0.23980712890625,-0.90411376953125
1760022004291,79776739,1537,22,0.340087890625,-0.24102783203125,-0.96685791015625
1760022004291,79776739,1537,23,0.333984375,-0.24102783203125,-0.94610595703125
1760022004291,79776739,1537,24,0.31787109375,-0.24102783203125,-0.90655517578125
1760022004291,79776739,1537,25,0.322998046875,-0.23907470703125,-0.93634033203125
1760022004291,79776739,1537,26,0.335693359375,-0.24810791015625,-0.94146728515625
1760022004291,79776739,1537,27,0.321533203125,-0.25201416015625,-0.92120361328125
1760022004291,79776739,1537,28,0.32763671875,-0.24737548828125,-0.93487548828125
1760022004291,79776739,1537,29,0.32861328125,-0.24151611328125,-0.93634033203125
1760022004291,79776739,1537,30,0.322509765625,-0.24102783203125,-0.93414306640625
1760022004291,79776739,1537,31,0.324462890625,-0.24151611328125,-0.93853759765625
1760022006839,79779312,1538,0,0.3203125,-0.23980712890625,-0.93170166015625
1760022006839,79779312,1538,1,0.32080078125,-0.24127197265625,-0.93707275390625
1760022006839,79779312,1538,2,0.317626953125,-0.23980712890625,-0.93511962890625
1760022006839,79779312,1538,3,0.318603515625,-0.23590087890625,-0.92926025390625
1760022006839,79779312,1538,4,0.3203125,-0.23248291015625,-0.94171142578125
1760022006839,79779312,1538,5,0.318115234375,-0.22662353515625,-0.94903564453125
1760022006839,79779312,1538,6,0.3232421875,-0.23223876953125,-0.93316650390625
1760022006839,79779312,1538,7,0.314208984375,-0.23883056640625,-0.91436767578125
1760022006839,79779312,1538,8,0.31884765625,-0.24029541015625,-0.93194580078125
1760022006839,79779312,1538,9,0.32568359375,-0.23345947265625,-0.95147705078125
1760022006839,79779312,1538,10,0.329345703125,-0.23809814453125,-0.95953369140625
1760022006839,79779312,1538,11,0.313232421875,-0.23687744140625,-0.92510986328125
1760022006839,79779312,1538,12,0.312744140625,-0.23687744140625,-0.90875244140625
1760022006839,79779312,1538,13,0.332763671875,-0.23419189453125,-0.96539306640625
1760022006839,79779312,1538,14,0.324462890625,-0.23712158203125,-0.94659423828125
1760022006839,79779312,1538,15,0.307373046875,-0.23468017578125,-0.90753173828125
1760022006839,79779312,1538,16,0.3310546875,-0.23907470703125,-0.94219970703125
1760022006839,79779312,1538,17,0.331787109375,-0.23443603515625,-0.94244384765625
1760022006839,79779312,1538,18,0.317626953125,-0.23809814453125,-0.91339111328125
1760022006839,79779312,1538,19,0.32568359375,-0.24346923828125,-0.94708251953125
1760022006839,79779312,1538,20,0.326171875,-0.24322509765625,-0.92608642578125
1760022006839,79779312,1538,21,0.32275390625,-0.24688720703125,-0.93511962890625
1760022006839,79779312,1538,22,0.328857421875,-0.24102783203125,-0.93023681640625
1760022006839,79779312,1538,23,0.32666015625,-0.24078369140625,-0.92950439453125
1760022006839,79779312,1538,24,0.3251953125,-0.24053955078125,-0.93682861328125
1760022006839,79779312,1538,25,0.321044921875,-0.24053955078125,-0.93634033203125
1760022006839,79779312,1538,26,0.3271484375,-0.24005126953125,-0.93585205078125
1760022006839,79779312,1538,27,0.323974609375,-0.23590087890625,-0.93243408203125
1760022006839,79779312,1538,28,0.321044921875,-0.23175048828125,-0.93731689453125
1760022006839,79779312,1538,29,0.316650390625,-0.23516845703125,-0.93218994140625
1760022006839,79779312,1538,30,0.3203125,-0.23199462890625,-0.93438720703125
1760022006839,79779312,1538,31,0.32275390625,-0.22662353515625,-0.94366455078125
1760022009391,79781885,1539,0,0.33642578125,-0.22637939453125,-0.98199462890625
1760022009391,79781885,1539,1,0.303955078125,-0.23370361328125,-0.88531494140625
1760022009391,79781885,1539,2,0.320556640625,-0.23541259765625,-0.94024658203125
1760022009391,79781885,1539,3,0.3251953125,-0.23785400390625,-0.95465087890625
1760022009391,79781885,1539,4,0.3212890625,-0.23907470703125,-0.93951416015625
1760022009391,79781885,1539,5,0.31884765625,-0.24053955078125,-0.92877197265625
1760022009391,79781885,1539,6,0.3154296875,-0.24176025390625,-0.90997314453125
1760022009391,79781885,1539,7,0.331298828125,-0.24420166015625,-0.95123291015625
1760022009391,79781885,1539,8,0.322265625,-0.23980712890625,-0.93438720703125
1760022009391,79781885,1539,9,0.31689453125,-0.23614501953125,-0.92169189453125
1760022009391,79781885,1539,10,0.325927734375,-0.23931884765625,-0.94097900390625
1760022009391,79781885,1539,11,0.3310546875,-0.23516845703125,-0.95220947265625
1760022009391,79781885,1539,12,0.3173828125,-0.23516845703125,-0.92047119140625
1760022009391,79781885,1539,13,0.3232421875,-0.24224853515625,-0.93975830078125
1760022009391,79781885,1539,14,0.3271484375,-0.24224853515625,-0.94293212890625
1760022009391,79781885,1539,15,0.314697265625,-0.24371337890625,-0.91534423828125
1760022009391,79781885,1539,16,0.31640625,-0.24664306640625,-0.92901611328125
1760022009391,79781885,1539,17,0.326904296875,-0.24615478515625,-0.94122314453125
1760022009391,79781885,1539,18,0.319091796875,-0.24737548828125,-0.92852783203125
1760022009391,79781885,1539,19,0.328125,-0.24884033203125,-0.93341064453125
1760022009391,79781885,1539,20,0.32666015625,-0.24468994140625,-0.93267822265625
1760022009391,79781885,1539,21,0.3271484375,-0.24493408203125,-0.93341064453125
1760022009391,79781885,1539,22,0.327880859375,-0.24713134765625,-0.93975830078125
1760022009391,79781885,1539,23,0.328857421875,-0.24688720703125,-0.92926025390625
1760022009391,79781885,1539,24,0.322998046875,-0.24468994140625,-0.92510986328125
1760022009391,79781885,1539,25,0.32373046875,-0.24615478515625,-0.93853759765625
1760022009391,79781885,1539,26,0.325439453125,-0.24249267578125,-0.92364501953125
1760022009391,79781885,1539,27,0.3271484375,-0.23638916015625,-0.93829345703125
1760022009391,79781885,1539,28,0.32275390625,-0.23052978515625,-0.93878173828125
1760022009391,79781885,1539,29,0.329833984375,-0.23297119140625,-0.93560791015625
1760022009391,79781885,1539,30,0.3193359375,-0.24102783203125,-0.92486572265625
1760022009391,79781885,1539,31,0.322021484375,-0.24591064453125,-0.93487548828125
1760022012090,79784458,1540,0,0.319580078125,-0.24566650390625,-0.93609619140625
1760022012090,79784458,1540,1,0.328369140625,-0.24664306640625,-0.94317626953125
1760022012090,79784458,1540,2,0.322998046875,-0.24322509765625,-0.93121337890625
1760022012090,79784458,1540,3,0.323486328125,-0.24639892578125,-0.92584228515625
1760022012090,79784458,1540,4,0.32421875,-0.24322509765625,-0.93145751953125
1760022012090,79784458,1540,5,0.3251953125,-0.24517822265625,-0.93927001953125
1760022012090,79784458,1540,6,0.32568359375,-0.24005126953125,-0.93731689453125
1760022012090,79784458,1540,7,0.32373046875,-0.23760986328125,-0.93536376953125
1760022012090,79784458,1540,8,0.324951171875,-0.23931884765625,-0.93463134765625
1760022012090,79784458,1540,9,0.32080078125,-0.23980712890625,-0.93096923828125
1760022012090,79784458,1540,10,0.31689453125,-0.23931884765625,-0.92755126953125
1760022012090,79784458,1540,11,0.324951171875,-0.23614501953125,-0.94073486328125
1760022012090,79784458,1540,12,0.321044921875,-0.22784423828125,-0.93609619140625
1760022012090,79784458,1540,13,0.3203125,-0.22442626953125,-0.93511962890625
1760022012090,79784458,1540,14,0.311767578125,-0.22906494140625,-0.92950439453125
1760022012090,79784458,1540,15,0.3271484375,-0.23175048828125,-0.95025634765625
1760022012090,79784458,1540,16,0.323486328125,-0.22955322265625,-0.93023681640625
1760022012090,79784458,1540,17,0.324951171875,-0.23785400390625,-0.93414306640625
1760022012090,79784458,1540,18,0.329345703125,-0.23590087890625,-0.94317626953125
1760022012090,79784458,1540,19,0.32080078125,-0.23883056640625,-0.92584228515625
1760022012090,79784458,1540,20,0.326171875,-0.23248291015625,-0.93902587890625
1760022012090,79784458,1540,21,0.31884765625,-0.23590087890625,-0.93292236328125
1760022012090,79784458,1540,22,0.3251953125,-0.23858642578125,-0.95123291015625
1760022012090,79784458,1540,23,0.32177734375,-0.24078369140625,-0.93023681640625
1760022012090,79784458,1540,24,0.32080078125,-0.24224853515625,-0.93023681640625
1760022012090,79784458,1540,25,0.316162109375,-0.24468994140625,-0.91656494140625
1760022012090,79784458,1540,26,0.323974609375,-0.24981689453125,-0.94732666015625
1760022012090,79784458,1540,27,0.322265625,-0.24810791015625,-0.92535400390625
1760022012090,79784458,1540,28,0.327392578125,-0.25030517578125,-0.93585205078125
1760022012090,79784458,1540,29,0.327880859375,-0.25030517578125,-0.93585205078125
1760022012090,79784458,1540,30,0.326904296875,-0.24786376953125,-0.93194580078125
1760022012090,79784458,1540,31,0.329345703125,-0.24981689453125,-0.92291259765625
1760022014639,79787032,1541,0,0.327392578125,-0.24932861328125,-0.92852783203125
1760022014639,79787032,1541,1,0.32763671875,-0.25079345703125,-0.93585205078125
1760022014639,79787032,1541,2,0.325439453125,-0.24957275390625,-0.93536376953125
1760022014639,79787032,1541,3,0.32275390625,-0.24713134765625,-0.93536376953125
1760022014639,79787032,1541,4,0.323974609375,-0.24273681640625,-0.93194580078125
1760022014639,79787032,1541,5,0.322998046875,-0.24224853515625,-0.92926025390625
1760022014639,79787032,1541,6,0.32421875,-0.23785400390625,-0.93853759765625
1760022014639,79787032,1541,7,0.3271484375,-0.23541259765625,-0.94610595703125
1760022014639,79787032,1541,8,0.322998046875,-0.23419189453125,-0.93170166015625
1760022014639,79787032,1541,9,0.32177734375,-0.24395751953125,-0.92730712890625
1760022014639,79787032,1541,10,0.330078125,-0.24957275390625,-0.93536376953125
1760022014639,79787032,1541,11,0.32421875,-0.24688720703125,-0.92730712890625
1760022014639,79787032,1541,12,0.321533203125,-0.24981689453125,-0.92266845703125
1760022014639,79787032,1541,13,0.331298828125,-0.24810791015625,-0.94390869140625
1760022014639,79787032,1541,14,0.324951171875,-0.24688720703125,-0.93438720703125
1760022014639,79787032,1541,15,0.321044921875,-0.24468994140625,-0.92462158203125
1760022014639,79787032,1541,16,0.32470703125,-0.24517822265625,-0.93780517578125
1760022014639,79787032,1541,17,0.3193359375,-0.23931884765625,-0.93218994140625
1760022014639,79787032,1541,18,0.324462890625,-0.23858642578125,-0.94659423828125
1760022014639,79787032,1541,19,0.328369140625,-0.22711181640625,-0.95025634765625
1760022014639,79787032,1541,20,0.318603515625,-0.22320556640625,-0.91925048828125
1760022014639,79787032,1541,21,0.324951171875,-0.22808837890625,-0.93463134765625
1760022014639,79787032,1541,22,0.33349609375,-0.22833251953125,-0.94732666015625
1760022014639,79787032,1541,23,0.326904296875,-0.22442626953125,-0.93560791015625
1760022014639,79787032,1541,24,0.324462890625,-0.22613525390625,-0.93585205078125
1760022014639,79787032,1541,25,0.319091796875,-0.23248291015625,-0.92340087890625
1760022014639,79787032,1541,26,0.330078125,-0.23712158203125,-0.94781494140625
1760022014639,79787032,1541,27,0.329345703125,-0.23297119140625,-0.93023681640625
1760022014639,79787032,1541,28,0.333740234375,-0.24273681640625,-0.93878173828125
1760022014639,79787032,1541,29,0.322265625,-0.24639892578125,-0.93609619140625
1760022014639,79787032,1541,30,0.319580078125,-0.24884033203125,-0.92047119140625
1760022014639,79787032,1541,31,0.31396484375,-0.24493408203125,-0.91778564453125
1760022017192,79789605,1542,0,0.333251953125,-0.24298095703125,-0.94195556640625
1760022017192,79789605,1542,1,0.336181640625,-0.23907470703125,-0.94073486328125
1760022017192,79789605,1542,2,0.326416015625,-0.23394775390625,-0.93316650390625
1760022017192,79789605,1542,3,0.326416015625,-0.23443603515625,-0.93072509765625
1760022017192,79789605,1542,4,0.329833984375,-0.23443603515625,-0.93658447265625
1760022017192,79789605,1542,5,0.327392578125,-0.23736572265625,-0.93609619140625
1760022017192,79789605,1542,6,0.324951171875,-0.22833251953125,-0.92852783203125
1760022017192,79789605,1542,7,0.326171875,-0.22808837890625,-0.93145751953125
1760022017192,79789605,1542,8,0.326904296875,-0.22784423828125,-0.94049072265625
1760022017192,79789605,1542,9,0.332275390625,-0.22027587890625,-0.94903564453125
1760022017192,79789605,1542,10,0.324462890625,-0.22442626953125,-0.92340087890625
1760022017192,79789605,1542,11,0.318359375,-0.23541259765625,-0.91754150390625
1760022017192,79789605,1542,12,0.332763671875,-0.23883056640625,-0.94854736328125
1760022017192,79789605,1542,13,0.327392578125,-0.23223876953125,-0.93829345703125
1760022017192,79789605,1542,14,0.32373046875,-0.23394775390625,-0.92999267578125
1760022017192,79789605,1542,15,0.32763671875,-0.23565673828125,-0.93536376953125
1760022017192,79789605,1542,16,0.326904296875,-0.23248291015625,-0.93536376953125
1760022017192,79789605,1542,17,0.331787109375,-0.23712158203125,-0.95098876953125
1760022017192,79789605,1542,18,0.318115234375,-0.24346923828125,-0.91168212890625
1760022017192,79789605,1542,19,0.3251953125,-0.24420166015625,-0.92828369140625
1760022017192,79789605,1542,20,0.336669921875,-0.24371337890625,-0.95025634765625
1760022017192,79789605,1542,21,0.324462890625,-0.24444580078125,-0.91680908203125
1760022017192,79789605,1542,22,0.322265625,-0.24932861328125,-0.93121337890625
1760022017192,79789605,1542,23,0.3251953125,-0.24591064453125,-0.93316650390625
1760022017192,79789605,1542,24,0.3359375,-0.24493408203125,-0.94195556640625
1760022017192,79789605,1542,25,0.329833984375,-0.24127197265625,-0.93072509765625
1760022017192,79789605,1542,26,0.3330078125,-0.24102783203125,-0.93243408203125
1760022017192,79789605,1542,27,0.33056640625,-0.24053955078125,-0.93170166015625
1760022017192,79789605,1542,28,0.328125,-0.24542236328125,-0.92755126953125
1760022017192,79789605,1542,29,0.330810546875,-0.24127197265625,-0.93267822265625
1760022017192,79789605,1542,30,0.33154296875,-0.23883056640625,-0.93682861328125
1760022017192,79789605,1542,31,0.329345703125,-0.23541259765625,-0.92486572265625
1760022019740,79792178,1543,0,0.331787109375,-0.23223876953125,-0.93707275390625
1760022019740,79792178,1543,1,0.3330078125,-0.23101806640625,-0.93804931640625
1760022019740,79792178,1543,2,0.32958984375,-0.22369384765625,-0.93731689453125
1760022019740,79792178,1543,3,0.3291015625,-0.22003173828125,-0.93609619140625
1760022019740,79792178,1543,4,0.3291015625,-0.22589111328125,-0.93829345703125
1760022019740,79792178,1543,5,0.318603515625,-0.23077392578125,-0.91754150390625
1760022019740,79792178,1543,6,0.325927734375,-0.23931884765625,-0.93902587890625
1760022019740,79792178,1543,7,0.329345703125,-0.24005126953125,-0.94024658203125
1760022019740,79792178,1543,8,0.318115234375,-0.23956298828125,-0.92218017578125
1760022019740,79792178,1543,9,0.332275390625,-0.24029541015625,-0.94293212890625
1760022019740,79792178,1543,10,0.330078125,-0.24053955078125,-0.94244384765625
1760022019740,79792178,1543,11,0.32470703125,-0.24102783203125,-0.92608642578125
1760022019740,79792178,1543,12,0.324462890625,-0.24298095703125,-0.92779541015625
1760022019740,79792178,1543,13,0.3310546875,-0.24688720703125,-0.94195556640625
1760022019740,79792178,1543,14,0.322021484375,-0.24322509765625,-0.92169189453125
1760022019740,79792178,1543,15,0.330322265625,-0.23492431640625,-0.95196533203125
1760022019740,79792178,1543,16,0.322265625,-0.23370361328125,-0.91900634765625
1760022019740,79792178,1543,17,0.3251953125,-0.23858642578125,-0.93218994140625
1760022019740,79792178,1543,18,0.328125,-0.24224853515625,-0.94146728515625
1760022019740,79792178,1543,19,0.3203125,-0.24029541015625,-0.93170166015625
1760022019740,79792178,1543,20,0.330322265625,-0.23980712890625,-0.93609619140625
1760022019740,79792178,1543,21,0.325927734375,-0.24005126953125,-0.92413330078125
1760022019740,79792178,1543,22,0.3310546875,-0.24151611328125,-0.93438720703125
1760022019740,79792178,1543,23,0.32421875,-0.24005126953125,-0.92950439453125
1760022019740,79792178,1543,24,0.323974609375,-0.24322509765625,-0.93145751953125
1760022019740,79792178,1543,25,0.331298828125,-0.23663330078125,-0.95025634765625
1760022019740,79792178,1543,26,0.31640625,-0.22515869140625,-0.92218017578125
1760022019740,79792178,1543,27,0.319580078125,-0.22613525390625,-0.92779541015625
1760022019740,79792178,1543,28,0.3251953125,-0.22882080078125,-0.94244384765625
1760022019740,79792178,1543,29,0.32763671875,-0.22906494140625,-0.94830322265625
1760022019740,79792178,1543,30,0.31982421875,-0.22857666015625,-0.92462158203125
1760022019740,79792178,1543,31,0.322998046875,-0.23297119140625,-0.92608642578125
1760022022289,79794751,1544,0,0.330078125,-0.23736572265625,-0.94586181640625
1760022022289,79794751,1544,1,0.31982421875,-0.23712158203125,-0.92755126953125
1760022022289,79794751,1544,2,0.326904296875,-0.23834228515625,-0.93511962890625
1760022022289,79794751,1544,3,0.32861328125,-0.24127197265625,-0.93267822265625
1760022022289,79794751,1544,4,0.3310546875,-0.23785400390625,-0.93365478515625
1760022022289,79794751,1544,5,0.32568359375,-0.24200439453125,-0.93072509765625
1760022022289,79794751,1544,6,0.3271484375,-0.23980712890625,-0.93658447265625
1760022022289,79794751,1544,7,0.324951171875,-0.24102783203125,-0.93634033203125
1760022022289,79794751,1544,8,0.3232421875,-0.23712158203125,-0.92413330078125
1760022022289,79794751,1544,9,0.328857421875,-0.22589111328125,-0.94342041015625
1760022022289,79794751,1544,10,0.323974609375,-0.21905517578125,-0.93023681640625
1760022022289,79794751,1544,11,0.318115234375,-0.22198486328125,-0.93194580078125
1760022022289,79794751,1544,12,0.32861328125,-0.22369384765625,-0.94683837890625
1760022022289,79794751,1544,13,0.32470703125,-0.22833251953125,-0.92999267578125
1760022022289,79794751,1544,14,0.328125,-0.23541259765625,-0.94049072265625
1760022022289,79794751,1544,15,0.3251953125,-0.23492431640625,-0.93389892578125
1760022022289,79794751,1544,16,0.32275390625,-0.23516845703125,-0.93292236328125
1760022022289,79794751,1544,17,0.3251953125,-0.23809814453125,-0.93316650390625
1760022022289,79794751,1544,18,0.326171875,-0.23638916015625,-0.93560791015625
1760022022289,79794751,1544,19,0.325927734375,-0.23712158203125,-0.93341064453125
1760022022289,79794751,1544,20,0.322021484375,-0.23370361328125,-0.92755126953125
1760022022289,79794751,1544,21,0.328857421875,-0.23101806640625,-0.95465087890625
1760022022289,79794751,1544,22,0.3115234375,-0.22833251953125,-0.91119384765625
1760022022289,79794751,1544,23,0.322265625,-0.23394775390625,-0.94171142578125
1760022022289,79794751,1544,24,0.328857421875,-0.24468994140625,-0.93487548828125
1760022022289,79794751,1544,25,0.32568359375,-0.23907470703125,-0.93902587890625
1760022022289,79794751,1544,26,0.32373046875,-0.24200439453125,-0.93511962890625
1760022022289,79794751,1544,27,0.32421875,-0.24102783203125,-0.93023681640625
1760022022289,79794751,1544,28,0.32763671875,-0.23883056640625,-0.93365478515625
1760022022289,79794751,1544,29,0.330810546875,-0.23443603515625,-0.94342041015625
1760022022289,79794751,1544,30,0.331298828125,-0.24249267578125,-0.95245361328125
1760022022289,79794751,1544,31,0.31982421875,-0.24542236328125,-0.90313720703125
1760022024839,79797324,1545,0,0.3291015625,-0.25225830078125,-0.93292236328125
1760022024839,79797324,1545,1,0.328857421875,-0.25372314453125,-0.92999267578125
1760022024839,79797324,1545,2,0.325927734375,-0.25079345703125,-0.92852783203125
1760022024839,79797324,1545,3,0.3291015625,-0.24932861328125,-0.93731689453125
1760022024839,79797324,1545,4,0.33154296875,-0.25006103515625,-0.93145751953125
1760022024839,79797324,1545,5,0.325927734375,-0.24615478515625,-0.93023681640625
1760022024839,79797324,1545,6,0.33154296875,-0.24737548828125,-0.93267822265625
1760022024839,79797324,1545,7,0.32958984375,-0.24468994140625,-0.93463134765625
1760022024839,79797324,1545,8,0.32666015625,-0.24591064453125,-0.93267822265625
1760022024839,79797324,1545,9,0.327392578125,-0.24566650390625,-0.92535400390625
1760022024839,79797324,1545,10,0.326904296875,-0.23907470703125,-0.93731689453125
1760022024839,79797324,1545,11,0.33447265625,-0.23345947265625,-0.94561767578125
1760022024839,79797324,1545,12,0.318603515625,-0.23370361328125,-0.92071533203125
1760022024839,79797324,1545,13,0.32568359375,-0.23956298828125,-0.92877197265625
1760022024839,79797324,1545,14,0.3349609375,-0.23516845703125,-0.94659423828125
1760022024839,79797324,1545,15,0.3251953125,-0.23541259765625,-0.92803955078125
1760022024839,79797324,1545,16,0.324462890625,-0.23858642578125,-0.92584228515625
1760022024839,79797324,1545,17,0.32958984375,-0.24127197265625,-0.93731689453125
1760022024839,79797324,1545,18,0.331787109375,-0.23883056640625,-0.94781494140625
1760022024839,79797324,1545,19,0.325439453125,-0.23760986328125,-0.92950439453125
1760022024839,79797324,1545,20,0.316162109375,-0.24249267578125,-0.90948486328125
1760022024839,79797324,1545,21,0.329833984375,-0.24591064453125,-0.94439697265625
1760022024839,79797324,1545,22,0.33642578125,-0.24298095703125,-0.94317626953125
1760022024839,79797324,1545,23,0.32080078125,-0.24053955078125,-0.92388916015625
1760022024839,79797324,1545,24,0.3203125,-0.24737548828125,-0.92510986328125
1760022024839,79797324,1545,25,0.334228515625,-0.24591064453125,-0.94024658203125
1760022024839,79797324,1545,26,0.329833984375,-0.24346923828125,-0.92828369140625
1760022024839,79797324,1545,27,0.331298828125,-0.24542236328125,-0.93463134765625
1760022024839,79797324,1545,28,0.33056640625,-0.24322509765625,-0.93341064453125
1760022024839,79797324,1545,29,0.326171875,-0.24298095703125,-0.92584228515625
1760022024839,79797324,1545,30,0.329833984375,-0.24566650390625,-0.93414306640625
1760022024839,79797324,1545,31,0.33203125,-0.24468994140625,-0.93585205078125
