receivedPhoneTimestamp,respeckTimestamp,packetSeqNum,sampleSeqNum,accelX,accelY,accelZ
1759669939667,797961461,6534,0,0.443603515625,0.09906005859375,-0.90972900390625
1759669939667,797961461,6534,1,0.445068359375,0.09588623046875,-0.91705322265625
1759669939667,797961461,6534,2,0.425537109375,0.12200927734375,-0.89459228515625
1759669939667,797961461,6534,3,0.455078125,0.14422607421875,-0.92681884765625
1759669939667,797961461,6534,4,0.472900390625,0.14251708984375,-0.90997314453125
1759669939667,797961461,6534,5,0.47607421875,0.09759521484375,-0.79302978515625
1759669939667,797961461,6534,6,0.489013671875,0.10565185546875,-0.88702392578125
1759669939667,797961461,6534,7,0.477783203125,0.12762451171875,-0.90924072265625
1759669939667,797961461,6534,8,0.51513671875,0.13006591796875,-0.93511962890625
1759669939667,797961461,6534,9,0.486572265625,0.06365966796875,-0.74591064453125
1759669939667,797961461,6534,10,0.500244140625,0.09613037109375,-0.85455322265625
1759669939667,797961461,6534,11,0.490234375,0.13836669921875,-0.93170166015625
1759669939667,797961461,6534,12,0.470947265625,0.13006591796875,-0.88214111328125
1759669939667,797961461,6534,13,0.491943359375,0.14056396484375,-0.92095947265625
1759669939667,797961461,6534,14,0.50439453125,0.10125732421875,-0.81182861328125
1759669939667,797961461,6534,15,0.480712890625,0.09466552734375,-0.84185791015625
1759669939667,797961461,6534,16,0.4736328125,0.11053466796875,-0.93585205078125
1759669939667,797961461,6534,17,0.459716796875,0.10614013671875,-0.91436767578125
1759669939667,797961461,6534,18,0.45166015625,0.10296630859375,-0.89263916015625
1759669939667,797961461,6534,19,0.455810546875,0.10321044921875,-0.90997314453125
1759669939667,797961461,6534,20,0.446533203125,0.10272216796875,-0.89385986328125
1759669939667,797961461,6534,21,0.451416015625,0.10491943359375,-0.90997314453125
1759669939667,797961461,6534,22,0.447509765625,0.10345458984375,-0.90533447265625
1759669939667,797961461,6534,23,0.4482421875,0.09808349609375,-0.89410400390625
1759669939667,797961461,6534,24,0.4541015625,0.13446044921875,-0.91461181640625
1759669939667,797961461,6534,25,0.47265625,0.14447021484375,-0.92071533203125
1759669939667,797961461,6534,26,0.47900390625,0.11492919921875,-0.82501220703125
1759669939667,797961461,6534,27,0.4970703125,0.10272216796875,-0.87579345703125
1759669939667,797961461,6534,28,0.48681640625,0.11663818359375,-0.90972900390625
1759669939667,797961461,6534,29,0.515380859375,0.11126708984375,-0.92535400390625
1759669939667,797961461,6534,30,0.517333984375,0.08050537109375,-0.73052978515625
1759669939667,797961461,6534,31,0.52197265625,0.08294677734375,-0.83453369140625
1759669942221,797964040,6535,0,0.50048828125,0.10809326171875,-0.94097900390625
1759669942221,797964040,6535,1,0.47265625,0.09344482421875,-0.88629150390625
1759669942221,797964040,6535,2,0.47216796875,0.10418701171875,-0.90655517578125
1759669942221,797964040,6535,3,0.459228515625,0.10540771484375,-0.89117431640625
1759669942221,797964040,6535,4,0.45654296875,0.11468505859375,-0.90948486328125
1759669942221,797964040,6535,5,0.450927734375,0.12103271484375,-0.89239501953125
1759669942221,797964040,6535,6,0.449951171875,0.11883544921875,-0.90240478515625
1759669942221,797964040,6535,7,0.45947265625,0.13983154296875,-0.89483642578125
1759669942221,797964040,6535,8,0.47412109375,0.15545654296875,-0.90362548828125
1759669942221,797964040,6535,9,0.488037109375,0.14251708984375,-0.87481689453125
1759669942221,797964040,6535,10,0.475830078125,0.11175537109375,-0.83062744140625
1759669942221,797964040,6535,11,0.4873046875,0.12103271484375,-0.90655517578125
1759669942221,797964040,6535,12,0.478271484375,0.12469482421875,-0.91021728515625
1759669942221,797964040,6535,13,0.50830078125,0.12225341796875,-0.91461181640625
1759669942221,797964040,6535,14,0.49609375,0.07171630859375,-0.72491455078125
1759669942221,797964040,6535,15,0.51123046875,0.10736083984375,-0.92510986328125
1759669942221,797964040,6535,16,0.479248046875,0.11517333984375,-0.90435791015625
1759669942221,797964040,6535,17,0.49609375,0.12322998046875,-0.95269775390625
1759669942221,797964040,6535,18,0.481689453125,0.08538818359375,-0.74542236328125
1759669942221,797964040,6535,19,0.4951171875,0.07098388671875,-0.85968017578125
1759669942221,797964040,6535,20,0.491943359375,0.11151123046875,-0.93951416015625
1759669942221,797964040,6535,21,0.467041015625,0.10198974609375,-0.87799072265625
1759669942221,797964040,6535,22,0.4677734375,0.10882568359375,-0.89703369140625
1759669942221,797964040,6535,23,0.459716796875,0.10198974609375,-0.89605712890625
1759669942221,797964040,6535,24,0.455078125,0.10736083984375,-0.89947509765625
1759669942221,797964040,6535,25,0.4521484375,0.11077880859375,-0.90386962890625
1759669942221,797964040,6535,26,0.453125,0.11029052734375,-0.90191650390625
1759669942221,797964040,6535,27,0.45068359375,0.11053466796875,-0.90338134765625
1759669942221,797964040,6535,28,0.447998046875,0.12030029296875,-0.90289306640625
1759669942221,797964040,6535,29,0.4697265625,0.13372802734375,-0.91021728515625
1759669942221,797964040,6535,30,0.490478515625,0.12445068359375,-0.89849853515625
1759669942221,797964040,6535,31,0.48828125,0.09368896484375,-0.80938720703125
1759669944767,797966620,6536,0,0.484375,0.11053466796875,-0.89312744140625
1759669944767,797966620,6536,1,0.470458984375,0.12396240234375,-0.91729736328125
1759669944767,797966620,6536,2,0.49365234375,0.13323974609375,-0.92266845703125
1759669944767,797966620,6536,3,0.502197265625,0.05828857421875,-0.76104736328125
1759669944767,797966620,6536,4,0.4990234375,0.08709716796875,-0.88140869140625
1759669944767,797966620,6536,5,0.49462890625,0.11224365234375,-0.93536376953125
1759669944767,797966620,6536,6,0.47021484375,0.10272216796875,-0.87188720703125
1759669944767,797966620,6536,7,0.4765625,0.09930419921875,-0.89263916015625
1759669944767,797966620,6536,8,0.468994140625,0.09930419921875,-0.89898681640625
1759669944767,797966620,6536,9,0.465576171875,0.10150146484375,-0.88580322265625
1759669944767,797966620,6536,10,0.458251953125,0.10467529296875,-0.90533447265625
1759669944767,797966620,6536,11,0.45654296875,0.10247802734375,-0.90338134765625
1759669944767,797966620,6536,12,0.453369140625,0.10467529296875,-0.90142822265625
1759669944767,797966620,6536,13,0.446044921875,0.10784912109375,-0.89019775390625
1759669944767,797966620,6536,14,0.45849609375,0.13128662109375,-0.92681884765625
1759669944767,797966620,6536,15,0.471435546875,0.12396240234375,-0.88873291015625
1759669944767,797966620,6536,16,0.495849609375,0.10565185546875,-0.85382080078125
1759669944767,797966620,6536,17,0.50830078125,0.09808349609375,-0.85772705078125
1759669944767,797966620,6536,18,0.492919921875,0.08441162109375,-0.80718994140625
1759669944767,797966620,6536,19,0.500732421875,0.11248779296875,-0.90948486328125
1759669944767,797966620,6536,20,0.481689453125,0.11639404296875,-0.89752197265625
1759669944767,797966620,6536,21,0.49609375,0.12030029296875,-0.89654541015625
1759669944767,797966620,6536,22,0.515625,0.10711669921875,-0.84039306640625
1759669944767,797966620,6536,23,0.49169921875,0.08709716796875,-0.82696533203125
1759669944767,797966620,6536,24,0.50341796875,0.12078857421875,-0.92120361328125
1759669944767,797966620,6536,25,0.4833984375,0.11297607421875,-0.88165283203125
1759669944767,797966620,6536,26,0.487060546875,0.12225341796875,-0.87530517578125
1759669944767,797966620,6536,27,0.49951171875,0.12371826171875,-0.89190673828125
1759669944767,797966620,6536,28,0.5126953125,0.10589599609375,-0.86407470703125
1759669944767,797966620,6536,29,0.501953125,0.08270263671875,-0.79205322265625
1759669944767,797966620,6536,30,0.49853515625,0.11004638671875,-0.90777587890625
1759669944767,797966620,6536,31,0.480712890625,0.11151123046875,-0.90924072265625
1759669947318,797969199,6537,0,0.470947265625,0.09808349609375,-0.88458251953125
1759669947318,797969199,6537,1,0.46826171875,0.10369873046875,-0.89752197265625
1759669947318,797969199,6537,2,0.46240234375,0.10150146484375,-0.91632080078125
1759669947318,797969199,6537,3,0.45654296875,0.09857177734375,-0.88360595703125
1759669947318,797969199,6537,4,0.459716796875,0.09906005859375,-0.88165283203125
1759669947318,797969199,6537,5,0.45703125,0.09808349609375,-0.91387939453125
1759669947318,797969199,6537,6,0.442626953125,0.10198974609375,-0.90924072265625
1759669947318,797969199,6537,7,0.4443359375,0.11712646484375,-0.90655517578125
1759669947318,797969199,6537,8,0.447998046875,0.11419677734375,-0.89239501953125
1759669947318,797969199,6537,9,0.464111328125,0.13055419921875,-0.89874267578125
1759669947318,797969199,6537,10,0.46875,0.13104248046875,-0.88336181640625
1759669947318,797969199,6537,11,0.48681640625,0.12542724609375,-0.88677978515625
1759669947318,797969199,6537,12,0.49853515625,0.11859130859375,-0.86285400390625
1759669947318,797969199,6537,13,0.5302734375,0.12542724609375,-0.90679931640625
1759669947318,797969199,6537,14,0.500244140625,0.09124755859375,-0.76495361328125
1759669947318,797969199,6537,15,0.510986328125,0.11322021484375,-0.88067626953125
1759669947318,797969199,6537,16,0.488525390625,0.13983154296875,-0.89556884765625
1759669947318,797969199,6537,17,0.49169921875,0.14666748046875,-0.88824462890625
1759669947318,797969199,6537,18,0.50439453125,0.14300537109375,-0.91046142578125
1759669947318,797969199,6537,19,0.49267578125,0.09686279296875,-0.76373291015625
1759669947318,797969199,6537,20,0.496826171875,0.10882568359375,-0.90557861328125
1759669947318,797969199,6537,21,0.498046875,0.12371826171875,-0.92779541015625
1759669947318,797969199,6537,22,0.486083984375,0.11517333984375,-0.86627197265625
1759669947318,797969199,6537,23,0.4716796875,0.10491943359375,-0.87139892578125
1759669947318,797969199,6537,24,0.47119140625,0.10858154296875,-0.90118408203125
1759669947318,797969199,6537,25,0.463134765625,0.11029052734375,-0.89117431640625
1759669947318,797969199,6537,26,0.46875,0.11639404296875,-0.89117431640625
1759669947318,797969199,6537,27,0.46826171875,0.11224365234375,-0.88433837890625
1759669947318,797969199,6537,28,0.468505859375,0.11297607421875,-0.89361572265625
1759669947318,797969199,6537,29,0.461181640625,0.11737060546875,-0.88458251953125
1759669947318,797969199,6537,30,0.468017578125,0.13299560546875,-0.90216064453125
1759669947318,797969199,6537,31,0.476806640625,0.14031982421875,-0.90484619140625
1759669949861,797971778,6538,0,0.470947265625,0.12469482421875,-0.87091064453125
1759669949861,797971778,6538,1,0.488525390625,0.11590576171875,-0.87457275390625
1759669949861,797971778,6538,2,0.4892578125,0.12591552734375,-0.88360595703125
1759669949861,797971778,6538,3,0.519287109375,0.12786865234375,-0.90826416015625
1759669949861,797971778,6538,4,0.5009765625,0.08416748046875,-0.78009033203125
1759669949861,797971778,6538,5,0.4970703125,0.10955810546875,-0.88946533203125
1759669949861,797971778,6538,6,0.47998046875,0.12860107421875,-0.90777587890625
1759669949861,797971778,6538,7,0.49169921875,0.13250732421875,-0.92657470703125
1759669949861,797971778,6538,8,0.50732421875,0.10247802734375,-0.85723876953125
1759669949861,797971778,6538,9,0.506103515625,0.07489013671875,-0.80035400390625
1759669949861,797971778,6538,10,0.500732421875,0.10760498046875,-0.91607666015625
1759669949861,797971778,6538,11,0.50439453125,0.10589599609375,-0.91510009765625
1759669949861,797971778,6538,12,0.523193359375,0.08660888671875,-0.88653564453125
1759669949861,797971778,6538,13,0.534912109375,0.07122802734375,-0.73370361328125
1759669949861,797971778,6538,14,0.518798828125,0.09588623046875,-0.83990478515625
1759669949861,797971778,6538,15,0.515625,0.12127685546875,-0.91070556640625
1759669949861,797971778,6538,16,0.4833984375,0.10101318359375,-0.85894775390625
1759669949861,797971778,6538,17,0.483154296875,0.09637451171875,-0.89801025390625
1759669949861,797971778,6538,18,0.476318359375,0.09832763671875,-0.89556884765625
1759669949861,797971778,6538,19,0.468017578125,0.10052490234375,-0.90728759765625
1759669949861,797971778,6538,20,0.46435546875,0.09954833984375,-0.89385986328125
1759669949861,797971778,6538,21,0.46484375,0.09368896484375,-0.88262939453125
1759669949861,797971778,6538,22,0.476806640625,0.09661865234375,-0.90631103515625
1759669949861,797971778,6538,23,0.46875,0.09857177734375,-0.87652587890625
1759669949861,797971778,6538,24,0.484130859375,0.11590576171875,-0.89727783203125
1759669949861,797971778,6538,25,0.482666015625,0.12176513671875,-0.88043212890625
1759669949861,797971778,6538,26,0.496826171875,0.11883544921875,-0.87677001953125
1759669949861,797971778,6538,27,0.507080078125,0.10296630859375,-0.86920166015625
1759669949861,797971778,6538,28,0.504150390625,0.09539794921875,-0.82183837890625
1759669949861,797971778,6538,29,0.4931640625,0.10150146484375,-0.86627197265625
1759669949861,797971778,6538,30,0.48974609375,0.11859130859375,-0.91534423828125
1759669949861,797971778,6538,31,0.489013671875,0.10760498046875,-0.87969970703125
1759669952567,797974357,6539,0,0.5009765625,0.10369873046875,-0.87628173828125
1759669952567,797974357,6539,1,0.50146484375,0.09075927734375,-0.83551025390625
1759669952567,797974357,6539,2,0.4873046875,0.10516357421875,-0.86578369140625
1759669952567,797974357,6539,3,0.4736328125,0.10589599609375,-0.90997314453125
1759669952567,797974357,6539,4,0.471923828125,0.10003662109375,-0.90338134765625
1759669952567,797974357,6539,5,0.462890625,0.10125732421875,-0.87921142578125
1759669952567,797974357,6539,6,0.46826171875,0.10052490234375,-0.90216064453125
1759669952567,797974357,6539,7,0.4599609375,0.09906005859375,-0.89141845703125
1759669952567,797974357,6539,8,0.457763671875,0.10003662109375,-0.91241455078125
1759669952567,797974357,6539,9,0.448486328125,0.10101318359375,-0.90753173828125
1759669952567,797974357,6539,10,0.4501953125,0.10321044921875,-0.90826416015625
1759669952567,797974357,6539,11,0.45947265625,0.11102294921875,-0.89093017578125
1759669952567,797974357,6539,12,0.4716796875,0.11785888671875,-0.89947509765625
1759669952567,797974357,6539,13,0.47216796875,0.11053466796875,-0.87847900390625
1759669952567,797974357,6539,14,0.48681640625,0.11370849609375,-0.88653564453125
1759669952567,797974357,6539,15,0.48828125,0.11322021484375,-0.89898681640625
1759669952567,797974357,6539,16,0.49609375,0.11053466796875,-0.87554931640625
1759669952567,797974357,6539,17,0.481201171875,0.08782958984375,-0.80303955078125
1759669952567,797974357,6539,18,0.481201171875,0.11834716796875,-0.90435791015625
1759669952567,797974357,6539,19,0.469970703125,0.12689208984375,-0.92071533203125
1759669952567,797974357,6539,20,0.483154296875,0.12322998046875,-0.89459228515625
1759669952567,797974357,6539,21,0.4912109375,0.10198974609375,-0.83355712890625
1759669952567,797974357,6539,22,0.484619140625,0.11810302734375,-0.89117431640625
1759669952567,797974357,6539,23,0.47705078125,0.12542724609375,-0.91094970703125
1759669952567,797974357,6539,24,0.46630859375,0.11322021484375,-0.87750244140625
1759669952567,797974357,6539,25,0.465576171875,0.10614013671875,-0.89141845703125
1759669952567,797974357,6539,26,0.458984375,0.10150146484375,-0.88970947265625
1759669952567,797974357,6539,27,0.45654296875,0.10052490234375,-0.91632080078125
1759669952567,797974357,6539,28,0.45166015625,0.10198974609375,-0.90826416015625
1759669952567,797974357,6539,29,0.45458984375,0.09881591796875,-0.89752197265625
1759669952567,797974357,6539,30,0.448974609375,0.09783935546875,-0.90069580078125
1759669952567,797974357,6539,31,0.444091796875,0.09954833984375,-0.90191650390625
1759669955117,797976936,6540,0,0.44580078125,0.10052490234375,-0.91290283203125
1759669955117,797976936,6540,1,0.442138671875,0.10467529296875,-0.89532470703125
1759669955117,797976936,6540,2,0.45703125,0.11859130859375,-0.91973876953125
1759669955117,797976936,6540,3,0.45849609375,0.12030029296875,-0.87725830078125
1759669955117,797976936,6540,4,0.468505859375,0.11981201171875,-0.88848876953125
1759669955117,797976936,6540,5,0.48046875,0.11981201171875,-0.90289306640625
1759669955117,797976936,6540,6,0.499267578125,0.11273193359375,-0.89239501953125
1759669955117,797976936,6540,7,0.486572265625,0.08660888671875,-0.77618408203125
1759669955117,797976936,6540,8,0.49462890625,0.10760498046875,-0.89971923828125
1759669955117,797976936,6540,9,0.47802734375,0.12298583984375,-0.92291259765625
1759669955117,797976936,6540,10,0.485595703125,0.11932373046875,-0.91705322265625
1759669955117,797976936,6540,11,0.510009765625,0.09588623046875,-0.81182861328125
1759669955117,797976936,6540,12,0.501708984375,0.09100341796875,-0.81622314453125
1759669955117,797976936,6540,13,0.505615234375,0.10369873046875,-0.91192626953125
1759669955117,797976936,6540,14,0.475830078125,0.10784912109375,-0.89971923828125
1759669955117,797976936,6540,15,0.462646484375,0.10223388671875,-0.88995361328125
1759669955117,797976936,6540,16,0.4599609375,0.10150146484375,-0.91510009765625
1759669955117,797976936,6540,17,0.45556640625,0.09783935546875,-0.90069580078125
1759669955117,797976936,6540,18,0.4541015625,0.09637451171875,-0.89556884765625
1759669955117,797976936,6540,19,0.451904296875,0.09490966796875,-0.89654541015625
1759669955117,797976936,6540,20,0.449462890625,0.09613037109375,-0.91412353515625
1759669955117,797976936,6540,21,0.44970703125,0.09979248046875,-0.90582275390625
1759669955117,797976936,6540,22,0.45703125,0.11419677734375,-0.91241455078125
1759669955117,797976936,6540,23,0.469482421875,0.11541748046875,-0.88262939453125
1759669955117,797976936,6540,24,0.483154296875,0.11517333984375,-0.87506103515625
1759669955117,797976936,6540,25,0.486572265625,0.10272216796875,-0.87115478515625
1759669955117,797976936,6540,26,0.48828125,0.11492919921875,-0.88873291015625
1759669955117,797976936,6540,27,0.484619140625,0.12030029296875,-0.88726806640625
1759669955117,797976936,6540,28,0.489013671875,0.10784912109375,-0.85235595703125
1759669955117,797976936,6540,29,0.490234375,0.10272216796875,-0.86651611328125
1759669955117,797976936,6540,30,0.484619140625,0.11297607421875,-0.89019775390625
1759669955117,797976936,6540,31,0.50048828125,0.11639404296875,-0.91168212890625
1759669957668,797979515,6541,0,0.516357421875,0.09173583984375,-0.88555908203125
1759669957668,797979515,6541,1,0.5244140625,0.06341552734375,-0.75811767578125
1759669957668,797979515,6541,2,0.513916015625,0.08612060546875,-0.87091064453125
1759669957668,797979515,6541,3,0.50048828125,0.11370849609375,-0.91168212890625
1759669957668,797979515,6541,4,0.479736328125,0.10467529296875,-0.87750244140625
1759669957668,797979515,6541,5,0.47900390625,0.10614013671875,-0.90191650390625
1759669957668,797979515,6541,6,0.465087890625,0.11102294921875,-0.89263916015625
1759669957668,797979515,6541,7,0.4658203125,0.11541748046875,-0.89385986328125
1759669957668,797979515,6541,8,0.458984375,0.11077880859375,-0.89093017578125
1759669957668,797979515,6541,9,0.45703125,0.11346435546875,-0.90655517578125
1759669957668,797979515,6541,10,0.453857421875,0.11737060546875,-0.90460205078125
1759669957668,797979515,6541,11,0.451171875,0.11956787109375,-0.90118408203125
1759669957668,797979515,6541,12,0.4541015625,0.12005615234375,-0.89874267578125
1759669957668,797979515,6541,13,0.451904296875,0.11517333984375,-0.89898681640625
1759669957668,797979515,6541,14,0.457763671875,0.13519287109375,-0.89385986328125
1759669957668,797979515,6541,15,0.472412109375,0.14520263671875,-0.90216064453125
1759669957668,797979515,6541,16,0.474365234375,0.14056396484375,-0.87017822265625
1759669957668,797979515,6541,17,0.4853515625,0.13934326171875,-0.89678955078125
1759669957668,797979515,6541,18,0.47412109375,0.09710693359375,-0.80914306640625
1759669957668,797979515,6541,19,0.500732421875,0.13226318359375,-0.90069580078125
1759669957668,797979515,6541,20,0.47998046875,0.13348388671875,-0.88433837890625
1759669957668,797979515,6541,21,0.486572265625,0.12982177734375,-0.89166259765625
1759669957668,797979515,6541,22,0.50927734375,0.11956787109375,-0.89776611328125
1759669957668,797979515,6541,23,0.49853515625,0.09197998046875,-0.80206298828125
1759669957668,797979515,6541,24,0.48974609375,0.11859130859375,-0.89971923828125
1759669957668,797979515,6541,25,0.481201171875,0.13177490234375,-0.91510009765625
1759669957668,797979515,6541,26,0.46630859375,0.11883544921875,-0.87921142578125
1759669957668,797979515,6541,27,0.47265625,0.12103271484375,-0.89117431640625
1759669957668,797979515,6541,28,0.46728515625,0.11663818359375,-0.88897705078125
1759669957668,797979515,6541,29,0.461181640625,0.11956787109375,-0.89727783203125
1759669957668,797979515,6541,30,0.456787109375,0.11956787109375,-0.89874267578125
1759669957668,797979515,6541,31,0.455322265625,0.11810302734375,-0.90045166015625
1759669960217,797982094,6542,0,0.44970703125,0.11541748046875,-0.88873291015625
1759669960217,797982094,6542,1,0.439208984375,0.12493896484375,-0.92388916015625
1759669960217,797982094,6542,2,0.440185546875,0.13470458984375,-0.92047119140625
1759669960217,797982094,6542,3,0.461669921875,0.13787841796875,-0.90411376953125
1759669960217,797982094,6542,4,0.47900390625,0.12689208984375,-0.86407470703125
1759669960217,797982094,6542,5,0.499267578125,0.11785888671875,-0.87506103515625
1759669960217,797982094,6542,6,0.51513671875,0.11297607421875,-0.83941650390625
1759669960217,797982094,6542,7,0.514892578125,0.10101318359375,-0.79278564453125
1759669960217,797982094,6542,8,0.503173828125,0.12225341796875,-0.91387939453125
1759669960217,797982094,6542,9,0.491943359375,0.13128662109375,-0.89166259765625
1759669960217,797982094,6542,10,0.5224609375,0.13885498046875,-0.91046142578125
1759669960217,797982094,6542,11,0.49169921875,0.09954833984375,-0.76617431640625
1759669960217,797982094,6542,12,0.49755859375,0.12908935546875,-0.91192626953125
1759669960217,797982094,6542,13,0.482421875,0.13104248046875,-0.90216064453125
1759669960217,797982094,6542,14,0.487060546875,0.13250732421875,-0.87823486328125
1759669960217,797982094,6542,15,0.506591796875,0.12713623046875,-0.87823486328125
1759669960217,797982094,6542,16,0.500244140625,0.10247802734375,-0.80352783203125
1759669960217,797982094,6542,17,0.500732421875,0.11663818359375,-0.88848876953125
1759669960217,797982094,6542,18,0.478271484375,0.11981201171875,-0.89141845703125
1759669960217,797982094,6542,19,0.477783203125,0.11834716796875,-0.89483642578125
1759669960217,797982094,6542,20,0.48388671875,0.12396240234375,-0.88287353515625
1759669960217,797982094,6542,21,0.48779296875,0.12298583984375,-0.86236572265625
1759669960217,797982094,6542,22,0.490478515625,0.13177490234375,-0.86920166015625
1759669960217,797982094,6542,23,0.498046875,0.12127685546875,-0.85845947265625
1759669960217,797982094,6542,24,0.489990234375,0.13543701171875,-0.88067626953125
1759669960217,797982094,6542,25,0.472412109375,0.12982177734375,-0.88531494140625
1759669960217,797982094,6542,26,0.47021484375,0.12982177734375,-0.90020751953125
1759669960217,797982094,6542,27,0.47802734375,0.12762451171875,-0.86700439453125
1759669960217,797982094,6542,28,0.48974609375,0.14324951171875,-0.89459228515625
1759669960217,797982094,6542,29,0.48583984375,0.13348388671875,-0.87384033203125
1759669960217,797982094,6542,30,0.499755859375,0.11956787109375,-0.87750244140625
1759669960217,797982094,6542,31,0.48583984375,0.09271240234375,-0.79425048828125
1759669962917,797984673,6543,0,0.50634765625,0.11761474609375,-0.91851806640625
1759669962917,797984673,6543,1,0.488037109375,0.12322998046875,-0.89556884765625
1759669962917,797984673,6543,2,0.51708984375,0.12615966796875,-0.89947509765625
1759669962917,797984673,6543,3,0.48876953125,0.09344482421875,-0.75274658203125
1759669962917,797984673,6543,4,0.512939453125,0.12982177734375,-0.92486572265625
1759669962917,797984673,6543,5,0.4912109375,0.13348388671875,-0.89044189453125
1759669962917,797984673,6543,6,0.474365234375,0.12640380859375,-0.87432861328125
1759669962917,797984673,6543,7,0.468994140625,0.12322998046875,-0.89044189453125
1759669962917,797984673,6543,8,0.461669921875,0.12322998046875,-0.90191650390625
1759669962917,797984673,6543,9,0.455810546875,0.12176513671875,-0.89581298828125
1759669962917,797984673,6543,10,0.45654296875,0.12347412109375,-0.90289306640625
1759669962917,797984673,6543,11,0.4501953125,0.12103271484375,-0.90045166015625
1759669962917,797984673,6543,12,0.451904296875,0.11956787109375,-0.90484619140625
1759669962917,797984673,6543,13,0.46484375,0.12811279296875,-0.89044189453125
1759669962917,797984673,6543,14,0.47900390625,0.13079833984375,-0.88555908203125
1759669962917,797984673,6543,15,0.49755859375,0.12835693359375,-0.85748291015625
1759669962917,797984673,6543,16,0.49755859375,0.10882568359375,-0.83990478515625
1759669962917,797984673,6543,17,0.50439453125,0.12738037109375,-0.90264892578125
1759669962917,797984673,6543,18,0.494384765625,0.12176513671875,-0.87530517578125
1759669962917,797984673,6543,19,0.515380859375,0.11834716796875,-0.88165283203125
1759669962917,797984673,6543,20,0.5009765625,0.09222412109375,-0.81402587890625
1759669962917,797984673,6543,21,0.509033203125,0.11590576171875,-0.88995361328125
1759669962917,797984673,6543,22,0.499755859375,0.11712646484375,-0.89166259765625
1759669962917,797984673,6543,23,0.516845703125,0.11956787109375,-0.88873291015625
1759669962917,797984673,6543,24,0.5009765625,0.09661865234375,-0.78546142578125
1759669962917,797984673,6543,25,0.505126953125,0.11224365234375,-0.87115478515625
1759669962917,797984673,6543,26,0.49853515625,0.12274169921875,-0.89117431640625
1759669962917,797984673,6543,27,0.483642578125,0.11688232421875,-0.87677001953125
1759669962917,797984673,6543,28,0.47900390625,0.11590576171875,-0.89141845703125
1759669962917,797984673,6543,29,0.466796875,0.11614990234375,-0.88970947265625
1759669962917,797984673,6543,30,0.46044921875,0.11102294921875,-0.89996337890625
1759669962917,797984673,6543,31,0.45703125,0.11322021484375,-0.90435791015625
1759669965470,797987253,6544,0,0.45654296875,0.11468505859375,-0.90460205078125
1759669965470,797987253,6544,1,0.453369140625,0.11468505859375,-0.90167236328125
1759669965470,797987253,6544,2,0.455322265625,0.11761474609375,-0.89654541015625
1759669965470,797987253,6544,3,0.4560546875,0.11761474609375,-0.89385986328125
1759669965470,797987253,6544,4,0.454345703125,0.11712646484375,-0.90118408203125
1759669965470,797987253,6544,5,0.4521484375,0.12322998046875,-0.89776611328125
1759669965470,797987253,6544,6,0.466064453125,0.13714599609375,-0.90118408203125
1759669965470,797987253,6544,7,0.473876953125,0.13201904296875,-0.88897705078125
1759669965470,797987253,6544,8,0.48095703125,0.12445068359375,-0.87896728515625
1759669965470,797987253,6544,9,0.502685546875,0.11859130859375,-0.85894775390625
1759669965470,797987253,6544,10,0.517333984375,0.11712646484375,-0.84674072265625
1759669965470,797987253,6544,11,0.50341796875,0.09881591796875,-0.80499267578125
1759669965470,797987253,6544,12,0.509765625,0.11444091796875,-0.87750244140625
1759669965470,797987253,6544,13,0.49609375,0.12835693359375,-0.89678955078125
1759669965470,797987253,6544,14,0.501708984375,0.13201904296875,-0.89776611328125
1759669965470,797987253,6544,15,0.5048828125,0.10906982421875,-0.80157470703125
1759669965470,797987253,6544,16,0.5029296875,0.12347412109375,-0.87066650390625
1759669965470,797987253,6544,17,0.48583984375,0.12957763671875,-0.90460205078125
1759669965470,797987253,6544,18,0.47119140625,0.11761474609375,-0.88287353515625
1759669965470,797987253,6544,19,0.469970703125,0.11883544921875,-0.88507080078125
1759669965470,797987253,6544,20,0.468994140625,0.11273193359375,-0.88824462890625
1759669965470,797987253,6544,21,0.46533203125,0.11761474609375,-0.89483642578125
1759669965470,797987253,6544,22,0.460205078125,0.11639404296875,-0.88970947265625
1759669965470,797987253,6544,23,0.459228515625,0.11834716796875,-0.90020751953125
1759669965470,797987253,6544,24,0.45654296875,0.11761474609375,-0.89581298828125
1759669965470,797987253,6544,25,0.460205078125,0.11981201171875,-0.89678955078125
1759669965470,797987253,6544,26,0.456787109375,0.12054443359375,-0.89703369140625
1759669965470,797987253,6544,27,0.45654296875,0.12005615234375,-0.89459228515625
1759669965470,797987253,6544,28,0.456787109375,0.11859130859375,-0.89556884765625
1759669965470,797987253,6544,29,0.453857421875,0.12127685546875,-0.89874267578125
1759669965470,797987253,6544,30,0.447998046875,0.12127685546875,-0.90460205078125
1759669965470,797987253,6544,31,0.44384765625,0.12030029296875,-0.90435791015625
1759669968019,797989832,6545,0,0.445068359375,0.11785888671875,-0.90679931640625
1759669968019,797989832,6545,1,0.447509765625,0.11468505859375,-0.89263916015625
1759669968019,797989832,6545,2,0.456787109375,0.13494873046875,-0.89947509765625
1759669968019,797989832,6545,3,0.465087890625,0.14373779296875,-0.89752197265625
1759669968019,797989832,6545,4,0.4765625,0.13226318359375,-0.85675048828125
1759669968019,797989832,6545,5,0.48828125,0.13665771484375,-0.87359619140625
1759669968019,797989832,6545,6,0.48095703125,0.13494873046875,-0.88531494140625
1759669968019,797989832,6545,7,0.497314453125,0.13543701171875,-0.87603759765625
1759669968019,797989832,6545,8,0.487548828125,0.12860107421875,-0.85919189453125
1759669968019,797989832,6545,9,0.475830078125,0.14080810546875,-0.89483642578125
1759669968019,797989832,6545,10,0.47998046875,0.14154052734375,-0.89849853515625
1759669968019,797989832,6545,11,0.49365234375,0.12689208984375,-0.86358642578125
1759669968019,797989832,6545,12,0.482666015625,0.11517333984375,-0.83526611328125
1759669968019,797989832,6545,13,0.482666015625,0.14031982421875,-0.92144775390625
1759669968019,797989832,6545,14,0.461181640625,0.12225341796875,-0.87994384765625
1759669968019,797989832,6545,15,0.46923828125,0.12249755859375,-0.89093017578125
1759669968019,797989832,6545,16,0.4619140625,0.11883544921875,-0.88946533203125
1759669968019,797989832,6545,17,0.462646484375,0.12078857421875,-0.89385986328125
1759669968019,797989832,6545,18,0.45703125,0.11981201171875,-0.90338134765625
1759669968019,797989832,6545,19,0.454345703125,0.11981201171875,-0.90240478515625
1759669968019,797989832,6545,20,0.45556640625,0.11981201171875,-0.89947509765625
1759669968019,797989832,6545,21,0.455322265625,0.13177490234375,-0.89312744140625
1759669968019,797989832,6545,22,0.45654296875,0.13763427734375,-0.89385986328125
1759669968019,797989832,6545,23,0.46142578125,0.13543701171875,-0.88189697265625
