receivedPhoneTimestamp,respeckTimestamp,packetSeqNum,sampleSeqNum,accelX,accelY,accelZ
1760203042693,1405693734,18176,0,-0.090576171875,0.01068115234375,0.97576904296875
1760203042693,1405693734,18176,1,-0.19140625,-0.02716064453125,0.84320068359375
1760203042693,1405693734,18176,2,-0.05224609375,-0.00518798828125,0.96893310546875
1760203042693,1405693734,18176,3,-0.050537109375,-0.02886962890625,0.87078857421875
1760203042693,1405693734,18176,4,-0.134765625,-0.01544189453125,1.00091552734375
1760203042693,1405693734,18176,5,-0.14453125,0.02996826171875,0.88958740234375
1760203042693,1405693734,18176,6,-0.14208984375,0.00799560546875,0.87445068359375
1760203042693,1405693734,18176,7,-0.2275390625,0.01165771484375,1.19061279296875
1760203042693,1405693734,18176,8,-0.1630859375,-0.02471923828125,0.71234130859375
1760203042693,1405693734,18176,9,-0.110107421875,-0.04425048828125,0.80609130859375
1760203042693,1405693734,18176,10,-0.05810546875,0.00311279296875,1.04705810546875
1760203042693,1405693734,18176,11,-0.182373046875,-0.02569580078125,0.89593505859375
1760203042693,1405693734,18176,12,-0.17578125,0.03045654296875,0.92816162109375
1760203042693,1405693734,18176,13,-0.14306640625,0.03680419921875,0.89324951171875
1760203042693,1405693734,18176,14,-0.216796875,-0.05230712890625,0.99407958984375
1760203042693,1405693734,18176,15,-0.09521484375,-0.01715087890625,0.86834716796875
1760203042693,1405693734,18176,16,0.015380859375,-0.02227783203125,0.83538818359375
1760203042693,1405693734,18176,17,-0.121337890625,-0.00128173828125,1.08587646484375
1760203042693,1405693734,18176,18,-0.215576171875,-0.02130126953125,0.82269287109375
1760203042693,1405693734,18176,19,-0.194580078125,0.00531005859375,0.96551513671875
1760203042693,1405693734,18176,20,0.137451171875,-0.00396728515625,0.81341552734375
1760203042693,1405693734,18176,21,-0.1005859375,0.06097412109375,1.00799560546875
1760203042693,1405693734,18176,22,-0.13037109375,-0.01861572265625,1.04901123046875
1760203042693,1405693734,18176,23,-0.296875,0.04168701171875,0.89031982421875
1760203042693,1405693734,18176,24,0.0361328125,-0.03643798828125,0.75018310546875
1760203042693,1405693734,18176,25,0.019775390625,-0.01495361328125,1.00262451171875
1760203042693,1405693734,18176,26,-0.1416015625,-0.02740478515625,0.92596435546875
1760203042693,1405693734,18176,27,-0.070556640625,-0.04620361328125,1.01312255859375
1760203042693,1405693734,18176,28,-0.157470703125,0.02923583984375,0.83148193359375
1760203042693,1405693734,18176,29,-0.12353515625,0.03900146484375,0.93377685546875
1760203042693,1405693734,18176,30,-0.22314453125,-0.10186767578125,1.04193115234375
1760203042693,1405693734,18176,31,-0.06787109375,-0.01666259765625,0.82586669921875
1760203045217,1405696307,18177,0,-0.01318359375,-0.02130126953125,0.81439208984375
1760203045217,1405696307,18177,1,-0.11474609375,-0.00860595703125,0.99627685546875
1760203045217,1405696307,18177,2,-0.1669921875,-0.04083251953125,1.00506591796875
1760203045217,1405696307,18177,3,-0.180419921875,0.04290771484375,0.91815185546875
1760203045217,1405696307,18177,4,-0.02978515625,-0.03912353515625,0.81951904296875
1760203045217,1405696307,18177,5,0.051513671875,-0.01910400390625,0.91741943359375
1760203045217,1405696307,18177,6,-0.181396484375,0.03118896484375,1.04754638671875
1760203045217,1405696307,18177,7,-0.1552734375,0.03289794921875,0.93304443359375
1760203045217,1405696307,18177,8,-0.13818359375,-0.01690673828125,0.82904052734375
1760203045217,1405696307,18177,9,0.073974609375,-0.07037353515625,0.84539794921875
1760203045217,1405696307,18177,10,-0.110107421875,-0.00836181640625,1.01727294921875
1760203045217,1405696307,18177,11,-0.13671875,-0.01715087890625,0.99993896484375
1760203045217,1405696307,18177,12,-0.22314453125,0.04852294921875,0.96307373046875
1760203045217,1405696307,18177,13,-0.070068359375,0.01068115234375,0.70819091796875
1760203045217,1405696307,18177,14,0.083251953125,-0.05987548828125,1.01336669921875
1760203045217,1405696307,18177,15,-0.20166015625,-0.01007080078125,0.93133544921875
1760203045217,1405696307,18177,16,-0.03564453125,-0.07623291015625,0.98895263671875
1760203045217,1405696307,18177,17,-0.12060546875,0.03631591796875,0.86541748046875
1760203045217,1405696307,18177,18,-0.084228515625,0.02288818359375,0.90057373046875
1760203045217,1405696307,18177,19,-0.147216796875,-0.05621337890625,1.01849365234375
1760203045217,1405696307,18177,20,-0.103515625,-0.01544189453125,0.83343505859375
1760203045217,1405696307,18177,21,-0.14794921875,-0.03375244140625,0.94061279296875
1760203045217,1405696307,18177,22,0.00341796875,0.01556396484375,0.86712646484375
1760203045217,1405696307,18177,23,-0.041259765625,-0.06280517578125,1.02728271484375
1760203045217,1405696307,18177,24,-0.1494140625,0.06463623046875,0.92230224609375
1760203045217,1405696307,18177,25,-0.14892578125,-0.00860595703125,0.89886474609375
1760203045217,1405696307,18177,26,-0.128662109375,-0.03717041015625,0.90228271484375
1760203045217,1405696307,18177,27,0.09228515625,-0.02569580078125,0.88275146484375
1760203045217,1405696307,18177,28,-0.09423828125,0.00897216796875,0.93109130859375
1760203045217,1405696307,18177,29,-0.098388671875,-0.05963134765625,0.99822998046875
1760203045217,1405696307,18177,30,-0.173828125,0.01434326171875,0.86639404296875
1760203045217,1405696307,18177,31,-0.207763671875,-0.00811767578125,0.99578857421875
1760203047916,1405698880,18178,0,0.0380859375,0.01995849609375,0.80609130859375
1760203047916,1405698880,18178,1,-0.043701171875,-0.04327392578125,0.99212646484375
1760203047916,1405698880,18178,2,-0.13525390625,-0.04229736328125,0.97869873046875
1760203047916,1405698880,18178,3,-0.133056640625,0.00604248046875,0.95452880859375
1760203047916,1405698880,18178,4,-0.140869140625,0.01336669921875,0.85662841796875
1760203047916,1405698880,18178,5,-0.073974609375,0.01116943359375,0.93231201171875
1760203047916,1405698880,18178,6,-0.131103515625,-0.06988525390625,1.01043701171875
1760203047916,1405698880,18178,7,-0.122314453125,0.02093505859375,0.88812255859375
1760203047916,1405698880,18178,8,-0.071533203125,-0.03668212890625,0.85687255859375
1760203047916,1405698880,18178,9,0.072265625,0.00457763671875,0.86004638671875
1760203047916,1405698880,18178,10,-0.1552734375,-0.00347900390625,1.04803466796875
1760203047916,1405698880,18178,11,-0.13916015625,-0.01153564453125,0.93255615234375
1760203047916,1405698880,18178,12,-0.19580078125,0.02313232421875,0.92254638671875
1760203047916,1405698880,18178,13,-0.00537109375,0.01239013671875,0.87811279296875
1760203047916,1405698880,18178,14,0.137939453125,-0.05816650390625,0.81781005859375
1760203047916,1405698880,18178,15,-0.146484375,0.01507568359375,1.04022216796875
1760203047916,1405698880,18178,16,-0.17138671875,-0.02154541015625,0.92938232421875
1760203047916,1405698880,18178,17,-0.218994140625,0.00408935546875,0.88934326171875
1760203047916,1405698880,18178,18,-0.07763671875,0.00653076171875,0.90740966796875
1760203047916,1405698880,18178,19,0.127685546875,-0.12921142578125,0.90545654296875
1760203047916,1405698880,18178,20,-0.240966796875,0.12103271484375,0.94671630859375
1760203047916,1405698880,18178,21,-0.086181640625,-0.05694580078125,1.00677490234375
1760203047916,1405698880,18178,22,-0.17919921875,0.03875732421875,0.80902099609375
1760203047916,1405698880,18178,23,-0.211181640625,-0.02178955078125,1.05780029296875
1760203047916,1405698880,18178,24,-0.11865234375,-0.04083251953125,0.80877685546875
1760203047916,1405698880,18178,25,-0.07763671875,0.02020263671875,0.92034912109375
1760203047916,1405698880,18178,26,0.004150390625,-0.00933837890625,0.91131591796875
1760203047916,1405698880,18178,27,-0.0947265625,-0.02642822265625,0.99188232421875
1760203047916,1405698880,18178,28,-0.17333984375,0.03338623046875,0.94940185546875
1760203047916,1405698880,18178,29,-0.177490234375,0.00799560546875,0.93377685546875
1760203047916,1405698880,18178,30,-0.171875,-0.00836181640625,0.90447998046875
1760203047916,1405698880,18178,31,-0.05419921875,0.01287841796875,0.84735107421875
1760203050436,1405701453,18179,0,0.161865234375,-0.13238525390625,0.89324951171875
1760203050436,1405701453,18179,1,-0.12109375,0.02947998046875,0.95916748046875
1760203050436,1405701453,18179,2,-0.2568359375,0.01776123046875,0.97552490234375
1760203050436,1405701453,18179,3,-0.180908203125,0.01434326171875,0.90985107421875
1760203050436,1405701453,18179,4,-0.23779296875,0.01336669921875,1.00189208984375
1760203050436,1405701453,18179,5,-0.09765625,-0.00030517578125,0.77850341796875
1760203050436,1405701453,18179,6,0.09521484375,-0.03594970703125,0.93670654296875
1760203050436,1405701453,18179,7,-0.1904296875,-0.01422119140625,0.92864990234375
1760203050436,1405701453,18179,8,-0.12744140625,-0.06085205078125,0.99945068359375
1760203050436,1405701453,18179,9,-0.13232421875,0.02825927734375,0.87640380859375
1760203050436,1405701453,18179,10,-0.112060546875,-0.00030517578125,0.93133544921875
1760203050436,1405701453,18179,11,-0.1357421875,-0.04107666015625,0.95233154296875
1760203050436,1405701453,18179,12,-0.09375,-0.04400634765625,0.89398193359375
1760203050436,1405701453,18179,13,-0.109619140625,-0.02838134765625,0.97454833984375
1760203050436,1405701453,18179,14,-0.112548828125,-0.01446533203125,0.87152099609375
1760203050436,1405701453,18179,15,0.00634765625,0.00701904296875,0.81365966796875
1760203050436,1405701453,18179,16,-0.049560546875,0.01263427734375,1.04998779296875
1760203050436,1405701453,18179,17,-0.224365234375,-0.00274658203125,0.90716552734375
1760203050436,1405701453,18179,18,-0.139404296875,0.01214599609375,0.93060302734375
1760203050436,1405701453,18179,19,-0.20751953125,0.01531982421875,0.97479248046875
1760203050436,1405701453,18179,20,-0.111083984375,0.00360107421875,0.82196044921875
1760203050436,1405701453,18179,21,0.075927734375,-0.08770751953125,0.88787841796875
1760203050436,1405701453,18179,22,-0.085205078125,-0.01519775390625,0.95770263671875
1760203050436,1405701453,18179,23,-0.216064453125,0.04559326171875,0.98236083984375
1760203050436,1405701453,18179,24,-0.1650390625,0.01605224609375,0.92572021484375
1760203050436,1405701453,18179,25,-0.254150390625,0.02337646484375,0.93402099609375
1760203050436,1405701453,18179,26,-0.166015625,0.02239990234375,0.80194091796875
1760203050436,1405701453,18179,27,0.094482421875,-0.11065673828125,0.94305419921875
1760203050436,1405701453,18179,28,-0.192138671875,0.02435302734375,0.92938232421875
1760203050436,1405701453,18179,29,-0.177001953125,-0.02081298828125,1.01605224609375
1760203050436,1405701453,18179,30,-0.0908203125,0.02362060546875,0.85247802734375
1760203050436,1405701453,18179,31,-0.1064453125,0.00604248046875,0.92010498046875
1760203052957,1405704026,18180,0,-0.13232421875,-0.05133056640625,0.95574951171875
1760203052957,1405704026,18180,1,-0.114501953125,-0.02227783203125,0.95355224609375
1760203052957,1405704026,18180,2,-0.1044921875,-0.00323486328125,0.85760498046875
1760203052957,1405704026,18180,3,-0.135986328125,-0.04449462890625,0.88031005859375
1760203052957,1405704026,18180,4,0.03173828125,-0.00274658203125,0.91571044921875
1760203052957,1405704026,18180,5,-0.131591796875,-0.00860595703125,1.00213623046875
1760203052957,1405704026,18180,6,-0.111572265625,0.02484130859375,0.93328857421875
1760203052957,1405704026,18180,7,-0.20703125,-0.01983642578125,0.92669677734375
1760203052957,1405704026,18180,8,-0.23486328125,-0.01568603515625,0.91986083984375
1760203052957,1405704026,18180,9,-0.075927734375,-0.01007080078125,0.78436279296875
1760203052957,1405704026,18180,10,0.0078125,-0.02496337890625,1.00994873046875
1760203052957,1405704026,18180,11,-0.20849609375,0.00433349609375,0.92572021484375
1760203052957,1405704026,18180,12,-0.12646484375,-0.04815673828125,1.00433349609375
1760203052957,1405704026,18180,13,-0.18896484375,0.00872802734375,0.82781982421875
1760203052957,1405704026,18180,14,-0.124755859375,0.00823974609375,0.93597412109375
1760203052957,1405704026,18180,15,-0.17041015625,-0.02154541015625,1.02166748046875
1760203052957,1405704026,18180,16,-0.1318359375,-0.05987548828125,0.87347412109375
1760203052957,1405704026,18180,17,-0.129638671875,0.01751708984375,0.82000732421875
1760203052957,1405704026,18180,18,0.01220703125,-0.00689697265625,0.94476318359375
1760203052957,1405704026,18180,19,-0.189453125,-0.00543212890625,0.94622802734375
1760203052957,1405704026,18180,20,-0.14599609375,-0.01568603515625,0.96624755859375
1760203052957,1405704026,18180,21,-0.2197265625,-0.02349853515625,0.89886474609375
1760203052957,1405704026,18180,22,-0.175048828125,-0.02349853515625,0.88519287109375
1760203052957,1405704026,18180,23,0.01025390625,0.03485107421875,0.86834716796875
1760203052957,1405704026,18180,24,-0.171875,0.00384521484375,1.01214599609375
1760203052957,1405704026,18180,25,-0.108642578125,-0.04034423828125,0.90887451171875
1760203052957,1405704026,18180,26,-0.162109375,0.00555419921875,0.93792724609375
1760203052957,1405704026,18180,27,-0.118896484375,-0.02496337890625,0.93426513671875
1760203052957,1405704026,18180,28,-0.109130859375,-0.05499267578125,0.94378662109375
1760203052957,1405704026,18180,29,-0.085693359375,-0.00592041015625,0.89447021484375
1760203052957,1405704026,18180,30,-0.13330078125,0.00360107421875,0.96722412109375
1760203052957,1405704026,18180,31,-0.12255859375,-0.00860595703125,0.85736083984375
1760203055657,1405706600,18181,0,-0.117919921875,-0.00933837890625,0.89935302734375
1760203055657,1405706600,18181,1,0.00927734375,0.01361083984375,0.91278076171875
1760203055657,1405706600,18181,2,-0.06689453125,-0.01812744140625,0.93353271484375
1760203055657,1405706600,18181,3,-0.245361328125,0.03167724609375,1.02459716796875
1760203055657,1405706600,18181,4,-0.15087890625,-0.02716064453125,0.91619873046875
1760203055657,1405706600,18181,5,-0.208984375,0.00604248046875,0.88958740234375
1760203055657,1405706600,18181,6,0.025634765625,0.00750732421875,0.84222412109375
1760203055657,1405706600,18181,7,0.057373046875,-0.03497314453125,0.90789794921875
1760203055657,1405706600,18181,8,-0.19287109375,0.03143310546875,1.01947021484375
1760203055657,1405706600,18181,9,-0.172119140625,-0.01251220703125,0.90521240234375
1760203055657,1405706600,18181,10,-0.225341796875,-0.01593017578125,0.93426513671875
1760203055657,1405706600,18181,11,-0.166015625,0.03851318359375,0.88763427734375
1760203055657,1405706600,18181,12,0.009033203125,0.02581787109375,0.89324951171875
1760203055657,1405706600,18181,13,-0.10400390625,-0.04669189453125,0.93280029296875
1760203055657,1405706600,18181,14,-0.187744140625,0.03948974609375,0.99212646484375
1760203055657,1405706600,18181,15,-0.18701171875,0.00164794921875,0.91864013671875
1760203055657,1405706600,18181,16,-0.200439453125,0.03826904296875,0.89520263671875
1760203055657,1405706600,18181,17,-0.02880859375,-0.00885009765625,0.85491943359375
1760203055657,1405706600,18181,18,-0.037109375,-0.05963134765625,0.98406982421875
1760203055657,1405706600,18181,19,-0.15966796875,0.00506591796875,0.91326904296875
1760203055657,1405706600,18181,20,-0.10693359375,0.00653076171875,0.96820068359375
1760203055657,1405706600,18181,21,-0.14453125,-0.03253173828125,0.91546630859375
1760203055657,1405706600,18181,22,-0.18505859375,-0.05181884765625,0.90838623046875
1760203055657,1405706600,18181,23,-0.12939453125,0.01580810546875,0.89422607421875
1760203055657,1405706600,18181,24,0.032470703125,-0.03863525390625,0.86151123046875
1760203055657,1405706600,18181,25,-0.046630859375,-0.02471923828125,0.99554443359375
1760203055657,1405706600,18181,26,-0.2607421875,-0.01324462890625,0.99847412109375
1760203055657,1405706600,18181,27,-0.251220703125,0.00262451171875,0.88909912109375
1760203055657,1405706600,18181,28,-0.04931640625,-0.00665283203125,0.80853271484375
1760203055657,1405706600,18181,29,0.008544921875,-0.00128173828125,0.95843505859375
1760203055657,1405706600,18181,30,-0.212890625,-0.04180908203125,1.03167724609375
1760203055657,1405706600,18181,31,-0.19189453125,0.00555419921875,0.91766357421875
1760203058175,1405709173,18182,0,-0.048583984375,-0.01007080078125,0.74163818359375
1760203058175,1405709173,18182,1,-0.0341796875,-0.02374267578125,1.01312255859375
1760203058175,1405709173,18182,2,-0.237548828125,-0.00836181640625,0.92181396484375
1760203058175,1405709173,18182,3,-0.080078125,-0.03570556640625,0.98333740234375
1760203058175,1405709173,18182,4,-0.132080078125,0.00067138671875,0.86688232421875
1760203058175,1405709173,18182,5,-0.118408203125,0.00579833984375,0.94622802734375
1760203058175,1405709173,18182,6,-0.167724609375,-0.04083251953125,1.00482177734375
1760203058175,1405709173,18182,7,-0.13330078125,-0.06207275390625,0.82269287109375
1760203058175,1405709173,18182,8,-0.13720703125,0.03167724609375,0.89642333984375
1760203058175,1405709173,18182,9,0.032470703125,-0.02886962890625,0.89910888671875
1760203058175,1405709173,18182,10,-0.081298828125,-0.00054931640625,0.95379638671875
1760203058175,1405709173,18182,11,-0.20703125,-0.02496337890625,1.01702880859375
1760203058175,1405709173,18182,12,-0.19287109375,-0.02056884765625,0.85394287109375
1760203058175,1405709173,18182,13,-0.2138671875,-0.01251220703125,0.90228271484375
1760203058175,1405709173,18182,14,0.039306640625,-0.00103759765625,0.92816162109375
1760203058175,1405709173,18182,15,-0.088134765625,0.00653076171875,0.92645263671875
1760203058175,1405709173,18182,16,-0.212890625,-0.04376220703125,0.95355224609375
1760203058175,1405709173,18182,17,-0.19921875,0.02630615234375,0.92498779296875
1760203058175,1405709173,18182,18,-0.01123046875,-0.00762939453125,0.85906982421875
1760203058175,1405709173,18182,19,-0.16748046875,-0.02398681640625,0.94158935546875
1760203058175,1405709173,18182,20,-0.1513671875,-0.03570556640625,0.99359130859375
1760203058175,1405709173,18182,21,-0.13818359375,0.00531005859375,0.83197021484375
1760203058175,1405709173,18182,22,-0.048828125,0.01654052734375,0.93963623046875
1760203058175,1405709173,18182,23,-0.25927734375,-0.01983642578125,0.95111083984375
1760203058175,1405709173,18182,24,-0.13232421875,-0.03863525390625,0.95745849609375
1760203058175,1405709173,18182,25,-0.124755859375,-0.01202392578125,0.91741943359375
1760203058175,1405709173,18182,26,-0.106201171875,0.00677490234375,0.88714599609375
1760203058175,1405709173,18182,27,-0.092529296875,0.01629638671875,0.96820068359375
1760203058175,1405709173,18182,28,-0.1552734375,-0.07574462890625,0.91986083984375
1760203058175,1405709173,18182,29,-0.103759765625,0.00628662109375,0.91595458984375
1760203058175,1405709173,18182,30,-0.12939453125,-0.01837158203125,0.93402099609375
1760203058175,1405709173,18182,31,-0.089599609375,-0.00885009765625,0.85150146484375
1760203060695,1405711746,18183,0,-0.090087890625,0.01165771484375,0.90081787109375
1760203060695,1405711746,18183,1,-0.072509765625,-0.00714111328125,0.90472412109375
1760203060695,1405711746,18183,2,-0.183349609375,0.00482177734375,0.97650146484375
1760203060695,1405711746,18183,3,-0.19091796875,-0.03814697265625,0.96063232421875
1760203060695,1405711746,18183,4,-0.196533203125,-0.00762939453125,0.92327880859375
1760203060695,1405711746,18183,5,-0.149169921875,-0.01446533203125,0.90008544921875
1760203060695,1405711746,18183,6,-0.081298828125,-0.01715087890625,0.90814208984375
1760203060695,1405711746,18183,7,-0.140625,0.02752685546875,0.89910888671875
1760203060695,1405711746,18183,8,-0.05517578125,0.03021240234375,0.90960693359375
1760203060695,1405711746,18183,9,-0.159912109375,-0.01348876953125,0.92572021484375
1760203060695,1405711746,18183,10,-0.189453125,-0.03985595703125,0.98602294921875
1760203060695,1405711746,18183,11,-0.1708984375,-0.01055908203125,0.89984130859375
1760203060695,1405711746,18183,12,-0.18896484375,-0.00885009765625,0.91229248046875
1760203060695,1405711746,18183,13,-0.122802734375,0.00726318359375,0.92889404296875
1760203060695,1405711746,18183,14,-0.154296875,-0.00128173828125,0.91912841796875
1760203060695,1405711746,18183,15,-0.10693359375,0.03509521484375,0.84954833984375
1760203060695,1405711746,18183,16,-0.046630859375,-0.05255126953125,0.97821044921875
1760203060695,1405711746,18183,17,-0.22412109375,-0.03009033203125,0.91546630859375
1760203060695,1405711746,18183,18,-0.142578125,-0.02154541015625,0.96112060546875
1760203060695,1405711746,18183,19,-0.166015625,0.00628662109375,0.90496826171875
1760203060695,1405711746,18183,20,-0.1435546875,-0.02862548828125,0.92718505859375
1760203060695,1405711746,18183,21,-0.09765625,0.00579833984375,0.90301513671875
1760203060695,1405711746,18183,22,-0.204833984375,-0.03570556640625,1.02630615234375
1760203060695,1405711746,18183,23,-0.122802734375,-0.02081298828125,0.77410888671875
1760203060695,1405711746,18183,24,-0.100830078125,0.03582763671875,0.91766357421875
1760203060695,1405711746,18183,25,-0.014892578125,-0.00567626953125,0.89080810546875
1760203060695,1405711746,18183,26,-0.205810546875,-0.02960205078125,1.04388427734375
1760203060695,1405711746,18183,27,-0.20654296875,-0.00299072265625,0.91204833984375
1760203060695,1405711746,18183,28,-0.188232421875,-0.00665283203125,0.84710693359375
1760203060695,1405711746,18183,29,-0.190185546875,0.05194091796875,0.93182373046875
1760203060695,1405711746,18183,30,-0.025634765625,0.00701904296875,0.90863037109375
1760203060695,1405711746,18183,31,-0.191162109375,-0.05767822265625,0.98016357421875
1760203063397,1405714319,18184,0,-0.197509765625,0.01800537109375,0.94232177734375
1760203063397,1405714319,18184,1,-0.205810546875,-0.04327392578125,0.83441162109375
1760203063397,1405714319,18184,2,-0.163818359375,0.03607177734375,0.93353271484375
1760203063397,1405714319,18184,3,-0.033935546875,-0.01544189453125,0.89617919921875
1760203063397,1405714319,18184,4,-0.150390625,-0.04718017578125,0.98065185546875
1760203063397,1405714319,18184,5,-0.126220703125,-0.04302978515625,0.92401123046875
1760203063397,1405714319,18184,6,-0.189697265625,-0.00762939453125,0.94573974609375
1760203063397,1405714319,18184,7,-0.17431640625,0.00189208984375,0.88592529296875
1760203063397,1405714319,18184,8,-0.12060546875,0.01116943359375,0.96917724609375
1760203063397,1405714319,18184,9,-0.200927734375,-0.10186767578125,0.84173583984375
1760203063397,1405714319,18184,10,-0.07861328125,0.03973388671875,0.94012451171875
1760203063397,1405714319,18184,11,-0.023193359375,-0.04254150390625,0.90203857421875
1760203063397,1405714319,18184,12,-0.140869140625,0.01458740234375,0.98431396484375
1760203063397,1405714319,18184,13,-0.2158203125,-0.03350830078125,0.95233154296875
1760203063397,1405714319,18184,14,-0.234375,0.01678466796875,0.88055419921875
1760203063397,1405714319,18184,15,-0.111328125,0.01239013671875,0.84930419921875
1760203063397,1405714319,18184,16,-0.07666015625,-0.03448486328125,1.00384521484375
1760203063397,1405714319,18184,17,-0.18212890625,-0.05377197265625,0.95330810546875
1760203063397,1405714319,18184,18,-0.216552734375,-0.00665283203125,0.92547607421875
1760203063397,1405714319,18184,19,-0.150634765625,-0.01031494140625,0.78997802734375
1760203063397,1405714319,18184,20,-0.061767578125,-0.02862548828125,0.96258544921875
1760203063397,1405714319,18184,21,-0.19677734375,-0.04840087890625,0.94842529296875
1760203063397,1405714319,18184,22,-0.111083984375,-0.03302001953125,0.94915771484375
1760203063397,1405714319,18184,23,-0.165771484375,-0.00616455078125,0.91766357421875
1760203063397,1405714319,18184,24,-0.1533203125,-0.02496337890625,0.92718505859375
1760203063397,1405714319,18184,25,-0.135498046875,0.00262451171875,0.91180419921875
1760203063397,1405714319,18184,26,-0.25634765625,-0.07647705078125,0.94061279296875
1760203063397,1405714319,18184,27,-0.0986328125,0.04290771484375,0.85736083984375
1760203063397,1405714319,18184,28,-0.0458984375,-0.04351806640625,0.88885498046875
1760203063397,1405714319,18184,29,-0.08837890625,0.00531005859375,0.95721435546875
1760203063397,1405714319,18184,30,-0.221435546875,-0.00909423828125,0.90985107421875
1760203063397,1405714319,18184,31,-0.192138671875,-0.04888916015625,0.97039794921875
1760203065916,1405716892,18185,0,-0.2646484375,-0.03057861328125,0.89910888671875
1760203065916,1405716892,18185,1,-0.15478515625,0.00262451171875,0.87078857421875
1760203065916,1405716892,18185,2,-0.099365234375,0.00677490234375,0.90838623046875
1760203065916,1405716892,18185,3,-0.002197265625,-0.09063720703125,0.95526123046875
1760203065916,1405716892,18185,4,-0.198486328125,0.03607177734375,0.92669677734375
1760203065916,1405716892,18185,5,-0.136474609375,-0.02496337890625,0.94915771484375
1760203065916,1405716892,18185,6,-0.225341796875,-0.00152587890625,0.96527099609375
1760203065916,1405716892,18185,7,-0.1923828125,-0.03277587890625,0.85418701171875
1760203065916,1405716892,18185,8,-0.093017578125,-0.00103759765625,0.89276123046875
1760203065916,1405716892,18185,9,0.028564453125,-0.04034423828125,0.87640380859375
1760203065916,1405716892,18185,10,-0.18359375,-0.02203369140625,1.01507568359375
1760203065916,1405716892,18185,11,-0.1982421875,-0.01666259765625,0.88543701171875
1760203065916,1405716892,18185,12,-0.138427734375,-0.04205322265625,0.95404052734375
1760203065916,1405716892,18185,13,-0.194091796875,-0.01617431640625,0.93524169921875
1760203065916,1405716892,18185,14,-0.193359375,0.00555419921875,0.95794677734375
1760203065916,1405716892,18185,15,-0.165283203125,-0.08331298828125,0.80560302734375
1760203065916,1405716892,18185,16,-0.144287109375,0.04730224609375,0.93914794921875
1760203065916,1405716892,18185,17,-0.022216796875,-0.04644775390625,0.90203857421875
1760203065916,1405716892,18185,18,-0.1845703125,0.02532958984375,0.96893310546875
1760203065916,1405716892,18185,19,-0.23779296875,-0.01324462890625,0.93524169921875
1760203065916,1405716892,18185,20,-0.19384765625,-0.00396728515625,0.90423583984375
1760203065916,1405716892,18185,21,-0.239013671875,-0.02520751953125,0.90985107421875
1760203065916,1405716892,18185,22,-0.24072265625,-0.03643798828125,0.90594482421875
1760203065916,1405716892,18185,23,-0.1533203125,0.02484130859375,0.90496826171875
1760203065916,1405716892,18185,24,-0.1025390625,0.00433349609375,0.87371826171875
1760203065916,1405716892,18185,25,-0.052490234375,-0.01617431640625,0.95062255859375
1760203065916,1405716892,18185,26,-0.239013671875,-0.02789306640625,0.96820068359375
1760203065916,1405716892,18185,27,-0.18994140625,-0.02252197265625,0.93914794921875
1760203065916,1405716892,18185,28,-0.2099609375,-0.02911376953125,0.88641357421875
1760203065916,1405716892,18185,29,-0.13720703125,-0.01275634765625,0.92474365234375
1760203065916,1405716892,18185,30,-0.12890625,-0.00982666015625,0.92132568359375
1760203065916,1405716892,18185,31,-0.18212890625,0.06878662109375,0.86492919921875
1760203068437,1405719465,18186,0,-0.082763671875,0.03607177734375,0.92840576171875
1760203068437,1405719465,18186,1,-0.172119140625,-0.03643798828125,0.94061279296875
1760203068437,1405719465,18186,2,-0.138671875,-0.07550048828125,0.94427490234375
1760203068437,1405719465,18186,3,-0.170654296875,-0.00177001953125,0.92230224609375
1760203068437,1405719465,18186,4,-0.13623046875,0.01605224609375,0.88641357421875
1760203068437,1405719465,18186,5,-0.238037109375,-0.01080322265625,1.11688232421875
1760203068437,1405719465,18186,6,-0.059326171875,-0.03741455078125,0.68402099609375
1760203068437,1405719465,18186,7,-0.177490234375,0.01873779296875,0.93890380859375
1760203068437,1405719465,18186,8,-0.03759765625,-0.05914306640625,0.96990966796875
1760203068437,1405719465,18186,9,-0.256591796875,0.02508544921875,0.91229248046875
1760203068437,1405719465,18186,10,-0.228515625,-0.03961181640625,0.88568115234375
1760203068437,1405719465,18186,11,-0.213623046875,-0.01324462890625,0.90740966796875
1760203068437,1405719465,18186,12,-0.046142578125,-0.00982666015625,0.90472412109375
1760203068437,1405719465,18186,13,-0.20947265625,-0.03399658203125,0.92010498046875
1760203068437,1405719465,18186,14,-0.194091796875,-0.07427978515625,1.01361083984375
1760203068437,1405719465,18186,15,-0.203369140625,-0.00469970703125,0.89642333984375
1760203068437,1405719465,18186,16,-0.139892578125,-0.01153564453125,0.91497802734375
1760203068437,1405719465,18186,17,-0.054931640625,-0.01910400390625,0.92620849609375
1760203068437,1405719465,18186,18,-0.087158203125,-0.03033447265625,0.92254638671875
1760203068437,1405719465,18186,19,-0.086669921875,-0.00933837890625,0.87713623046875
1760203068437,1405719465,18186,20,-0.206298828125,-0.01348876953125,1.02703857421875
1760203068437,1405719465,18186,21,-0.156494140625,-0.08428955078125,0.86566162109375
1760203068437,1405719465,18186,22,-0.095458984375,0.00408935546875,0.86688232421875
1760203068437,1405719465,18186,23,-0.195068359375,-0.03448486328125,0.92425537109375
1760203068437,1405719465,18186,24,-0.12255859375,0.00921630859375,0.88836669921875
1760203068437,1405719465,18186,25,-0.15478515625,-0.02154541015625,0.99383544921875
1760203068437,1405719465,18186,26,-0.218994140625,-0.00054931640625,0.90765380859375
1760203068437,1405719465,18186,27,-0.224365234375,-0.01617431640625,0.90692138671875
1760203068437,1405719465,18186,28,-0.1708984375,-0.01666259765625,0.95672607421875
1760203068437,1405719465,18186,29,-0.15625,0.01043701171875,0.87518310546875
1760203068437,1405719465,18186,30,-0.02490234375,0.04534912109375,0.87933349609375
1760203068437,1405719465,18186,31,0.01611328125,-0.07843017578125,0.92376708984375
1760203071122,1405722038,18187,0,-0.272705078125,0.00018310546875,0.94989013671875
1760203071122,1405722038,18187,1,-0.190185546875,-0.02227783203125,0.96038818359375
1760203071122,1405722038,18187,2,-0.2744140625,-0.01300048828125,0.86785888671875
1760203071122,1405722038,18187,3,-0.193603515625,-0.00518798828125,0.95037841796875
1760203071122,1405722038,18187,4,-0.127197265625,0.02703857421875,0.92303466796875
1760203071122,1405722038,18187,5,-0.0751953125,0.06707763671875,0.87542724609375
1760203071122,1405722038,18187,6,-0.0224609375,-0.03863525390625,0.94696044921875
1760203071122,1405722038,18187,7,-0.198486328125,-0.06378173828125,0.95086669921875
1760203071122,1405722038,18187,8,-0.16748046875,-0.01422119140625,0.91229248046875
1760203071122,1405722038,18187,9,-0.168701171875,-0.00128173828125,0.93646240234375
1760203071122,1405722038,18187,10,-0.146728515625,-0.02569580078125,0.91839599609375
1760203071122,1405722038,18187,11,-0.107666015625,0.02728271484375,0.92840576171875
1760203071122,1405722038,18187,12,-0.20166015625,-0.08038330078125,0.87957763671875
1760203071122,1405722038,18187,13,-0.154296875,0.05804443359375,0.89788818359375
1760203071122,1405722038,18187,14,-0.04345703125,-0.02349853515625,0.90643310546875
1760203071122,1405722038,18187,15,-0.0703125,-0.01300048828125,0.95404052734375
1760203071122,1405722038,18187,16,-0.24169921875,-0.02691650390625,0.92401123046875
1760203071122,1405722038,18187,17,-0.17529296875,-0.06768798828125,0.97186279296875
1760203071122,1405722038,18187,18,-0.226318359375,-0.01983642578125,0.89324951171875
1760203071122,1405722038,18187,19,-0.131103515625,0.02703857421875,0.87152099609375
1760203071122,1405722038,18187,20,-0.033203125,-0.00445556640625,0.92254638671875
1760203071122,1405722038,18187,21,-0.154052734375,-0.04498291015625,0.92840576171875
1760203071122,1405722038,18187,22,-0.180419921875,-0.04400634765625,0.98651123046875
