receivedPhoneTimestamp,respeckTimestamp,packetSeqNum,sampleSeqNum,accelX,accelY,accelZ
1759937993129,5798405,1365,0,-0.2587890625,-0.38897705078125,0.86956787109375
1759937993129,5798405,1365,1,-0.263427734375,-0.38946533203125,0.88348388671875
1759937993129,5798405,1365,2,-0.268310546875,-0.35748291015625,0.87274169921875
1759937993129,5798405,1365,3,-0.29638671875,-0.33404541015625,0.87127685546875
1759937993129,5798405,1365,4,-0.2998046875,-0.31231689453125,0.85906982421875
1759937993129,5798405,1365,5,-0.307861328125,-0.27642822265625,0.83319091796875
1759937993129,5798405,1365,6,-0.309814453125,-0.25543212890625,0.70721435546875
1759937993129,5798405,1365,7,-0.48046875,-0.43609619140625,0.99383544921875
1759937993129,5798405,1365,8,-0.52587890625,-0.15631103515625,0.88372802734375
1759937993129,5798405,1365,9,-0.339599609375,-0.29791259765625,0.87396240234375
1759937993129,5798405,1365,10,-0.3740234375,-0.30841064453125,0.73260498046875
1759937993129,5798405,1365,11,-0.349609375,-0.27935791015625,0.89886474609375
1759937993129,5798405,1365,12,-0.669189453125,-0.24810791015625,0.91668701171875
1759937993129,5798405,1365,13,-0.250244140625,-0.19683837890625,0.80364990234375
1759937993129,5798405,1365,14,-0.3720703125,-0.38165283203125,0.76043701171875
1759937993129,5798405,1365,15,-0.340576171875,-0.23394775390625,0.86663818359375
1759937993129,5798405,1365,16,-0.6259765625,-0.27178955078125,0.96282958984375
1759937993129,5798405,1365,17,-0.37451171875,-0.16778564453125,0.82757568359375
1759937993129,5798405,1365,18,-0.353515625,-0.33502197265625,0.75921630859375
1759937993129,5798405,1365,19,-0.373291015625,-0.20880126953125,0.81439208984375
1759937993129,5798405,1365,20,-0.587646484375,-0.31085205078125,0.99676513671875
1759937993129,5798405,1365,21,-0.366943359375,-0.16729736328125,0.88031005859375
1759937993129,5798405,1365,22,-0.31689453125,-0.28472900390625,0.76263427734375
1759937993129,5798405,1365,23,-0.4072265625,-0.30865478515625,0.82855224609375
1759937993129,5798405,1365,24,-0.34033203125,-0.18707275390625,0.84002685546875
1759937993129,5798405,1365,25,-0.52587890625,-0.42388916015625,0.98114013671875
1759937993129,5798405,1365,26,-0.372802734375,-0.16461181640625,0.87786865234375
1759937993129,5798405,1365,27,-0.36279296875,-0.33282470703125,0.80877685546875
1759937993129,5798405,1365,28,-0.35693359375,-0.31915283203125,0.87347412109375
1759937993129,5798405,1365,29,-0.377197265625,-0.25030517578125,0.87933349609375
1759937993129,5798405,1365,30,-0.34716796875,-0.27349853515625,0.84368896484375
1759937993129,5798405,1365,31,-0.3046875,-0.21588134765625,0.78314208984375
1759937995731,5800942,1366,0,-0.375732421875,-0.32745361328125,0.82147216796875
1759937995731,5800942,1366,1,-0.65185546875,-0.43121337890625,0.95550537109375
1759937995731,5800942,1366,2,-0.330810546875,-0.13873291015625,0.82757568359375
1759937995731,5800942,1366,3,-0.392822265625,-0.34307861328125,0.77874755859375
1759937995731,5800942,1366,4,-0.303466796875,-0.23956298828125,0.79071044921875
1759937995731,5800942,1366,5,-0.690185546875,-0.33111572265625,0.97967529296875
1759937995731,5800942,1366,6,-0.344970703125,-0.16387939453125,0.82757568359375
1759937995731,5800942,1366,7,-0.335205078125,-0.32037353515625,0.75042724609375
1759937995731,5800942,1366,8,-0.43212890625,-0.29278564453125,0.82733154296875
1759937995731,5800942,1366,9,-0.5126953125,-0.30548095703125,0.96868896484375
1759937995731,5800942,1366,10,-0.340576171875,-0.17950439453125,0.82830810546875
1759937995731,5800942,1366,11,-0.37109375,-0.31964111328125,0.78118896484375
1759937995731,5800942,1366,12,-0.3427734375,-0.23394775390625,0.80926513671875
1759937995731,5800942,1366,13,-0.55322265625,-0.25909423828125,0.99920654296875
1759937995731,5800942,1366,14,-0.4619140625,-0.22467041015625,0.89202880859375
1759937995731,5800942,1366,15,-0.336181640625,-0.25421142578125,0.74896240234375
1759937995731,5800942,1366,16,-0.402587890625,-0.26251220703125,0.84173583984375
1759937995731,5800942,1366,17,-0.412109375,-0.24737548828125,0.84881591796875
1759937995731,5800942,1366,18,-0.446533203125,-0.34600830078125,0.94354248046875
1759937995731,5800942,1366,19,-0.479248046875,-0.23712158203125,0.89202880859375
1759937995731,5800942,1366,20,-0.2958984375,-0.31451416015625,0.77362060546875
1759937995731,5800942,1366,21,-0.323486328125,-0.22540283203125,0.79437255859375
1759937995731,5800942,1366,22,-0.482421875,-0.31719970703125,0.87420654296875
1759937995731,5800942,1366,23,-0.433837890625,-0.35089111328125,0.93597412109375
1759937995731,5800942,1366,24,-0.38623046875,-0.22491455078125,0.85076904296875
1759937995731,5800942,1366,25,-0.3505859375,-0.27520751953125,0.81854248046875
1759937995731,5800942,1366,26,-0.333984375,-0.25128173828125,0.81634521484375
1759937995731,5800942,1366,27,-0.443115234375,-0.31378173828125,0.88323974609375
1759937995731,5800942,1366,28,-0.427001953125,-0.29522705078125,0.91839599609375
1759937995731,5800942,1366,29,-0.380615234375,-0.29180908203125,0.86444091796875
1759937995731,5800942,1366,30,-0.331298828125,-0.26495361328125,0.85345458984375
1759937995731,5800942,1366,31,-0.35693359375,-0.28790283203125,0.83294677734375
1759937998127,5803480,1367,0,-0.341552734375,-0.25616455078125,0.81097412109375
1759937998127,5803480,1367,1,-0.40087890625,-0.38262939453125,0.86834716796875
1759937998127,5803480,1367,2,-0.4677734375,-0.30377197265625,0.89324951171875
1759937998127,5803480,1367,3,-0.36767578125,-0.25860595703125,0.85833740234375
1759937998127,5803480,1367,4,-0.361572265625,-0.29156494140625,0.82489013671875
1759937998127,5803480,1367,5,-0.353271484375,-0.25347900390625,0.83831787109375
1759937998127,5803480,1367,6,-0.481689453125,-0.27520751953125,0.91351318359375
1759937998127,5803480,1367,7,-0.392333984375,-0.25152587890625,0.88153076171875
1759937998127,5803480,1367,8,-0.403076171875,-0.29888916015625,0.85736083984375
1759937998127,5803480,1367,9,-0.319091796875,-0.24053955078125,0.79510498046875
1759937998127,5803480,1367,10,-0.390869140625,-0.25396728515625,0.84906005859375
1759937998127,5803480,1367,11,-0.460693359375,-0.33966064453125,0.94598388671875
1759937998127,5803480,1367,12,-0.39404296875,-0.23175048828125,0.89715576171875
1759937998127,5803480,1367,13,-0.37939453125,-0.31256103515625,0.81536865234375
1759937998127,5803480,1367,14,-0.3330078125,-0.24371337890625,0.81854248046875
1759937998127,5803480,1367,15,-0.365478515625,-0.26983642578125,0.83978271484375
1759937998127,5803480,1367,16,-0.4423828125,-0.33502197265625,0.89984130859375
1759937998127,5803480,1367,17,-0.414306640625,-0.30621337890625,0.92449951171875
1759937998127,5803480,1367,18,-0.354248046875,-0.27325439453125,0.81976318359375
1759937998127,5803480,1367,19,-0.35009765625,-0.25421142578125,0.84686279296875
1759937998127,5803480,1367,20,-0.32958984375,-0.24151611328125,0.78363037109375
1759937998127,5803480,1367,21,-0.439208984375,-0.28253173828125,0.84246826171875
1759937998127,5803480,1367,22,-0.42724609375,-0.41680908203125,0.95477294921875
1759937998127,5803480,1367,23,-0.4013671875,-0.28375244140625,0.88763427734375
1759937998127,5803480,1367,24,-0.341796875,-0.31231689453125,0.82513427734375
1759937998127,5803480,1367,25,-0.354736328125,-0.19219970703125,0.80511474609375
1759937998127,5803480,1367,26,-0.38427734375,-0.23248291015625,0.81927490234375
1759937998127,5803480,1367,27,-0.509521484375,-0.31451416015625,0.84173583984375
1759937998127,5803480,1367,28,-0.470703125,-0.30499267578125,0.91351318359375
1759937998127,5803480,1367,29,-0.40283203125,-0.22418212890625,0.83734130859375
1759937998127,5803480,1367,30,-0.370849609375,-0.24200439453125,0.83636474609375
1759937998127,5803480,1367,31,-0.429931640625,-0.25054931640625,0.80950927734375
1759938000729,5806017,1368,0,-0.449462890625,-0.25152587890625,0.90814208984375
1759938000729,5806017,1368,1,-0.466796875,-0.24932861328125,0.86907958984375
1759938000729,5806017,1368,2,-0.39599609375,-0.28009033203125,0.84124755859375
1759938000729,5806017,1368,3,-0.373046875,-0.21588134765625,0.83270263671875
1759938000729,5806017,1368,4,-0.456787109375,-0.23931884765625,0.86199951171875
1759938000729,5806017,1368,5,-0.428466796875,-0.24005126953125,0.92620849609375
1759938000729,5806017,1368,6,-0.421142578125,-0.21661376953125,0.83074951171875
1759938000729,5806017,1368,7,-0.37548828125,-0.25323486328125,0.87469482421875
1759938000729,5806017,1368,8,-0.38037109375,-0.24810791015625,0.83660888671875
1759938000729,5806017,1368,9,-0.34033203125,-0.23956298828125,0.87371826171875
1759938000729,5806017,1368,10,-0.4599609375,-0.23223876953125,0.92840576171875
1759938000729,5806017,1368,11,-0.4267578125,-0.22930908203125,0.87567138671875
1759938000729,5806017,1368,12,-0.355712890625,-0.27496337890625,0.82928466796875
1759938000729,5806017,1368,13,-0.3701171875,-0.16680908203125,0.84222412109375
1759938000729,5806017,1368,14,-0.5009765625,-0.25860595703125,0.89886474609375
1759938000729,5806017,1368,15,-0.33935546875,-0.22686767578125,0.85003662109375
1759938000729,5806017,1368,16,-0.480712890625,-0.23614501953125,0.92840576171875
1759938000729,5806017,1368,17,-0.378173828125,-0.24005126953125,0.84954833984375
1759938000729,5806017,1368,18,-0.322998046875,-0.22979736328125,0.82757568359375
1759938000729,5806017,1368,19,-0.432861328125,-0.22906494140625,0.87860107421875
1759938000729,5806017,1368,20,-0.376708984375,-0.28814697265625,0.86956787109375
1759938000729,5806017,1368,21,-0.39990234375,-0.26080322265625,0.92474365234375
1759938000729,5806017,1368,22,-0.33642578125,-0.28570556640625,0.90057373046875
1759938000729,5806017,1368,23,-0.344970703125,-0.26055908203125,0.83978271484375
1759938000729,5806017,1368,24,-0.30810546875,-0.30206298828125,0.84539794921875
1759938000729,5806017,1368,25,-0.344970703125,-0.28155517578125,0.88446044921875
1759938000729,5806017,1368,26,-0.343994140625,-0.25274658203125,0.79339599609375
1759938000729,5806017,1368,27,-0.378662109375,-0.41998291015625,0.86907958984375
1759938000729,5806017,1368,28,-0.48046875,-0.33306884765625,0.86346435546875
1759938000729,5806017,1368,29,-0.3740234375,-0.30621337890625,0.84735107421875
1759938000729,5806017,1368,30,-0.37451171875,-0.31182861328125,0.78289794921875
1759938000729,5806017,1368,31,-0.37158203125,-0.24053955078125,0.81488037109375
1759938003327,5808554,1369,0,-0.5439453125,-0.31915283203125,0.93084716796875
1759938003327,5808554,1369,1,-0.43310546875,-0.24908447265625,0.87005615234375
1759938003327,5808554,1369,2,-0.4091796875,-0.33990478515625,0.80999755859375
1759938003327,5808554,1369,3,-0.304931640625,-0.25640869140625,0.77215576171875
1759938003327,5808554,1369,4,-0.4521484375,-0.29913330078125,0.95819091796875
1759938003327,5808554,1369,5,-0.576904296875,-0.21954345703125,0.84759521484375
1759938003327,5808554,1369,6,-0.2578125,-0.25299072265625,0.79534912109375
1759938003327,5808554,1369,7,-0.4482421875,-0.33990478515625,0.84881591796875
1759938003327,5808554,1369,8,-0.35009765625,-0.16949462890625,0.75823974609375
1759938003327,5808554,1369,9,-0.54638671875,-0.34600830078125,0.97894287109375
1759938003327,5808554,1369,10,-0.387451171875,-0.18975830078125,0.89544677734375
1759938003327,5808554,1369,11,-0.34814453125,-0.33209228515625,0.84246826171875
1759938003327,5808554,1369,12,-0.327392578125,-0.31402587890625,0.86151123046875
1759938003327,5808554,1369,13,-0.32373046875,-0.24151611328125,0.82147216796875
1759938003327,5808554,1369,14,-0.310791015625,-0.29718017578125,0.80364990234375
1759938003327,5808554,1369,15,-0.346435546875,-0.38214111328125,0.93231201171875
1759938003327,5808554,1369,16,-0.612060546875,-0.26104736328125,0.83172607421875
1759938003327,5808554,1369,17,-0.325439453125,-0.19024658203125,0.85882568359375
1759938003327,5808554,1369,18,-0.429931640625,-0.39190673828125,0.85540771484375
1759938003327,5808554,1369,19,-0.35791015625,-0.18609619140625,0.77606201171875
1759938003327,5808554,1369,20,-0.4111328125,-0.28082275390625,0.84124755859375
1759938003327,5808554,1369,21,-0.539306640625,-0.37530517578125,0.93084716796875
1759938003327,5808554,1369,22,-0.30615234375,-0.13751220703125,0.84783935546875
1759938003327,5808554,1369,23,-0.4326171875,-0.37506103515625,0.81365966796875
1759938003327,5808554,1369,24,-0.296875,-0.22369384765625,0.77459716796875
1759938003327,5808554,1369,25,-0.459228515625,-0.31304931640625,0.96575927734375
1759938003327,5808554,1369,26,-0.4921875,-0.21807861328125,0.85198974609375
1759938003327,5808554,1369,27,-0.347412109375,-0.27227783203125,0.81781005859375
1759938003327,5808554,1369,28,-0.42138671875,-0.31280517578125,0.84295654296875
1759938003327,5808554,1369,29,-0.380859375,-0.21197509765625,0.84173583984375
1759938003327,5808554,1369,30,-0.475830078125,-0.31671142578125,0.93011474609375
1759938003327,5808554,1369,31,-0.333251953125,-0.19708251953125,0.81658935546875
1759938006129,5811091,1370,0,-0.433837890625,-0.30035400390625,0.87176513671875
1759938006129,5811091,1370,1,-0.36865234375,-0.22515869140625,0.88421630859375
1759938006129,5811091,1370,2,-0.408203125,-0.30816650390625,0.83929443359375
1759938006129,5811091,1370,3,-0.36328125,-0.25714111328125,0.91156005859375
1759938006129,5811091,1370,4,-0.389892578125,-0.24127197265625,0.87860107421875
1759938006129,5811091,1370,5,-0.376220703125,-0.22833251953125,0.83831787109375
1759938006129,5811091,1370,6,-0.379638671875,-0.20660400390625,0.82244873046875
1759938006129,5811091,1370,7,-0.398193359375,-0.30426025390625,0.84783935546875
1759938006129,5811091,1370,8,-0.424560546875,-0.31524658203125,0.95452880859375
1759938006129,5811091,1370,9,-0.349609375,-0.13604736328125,0.83074951171875
1759938006129,5811091,1370,10,-0.380126953125,-0.35845947265625,0.86541748046875
1759938006129,5811091,1370,11,-0.37890625,-0.24249267578125,0.82684326171875
1759938006129,5811091,1370,12,-0.3701171875,-0.27642822265625,0.90399169921875
1759938006129,5811091,1370,13,-0.467041015625,-0.29449462890625,0.90057373046875
1759938006129,5811091,1370,14,-0.321044921875,-0.22930908203125,0.86444091796875
1759938006129,5811091,1370,15,-0.399169921875,-0.28521728515625,0.83343505859375
1759938006129,5811091,1370,16,-0.35107421875,-0.22027587890625,0.77972412109375
1759938006129,5811091,1370,17,-0.42431640625,-0.39483642578125,0.96234130859375
1759938006129,5811091,1370,18,-0.371337890625,-0.24493408203125,0.89862060546875
1759938006129,5811091,1370,19,-0.395751953125,-0.22174072265625,0.84564208984375
1759938006129,5811091,1370,20,-0.33544921875,-0.30865478515625,0.78509521484375
1759938006129,5811091,1370,21,-0.314697265625,-0.21246337890625,0.78021240234375
1759938006129,5811091,1370,22,-0.53125,-0.35186767578125,0.99432373046875
1759938006129,5811091,1370,23,-0.5185546875,-0.22003173828125,0.95111083984375
1759938006129,5811091,1370,24,-0.2978515625,-0.23614501953125,0.80706787109375
1759938006129,5811091,1370,25,-0.3603515625,-0.32501220703125,0.84173583984375
1759938006129,5811091,1370,26,-0.380126953125,-0.21368408203125,0.79290771484375
1759938006129,5811091,1370,27,-0.38671875,-0.25836181640625,0.80560302734375
1759938006129,5811091,1370,28,-0.386962890625,-0.42803955078125,0.93841552734375
1759938006129,5811091,1370,29,-0.453857421875,-0.17413330078125,0.88421630859375
1759938006129,5811091,1370,30,-0.384033203125,-0.32598876953125,0.83172607421875
1759938006129,5811091,1370,31,-0.384033203125,-0.28887939453125,0.77069091796875
1759938008326,5813628,1371,0,-0.36865234375,-0.25469970703125,0.86541748046875
1759938008326,5813628,1371,1,-0.540283203125,-0.27593994140625,0.95672607421875
1759938008326,5813628,1371,2,-0.346435546875,-0.17999267578125,0.82928466796875
1759938008326,5813628,1371,3,-0.3935546875,-0.33966064453125,0.84564208984375
1759938008326,5813628,1371,4,-0.359619140625,-0.21661376953125,0.86834716796875
1759938008326,5813628,1371,5,-0.402587890625,-0.26910400390625,0.83758544921875
1759938008326,5813628,1371,6,-0.49560546875,-0.21856689453125,0.90814208984375
1759938008326,5813628,1371,7,-0.39306640625,-0.26422119140625,0.87445068359375
1759938008326,5813628,1371,8,-0.40283203125,-0.24053955078125,0.85345458984375
1759938008326,5813628,1371,9,-0.387451171875,-0.22467041015625,0.77606201171875
1759938008326,5813628,1371,10,-0.410888671875,-0.25592041015625,0.88104248046875
1759938008326,5813628,1371,11,-0.46484375,-0.26739501953125,0.92767333984375
1759938008326,5813628,1371,12,-0.38671875,-0.24859619140625,0.88690185546875
1759938008326,5813628,1371,13,-0.346435546875,-0.25616455078125,0.83685302734375
1759938008326,5813628,1371,14,-0.35205078125,-0.27227783203125,0.83441162109375
1759938008326,5813628,1371,15,-0.34521484375,-0.23956298828125,0.80072021484375
1759938008326,5813628,1371,16,-0.43505859375,-0.37701416015625,0.88250732421875
1759938008326,5813628,1371,17,-0.41796875,-0.26983642578125,0.91888427734375
1759938008326,5813628,1371,18,-0.35205078125,-0.23858642578125,0.85491943359375
1759938008326,5813628,1371,19,-0.39794921875,-0.28179931640625,0.84197998046875
1759938008326,5813628,1371,20,-0.32275390625,-0.27252197265625,0.82440185546875
1759938008326,5813628,1371,21,-0.45556640625,-0.27520751953125,0.88568115234375
1759938008326,5813628,1371,22,-0.42822265625,-0.29302978515625,0.90106201171875
1759938008326,5813628,1371,23,-0.411865234375,-0.22589111328125,0.85784912109375
1759938008326,5813628,1371,24,-0.322998046875,-0.29400634765625,0.84979248046875
1759938008326,5813628,1371,25,-0.37744140625,-0.28790283203125,0.81927490234375
1759938008326,5813628,1371,26,-0.38232421875,-0.28521728515625,0.86517333984375
1759938008326,5813628,1371,27,-0.4677734375,-0.29522705078125,0.92669677734375
1759938008326,5813628,1371,28,-0.348876953125,-0.24713134765625,0.83929443359375
1759938008326,5813628,1371,29,-0.36181640625,-0.31549072265625,0.84588623046875
1759938008326,5813628,1371,30,-0.2939453125,-0.22052001953125,0.82806396484375
1759938008326,5813628,1371,31,-0.4716796875,-0.27813720703125,0.93060302734375
1759938010927,5816165,1372,0,-0.43994140625,-0.24420166015625,0.89862060546875
1759938010927,5816165,1372,1,-0.3818359375,-0.29644775390625,0.86297607421875
1759938010927,5816165,1372,2,-0.348876953125,-0.26641845703125,0.85858154296875
1759938010927,5816165,1372,3,-0.37060546875,-0.22003173828125,0.80999755859375
1759938010927,5816165,1372,4,-0.377197265625,-0.26666259765625,0.79608154296875
1759938010927,5816165,1372,5,-0.4404296875,-0.41729736328125,0.98211669921875
1759938010927,5816165,1372,6,-0.39501953125,-0.28204345703125,0.85076904296875
1759938010927,5816165,1372,7,-0.337158203125,-0.27716064453125,0.81512451171875
1759938010927,5816165,1372,8,-0.414794921875,-0.26177978515625,0.80047607421875
1759938010927,5816165,1372,9,-0.34326171875,-0.34991455078125,0.89202880859375
1759938010927,5816165,1372,10,-0.500732421875,-0.34381103515625,0.91497802734375
1759938010927,5816165,1372,11,-0.323486328125,-0.24200439453125,0.81097412109375
1759938010927,5816165,1372,12,-0.464111328125,-0.26495361328125,0.79315185546875
1759938010927,5816165,1372,13,-0.27294921875,-0.24713134765625,0.88006591796875
1759938010927,5816165,1372,14,-0.465576171875,-0.28717041015625,0.91375732421875
1759938010927,5816165,1372,15,-0.396240234375,-0.28082275390625,0.88616943359375
1759938010927,5816165,1372,16,-0.40185546875,-0.23370361328125,0.85589599609375
1759938010927,5816165,1372,17,-0.39208984375,-0.21051025390625,0.83538818359375
1759938010927,5816165,1372,18,-0.333251953125,-0.18218994140625,0.82977294921875
1759938010927,5816165,1372,19,-0.46337890625,-0.28912353515625,0.92376708984375
1759938010927,5816165,1372,20,-0.3984375,-0.31304931640625,0.89788818359375
1759938010927,5816165,1372,21,-0.39111328125,-0.20587158203125,0.86224365234375
1759938010927,5816165,1372,22,-0.38720703125,-0.23858642578125,0.87786865234375
1759938010927,5816165,1372,23,-0.3837890625,-0.29864501953125,0.87225341796875
1759938010927,5816165,1372,24,-0.3701171875,-0.31597900390625,0.85296630859375
1759938010927,5816165,1372,25,-0.369140625,-0.21881103515625,0.82684326171875
1759938010927,5816165,1372,26,-0.297607421875,-0.28448486328125,0.79705810546875
1759938010927,5816165,1372,27,-0.54833984375,-0.37579345703125,0.92376708984375
1759938010927,5816165,1372,28,-0.420166015625,-0.22393798828125,0.87518310546875
1759938010927,5816165,1372,29,-0.376220703125,-0.31427001953125,0.77972412109375
1759938010927,5816165,1372,30,-0.351318359375,-0.20440673828125,0.74896240234375
1759938010927,5816165,1372,31,-0.489501953125,-0.33111572265625,1.00531005859375
1759938013526,5818702,1373,0,-0.483642578125,-0.23980712890625,0.87200927734375
1759938013526,5818702,1373,1,-0.349609375,-0.29180908203125,0.79339599609375
1759938013526,5818702,1373,2,-0.402587890625,-0.29205322265625,0.71282958984375
1759938013526,5818702,1373,3,-0.328125,-0.19610595703125,1.00262451171875
1759938013526,5818702,1373,4,-0.69384765625,-0.28277587890625,0.89300537109375
1759938013526,5818702,1373,5,-0.213623046875,-0.19439697265625,0.80291748046875
1759938013526,5818702,1373,6,-0.452880859375,-0.33648681640625,0.84222412109375
1759938013526,5818702,1373,7,-0.35693359375,-0.19073486328125,0.78021240234375
1759938013526,5818702,1373,8,-0.517822265625,-0.36505126953125,0.97723388671875
1759938013526,5818702,1373,9,-0.390625,-0.21124267578125,0.85321044921875
1759938013526,5818702,1373,10,-0.334228515625,-0.23248291015625,0.81683349609375
1759938013526,5818702,1373,11,-0.447509765625,-0.26885986328125,0.86712646484375
1759938013526,5818702,1373,12,-0.312744140625,-0.21734619140625,0.79486083984375
1759938013526,5818702,1373,13,-0.491943359375,-0.34552001953125,1.00091552734375
1759938013526,5818702,1373,14,-0.4580078125,-0.21710205078125,0.89764404296875
1759938013526,5818702,1373,15,-0.280029296875,-0.23101806640625,0.75750732421875
1759938013526,5818702,1373,16,-0.443603515625,-0.24786376953125,0.84271240234375
1759938013526,5818702,1373,17,-0.384521484375,-0.26470947265625,0.88494873046875
1759938013526,5818702,1373,18,-0.47607421875,-0.43609619140625,0.89471435546875
1759938013526,5818702,1373,19,-0.350341796875,-0.21612548828125,0.85614013671875
1759938013526,5818702,1373,20,-0.30810546875,-0.25616455078125,0.83709716796875
1759938013526,5818702,1373,21,-0.351318359375,-0.29180908203125,0.79412841796875
1759938013526,5818702,1373,22,-0.433837890625,-0.37457275390625,0.90081787109375
1759938013526,5818702,1373,23,-0.360107421875,-0.33355712890625,0.87420654296875
1759938013526,5818702,1373,24,-0.34326171875,-0.27081298828125,0.87322998046875
1759938013526,5818702,1373,25,-0.36767578125,-0.32574462890625,0.82904052734375
1759938013526,5818702,1373,26,-0.316162109375,-0.29498291015625,0.81829833984375
1759938013526,5818702,1373,27,-0.398193359375,-0.31549072265625,0.86444091796875
1759938013526,5818702,1373,28,-0.41162109375,-0.34552001953125,0.89910888671875
1759938013526,5818702,1373,29,-0.311279296875,-0.30792236328125,0.88226318359375
1759938013526,5818702,1373,30,-0.370849609375,-0.30938720703125,0.85028076171875
1759938013526,5818702,1373,31,-0.365234375,-0.26837158203125,0.83514404296875
1759938015928,5821239,1374,0,-0.322998046875,-0.28546142578125,0.82855224609375
1759938015928,5821239,1374,1,-0.40625,-0.38189697265625,0.93035888671875
1759938015928,5821239,1374,2,-0.375244140625,-0.29693603515625,0.87786865234375
1759938015928,5821239,1374,3,-0.3359375,-0.27716064453125,0.85296630859375
1759938015928,5821239,1374,4,-0.3955078125,-0.28179931640625,0.85101318359375
1759938015928,5821239,1374,5,-0.31396484375,-0.25714111328125,0.79461669921875
1759938015928,5821239,1374,6,-0.455810546875,-0.37188720703125,0.89715576171875
1759938015928,5821239,1374,7,-0.349609375,-0.35333251953125,0.89251708984375
1759938015928,5821239,1374,8,-0.35546875,-0.32452392578125,0.85614013671875
1759938015928,5821239,1374,9,-0.34765625,-0.25933837890625,0.80975341796875
1759938015928,5821239,1374,10,-0.37646484375,-0.29132080078125,0.83367919921875
1759938015928,5821239,1374,11,-0.4345703125,-0.35137939453125,0.87738037109375
1759938015928,5821239,1374,12,-0.447998046875,-0.33038330078125,0.90179443359375
1759938015928,5821239,1374,13,-0.27734375,-0.25982666015625,0.83636474609375
1759938015928,5821239,1374,14,-0.361572265625,-0.31719970703125,0.88250732421875
1759938015928,5821239,1374,15,-0.339111328125,-0.30938720703125,0.83441162109375
1759938015928,5821239,1374,16,-0.351806640625,-0.24346923828125,0.76947021484375
1759938015928,5821239,1374,17,-0.483154296875,-0.40826416015625,0.96673583984375
1759938015928,5821239,1374,18,-0.379638671875,-0.25445556640625,0.86639404296875
1759938015928,5821239,1374,19,-0.2880859375,-0.26763916015625,0.80780029296875
1759938015928,5821239,1374,20,-0.40478515625,-0.32501220703125,0.84613037109375
1759938015928,5821239,1374,21,-0.340087890625,-0.26275634765625,0.81781005859375
1759938015928,5821239,1374,22,-0.517333984375,-0.28643798828125,0.96502685546875
1759938015928,5821239,1374,23,-0.318115234375,-0.25665283203125,0.85858154296875
1759938015928,5821239,1374,24,-0.37841796875,-0.29913330078125,0.81878662109375
1759938015928,5821239,1374,25,-0.376953125,-0.23980712890625,0.83880615234375
1759938015928,5821239,1374,26,-0.343017578125,-0.31988525390625,0.90008544921875
1759938015928,5821239,1374,27,-0.436279296875,-0.29571533203125,0.89666748046875
1759938015928,5821239,1374,28,-0.33349609375,-0.27496337890625,0.86907958984375
1759938015928,5821239,1374,29,-0.359375,-0.26715087890625,0.85223388671875
1759938015928,5821239,1374,30,-0.35888671875,-0.24151611328125,0.81536865234375
1759938015928,5821239,1374,31,-0.374267578125,-0.36407470703125,0.90814208984375
1759938018528,5823776,1375,0,-0.45458984375,-0.29132080078125,0.90399169921875
1759938018528,5823776,1375,1,-0.29248046875,-0.26251220703125,0.85736083984375
1759938018528,5823776,1375,2,-0.36572265625,-0.30230712890625,0.85833740234375
1759938018528,5823776,1375,3,-0.3564453125,-0.27227783203125,0.81390380859375
1759938018528,5823776,1375,4,-0.34375,-0.31475830078125,0.83685302734375
1759938018528,5823776,1375,5,-0.4697265625,-0.37823486328125,0.92694091796875
1759938018528,5823776,1375,6,-0.342529296875,-0.25567626953125,0.88348388671875
1759938018528,5823776,1375,7,-0.344970703125,-0.29058837890625,0.83245849609375
1759938018528,5823776,1375,8,-0.380859375,-0.30108642578125,0.83953857421875
1759938018528,5823776,1375,9,-0.326416015625,-0.26397705078125,0.81854248046875
1759938018528,5823776,1375,10,-0.442138671875,-0.41851806640625,0.88739013671875
1759938018528,5823776,1375,11,-0.369873046875,-0.31353759765625,0.86663818359375
1759938018528,5823776,1375,12,-0.35888671875,-0.32232666015625,0.86663818359375
1759938018528,5823776,1375,13,-0.347412109375,-0.25689697265625,0.82635498046875
1759938018528,5823776,1375,14,-0.413330078125,-0.28546142578125,0.81219482421875
1759938018528,5823776,1375,15,-0.35009765625,-0.35040283203125,0.85174560546875
1759938018528,5823776,1375,16,-0.467529296875,-0.36651611328125,0.89373779296875
1759938018528,5823776,1375,17,-0.354248046875,-0.28497314453125,0.86346435546875
1759938018528,5823776,1375,18,-0.364990234375,-0.25836181640625,0.82049560546875
1759938018528,5823776,1375,19,-0.397216796875,-0.27496337890625,0.78948974609375
1759938018528,5823776,1375,20,-0.4755859375,-0.37969970703125,0.96600341796875
1759938018528,5823776,1375,21,-0.35986328125,-0.18878173828125,0.85369873046875
1759938018528,5823776,1375,22,-0.3662109375,-0.29962158203125,0.83734130859375
1759938018528,5823776,1375,23,-0.3896484375,-0.25958251953125,0.78338623046875
1759938018528,5823776,1375,24,-0.366943359375,-0.28253173828125,0.94036865234375
1759938018528,5823776,1375,25,-0.552001953125,-0.20220947265625,0.89617919921875
1759938018528,5823776,1375,26,-0.315185546875,-0.21392822265625,0.84027099609375
1759938018528,5823776,1375,27,-0.414794921875,-0.32843017578125,0.85150146484375
1759938018528,5823776,1375,28,-0.2802734375,-0.16534423828125,0.76190185546875
1759938018528,5823776,1375,29,-0.529541015625,-0.37091064453125,1.01165771484375
1759938018528,5823776,1375,30,-0.337646484375,-0.13067626953125,0.84539794921875
1759938018528,5823776,1375,31,-0.374267578125,-0.30108642578125,0.84173583984375
1759938021127,5826313,1376,0,-0.422607421875,-0.24859619140625,0.86297607421875
1759938021127,5826313,1376,1,-0.33984375,-0.25518798828125,0.92132568359375
1759938021127,5826313,1376,2,-0.41943359375,-0.23101806640625,0.84686279296875
1759938021127,5826313,1376,3,-0.302734375,-0.29254150390625,0.87860107421875
1759938021127,5826313,1376,4,-0.400390625,-0.25494384765625,0.82000732421875
1759938021127,5826313,1376,5,-0.333251953125,-0.31695556640625,0.94329833984375
1759938021127,5826313,1376,6,-0.440185546875,-0.21710205078125,0.88348388671875
1759938021127,5826313,1376,7,-0.327392578125,-0.20758056640625,0.84295654296875
1759938021127,5826313,1376,8,-0.410888671875,-0.31353759765625,0.87762451171875
1759938021127,5826313,1376,9,-0.310791015625,-0.16436767578125,0.84271240234375
1759938021127,5826313,1376,10,-0.432861328125,-0.37945556640625,0.94720458984375
1759938021127,5826313,1376,11,-0.33642578125,-0.18585205078125,0.87493896484375
1759938021127,5826313,1376,12,-0.34326171875,-0.27764892578125,0.89471435546875
1759938021127,5826313,1376,13,-0.31103515625,-0.32818603515625,0.90155029296875
1759938021127,5826313,1376,14,-0.3115234375,-0.33160400390625,0.83978271484375
1759938021127,5826313,1376,15,-0.330810546875,-0.18560791015625,0.80462646484375
1759938021127,5826313,1376,16,-0.337646484375,-0.37506103515625,0.76947021484375
1759938021127,5826313,1376,17,-0.533935546875,-0.43438720703125,1.00604248046875
1759938021127,5826313,1376,18,-0.336669921875,-0.10406494140625,0.81903076171875
1759938021127,5826313,1376,19,-0.3583984375,-0.35430908203125,0.79901123046875
1759938021127,5826313,1376,20,-0.4716796875,-0.27349853515625,0.80462646484375
1759938021127,5826313,1376,21,-0.436279296875,-0.30816650390625,0.94915771484375
1759938021127,5826313,1376,22,-0.37109375,-0.12188720703125,0.84783935546875
1759938021127,5826313,1376,23,-0.36669921875,-0.33306884765625,0.84857177734375
1759938021127,5826313,1376,24,-0.417236328125,-0.26593017578125,0.83831787109375
1759938021127,5826313,1376,25,-0.334228515625,-0.23101806640625,0.91009521484375
1759938021127,5826313,1376,26,-0.50830078125,-0.25299072265625,0.89056396484375
1759938021127,5826313,1376,27,-0.2978515625,-0.16339111328125,0.83392333984375
