receivedPhoneTimestamp,respeckTimestamp,packetSeqNum,sampleSeqNum,accelX,accelY,accelZ
1759694552301,822565498,12118,4,0.89013671875,-0.03936767578125,0.24456787109375
1759694552301,822565498,12118,5,0.897705078125,-0.05914306640625,0.25213623046875
1759694552301,822565498,12118,6,0.898681640625,-0.05084228515625,0.26995849609375
1759694552301,822565498,12118,7,0.875732421875,-0.04498291015625,0.24603271484375
1759694552301,822565498,12118,8,0.970947265625,0.03240966796875,0.19183349609375
1759694552301,822565498,12118,9,0.80419921875,-0.08917236328125,0.31390380859375
1759694552301,822565498,12118,10,0.919189453125,0.02752685546875,0.20941162109375
1759694552301,822565498,12118,11,0.9267578125,-0.02471923828125,0.22576904296875
1759694552301,822565498,12118,12,0.91357421875,-0.01055908203125,0.24652099609375
1759694552301,822565498,12118,13,0.906982421875,0.00408935546875,0.21966552734375
1759694552301,822565498,12118,14,0.953369140625,0.03167724609375,0.20672607421875
1759694552301,822565498,12118,15,0.871337890625,-0.03228759765625,0.25115966796875
1759694552301,822565498,12118,16,0.91796875,-0.00177001953125,0.19403076171875
1759694552301,822565498,12118,17,0.86767578125,-0.05108642578125,0.22674560546875
1759694552301,822565498,12118,18,0.95458984375,-0.00909423828125,0.22137451171875
1759694552301,822565498,12118,19,0.94384765625,-0.01959228515625,0.23870849609375
1759694552301,822565498,12118,20,0.886474609375,-0.03326416015625,0.22698974609375
1759694552301,822565498,12118,21,0.88623046875,-0.06280517578125,0.23773193359375
1759694552301,822565498,12118,22,0.93603515625,-0.03741455078125,0.22747802734375
1759694552301,822565498,12118,23,0.956787109375,0.01702880859375,0.20159912109375
1759694552301,822565498,12118,24,0.833740234375,-0.03985595703125,0.26287841796875
1759694552301,822565498,12118,25,0.902099609375,-0.01959228515625,0.21624755859375
1759694552301,822565498,12118,26,0.90185546875,-0.05426025390625,0.27117919921875
1759694552301,822565498,12118,27,0.907958984375,0.00457763671875,0.28021240234375
1759694552301,822565498,12118,28,0.916748046875,-0.03961181640625,0.27386474609375
1759694552301,822565498,12118,29,0.871826171875,-0.05133056640625,0.28240966796875
1759694552301,822565498,12118,30,0.943359375,-0.03497314453125,0.26800537109375
1759694552301,822565498,12118,31,0.89892578125,-0.07281494140625,0.26068115234375
1759694555000,822568077,12119,0,0.97021484375,0.03875732421875,0.21405029296875
1759694555000,822568077,12119,1,0.811279296875,-0.00225830078125,0.30364990234375
1759694555000,822568077,12119,2,0.843505859375,-6.103515625e-05,0.24749755859375
1759694555000,822568077,12119,3,0.900634765625,-0.02984619140625,0.26629638671875
1759694555000,822568077,12119,4,0.91455078125,-0.00836181640625,0.29217529296875
1759694555000,822568077,12119,5,0.904052734375,0.01678466796875,0.30072021484375
1759694555000,822568077,12119,6,0.866455078125,-0.00738525390625,0.28265380859375
1759694555000,822568077,12119,7,0.893310546875,-0.03546142578125,0.31512451171875
1759694555000,822568077,12119,8,0.933837890625,0.00604248046875,0.28631591796875
1759694555000,822568077,12119,9,0.8828125,0.04534912109375,0.26141357421875
1759694555000,822568077,12119,10,0.86474609375,0.03826904296875,0.25823974609375
1759694555000,822568077,12119,11,0.930419921875,0.04437255859375,0.29022216796875
1759694555000,822568077,12119,12,0.86181640625,-0.00665283203125,0.25799560546875
1759694555000,822568077,12119,13,0.919921875,0.03289794921875,0.26678466796875
1759694555000,822568077,12119,14,0.86181640625,0.04315185546875,0.29095458984375
1759694555000,822568077,12119,15,0.875732421875,0.03265380859375,0.34637451171875
1759694555000,822568077,12119,16,0.8662109375,0.02069091796875,0.34857177734375
1759694555000,822568077,12119,17,0.85546875,0.03045654296875,0.29583740234375
1759694555000,822568077,12119,18,0.8798828125,-0.01446533203125,0.32928466796875
1759694555000,822568077,12119,19,0.86181640625,0.04168701171875,0.27191162109375
1759694555000,822568077,12119,20,0.919189453125,-0.03204345703125,0.32000732421875
1759694555000,822568077,12119,21,0.9501953125,-0.03399658203125,0.26776123046875
1759694555000,822568077,12119,22,0.8515625,0.01336669921875,0.30511474609375
1759694555000,822568077,12119,23,0.8828125,-0.01617431640625,0.28411865234375
1759694555000,822568077,12119,24,0.892333984375,-0.00396728515625,0.29461669921875
1759694555000,822568077,12119,25,0.88818359375,0.04730224609375,0.30316162109375
1759694555000,822568077,12119,26,0.864501953125,0.01361083984375,0.27630615234375
1759694555000,822568077,12119,27,0.879150390625,0.00262451171875,0.28314208984375
1759694555000,822568077,12119,28,0.898681640625,-0.01641845703125,0.29510498046875
1759694555000,822568077,12119,29,0.909912109375,-0.00347900390625,0.25604248046875
1759694555000,822568077,12119,30,0.902587890625,0.01385498046875,0.28582763671875
1759694555000,822568077,12119,31,0.880859375,0.00946044921875,0.28607177734375
1759694557400,822570656,12120,0,0.899169921875,0.00628662109375,0.24774169921875
1759694557400,822570656,12120,1,0.954833984375,0.02606201171875,0.19696044921875
1759694557400,822570656,12120,2,0.85302734375,-0.01641845703125,0.27972412109375
1759694557400,822570656,12120,3,0.89111328125,0.02435302734375,0.22552490234375
1759694557400,822570656,12120,4,0.918212890625,-0.00518798828125,0.26214599609375
1759694557400,822570656,12120,5,0.9228515625,0.02191162109375,0.24163818359375
1759694557400,822570656,12120,6,0.91259765625,0.00140380859375,0.23431396484375
1759694557400,822570656,12120,7,0.93603515625,0.00042724609375,0.21136474609375
1759694557400,822570656,12120,8,0.88916015625,0.01922607421875,0.21087646484375
1759694557400,822570656,12120,9,0.882080078125,-0.02691650390625,0.26800537109375
1759694557400,822570656,12120,10,0.8994140625,0.06488037109375,0.19158935546875
1759694557400,822570656,12120,11,0.9287109375,0.00823974609375,0.21063232421875
1759694557400,822570656,12120,12,0.927734375,0.00946044921875,0.23822021484375
1759694557400,822570656,12120,13,0.909912109375,0.09979248046875,0.21771240234375
1759694557400,822570656,12120,14,0.918212890625,-0.04449462890625,0.28485107421875
1759694557400,822570656,12120,15,0.828857421875,0.04022216796875,0.19573974609375
1759694557400,822570656,12120,16,0.93896484375,0.00653076171875,0.25482177734375
1759694557400,822570656,12120,17,0.908203125,0.01336669921875,0.23529052734375
1759694557400,822570656,12120,18,0.921630859375,0.01019287109375,0.23284912109375
1759694557400,822570656,12120,19,0.901611328125,0.00653076171875,0.20770263671875
1759694557400,822570656,12120,20,0.935791015625,0.06414794921875,0.19354248046875
1759694557400,822570656,12120,21,0.8818359375,-0.06744384765625,0.26068115234375
1759694557400,822570656,12120,22,0.908935546875,0.06341552734375,0.19549560546875
1759694557400,822570656,12120,23,0.9072265625,-0.04058837890625,0.23284912109375
1759694557400,822570656,12120,24,0.948974609375,0.02264404296875,0.21234130859375
1759694557400,822570656,12120,25,0.921630859375,0.00042724609375,0.24212646484375
1759694557400,822570656,12120,26,0.90185546875,0.00262451171875,0.22552490234375
1759694557400,822570656,12120,27,0.89306640625,-0.02105712890625,0.23504638671875
1759694557400,822570656,12120,28,0.928955078125,0.02508544921875,0.22332763671875
1759694557400,822570656,12120,29,0.90625,0.00140380859375,0.20648193359375
1759694557400,822570656,12120,30,0.85888671875,0.00067138671875,0.24993896484375
1759694557400,822570656,12120,31,0.910888671875,-0.01202392578125,0.23699951171875
1759694559946,822573235,12121,0,0.906494140625,-0.01324462890625,0.25848388671875
1759694559946,822573235,12121,1,0.918212890625,0.00799560546875,0.25311279296875
1759694559946,822573235,12121,2,0.928466796875,-0.00665283203125,0.22576904296875
1759694559946,822573235,12121,3,0.920166015625,-0.06719970703125,0.20208740234375
1759694559946,822573235,12121,4,0.89306640625,0.05316162109375,0.23553466796875
1759694559946,822573235,12121,5,0.935791015625,0.04486083984375,0.24188232421875
1759694559946,822573235,12121,6,0.85205078125,-0.00787353515625,0.25189208984375
1759694559946,822573235,12121,7,0.92138671875,0.01654052734375,0.21282958984375
1759694559946,822573235,12121,8,0.916015625,-6.103515625e-05,0.22381591796875
1759694559946,822573235,12121,9,0.9130859375,0.01824951171875,0.26531982421875
1759694559946,822573235,12121,10,0.90625,0.07366943359375,0.22430419921875
1759694559946,822573235,12121,11,0.892333984375,-0.01104736328125,0.27117919921875
1759694559946,822573235,12121,12,0.8662109375,0.01239013671875,0.27313232421875
1759694559946,822573235,12121,13,0.8681640625,0.01068115234375,0.26776123046875
1759694559946,822573235,12121,14,0.91845703125,0.02117919921875,0.27752685546875
1759694559946,822573235,12121,15,0.90869140625,0.00750732421875,0.30169677734375
1759694559946,822573235,12121,16,0.8857421875,-0.00616455078125,0.25604248046875
1759694559946,822573235,12121,17,0.904296875,-0.00665283203125,0.24871826171875
1759694559946,822573235,12121,18,0.912353515625,0.00433349609375,0.21307373046875
1759694559946,822573235,12121,19,0.943359375,0.06317138671875,0.17034912109375
1759694559946,822573235,12121,20,0.89501953125,-0.09991455078125,0.27239990234375
1759694559946,822573235,12121,21,0.877685546875,0.05706787109375,0.16717529296875
1759694559946,822573235,12121,22,0.92431640625,-0.02764892578125,0.21697998046875
1759694559946,822573235,12121,23,0.94189453125,0.00775146484375,0.21771240234375
1759694559946,822573235,12121,24,0.93505859375,-0.00152587890625,0.24090576171875
1759694559946,822573235,12121,25,0.88720703125,-0.00860595703125,0.21453857421875
1759694559946,822573235,12121,26,0.911376953125,-0.03302001953125,0.22113037109375
1759694559946,822573235,12121,27,0.93701171875,-0.01715087890625,0.23260498046875
1759694559946,822573235,12121,28,0.8837890625,-0.01202392578125,0.20648193359375
1759694559946,822573235,12121,29,0.919677734375,0.02801513671875,0.22698974609375
1759694559946,822573235,12121,30,0.92041015625,-0.04156494140625,0.22479248046875
1759694559946,822573235,12121,31,0.876953125,0.00238037109375,0.22064208984375
1759694562497,822575814,12122,0,0.89111328125,-0.03131103515625,0.26776123046875
1759694562497,822575814,12122,1,0.890380859375,-0.00567626953125,0.30633544921875
1759694562497,822575814,12122,2,0.971435546875,0.04852294921875,0.25115966796875
1759694562497,822575814,12122,3,0.810302734375,-0.06011962890625,0.29681396484375
1759694562497,822575814,12122,4,0.9248046875,-0.01959228515625,0.29705810546875
1759694562497,822575814,12122,5,0.850341796875,-0.01715087890625,0.25897216796875
1759694562497,822575814,12122,6,0.933349609375,-0.00787353515625,0.25140380859375
1759694562497,822575814,12122,7,0.971435546875,-0.07110595703125,0.26116943359375
1759694562497,822575814,12122,8,0.793212890625,-0.03814697265625,0.30462646484375
1759694562497,822575814,12122,9,0.902587890625,-0.00421142578125,0.32098388671875
1759694562497,822575814,12122,10,0.841796875,-0.03179931640625,0.35174560546875
1759694562497,822575814,12122,11,0.93701171875,-0.03253173828125,0.29681396484375
1759694562497,822575814,12122,12,0.871826171875,-0.02667236328125,0.22845458984375
1759694562497,822575814,12122,13,0.884033203125,-0.02301025390625,0.26898193359375
1759694562497,822575814,12122,14,0.9267578125,-0.03302001953125,0.29046630859375
1759694562497,822575814,12122,15,0.912109375,-0.04937744140625,0.28948974609375
1759694562497,822575814,12122,16,0.89404296875,-0.02130126953125,0.27288818359375
1759694562497,822575814,12122,17,0.86669921875,0.00946044921875,0.30316162109375
1759694562497,822575814,12122,18,0.877685546875,-0.00494384765625,0.35980224609375
1759694562497,822575814,12122,19,0.850341796875,-0.03546142578125,0.34857177734375
1759694562497,822575814,12122,20,0.885009765625,0.00018310546875,0.32000732421875
1759694562497,822575814,12122,21,0.856201171875,0.01605224609375,0.31829833984375
1759694562497,822575814,12122,22,0.91845703125,0.00238037109375,0.27923583984375
1759694562497,822575814,12122,23,0.845947265625,0.00726318359375,0.34197998046875
1759694562497,822575814,12122,24,0.86669921875,-0.01104736328125,0.31439208984375
1759694562497,822575814,12122,25,0.88818359375,-0.02374267578125,0.28778076171875
1759694562497,822575814,12122,26,0.904052734375,0.00994873046875,0.29998779296875
1759694562497,822575814,12122,27,0.880126953125,0.00775146484375,0.31683349609375
1759694562497,822575814,12122,28,0.874267578125,0.00115966796875,0.30560302734375
1759694562497,822575814,12122,29,0.883056640625,-0.01470947265625,0.28411865234375
1759694562497,822575814,12122,30,0.88232421875,-0.02252197265625,0.31292724609375
1759694562497,822575814,12122,31,0.86669921875,-0.02276611328125,0.32440185546875
1759694565202,822578393,12123,0,0.905517578125,-0.01177978515625,0.31414794921875
1759694565202,822578393,12123,1,0.8916015625,-0.02960205078125,0.28704833984375
1759694565202,822578393,12123,2,0.91650390625,0.00531005859375,0.23699951171875
1759694565202,822578393,12123,3,0.926513671875,0.03143310546875,0.24627685546875
1759694565202,822578393,12123,4,0.888427734375,-0.03814697265625,0.31024169921875
1759694565202,822578393,12123,5,0.828857421875,-0.02081298828125,0.28045654296875
1759694565202,822578393,12123,6,0.859130859375,-0.04229736328125,0.27386474609375
1759694565202,822578393,12123,7,0.93017578125,0.00067138671875,0.29290771484375
1759694565202,822578393,12123,8,0.943603515625,-0.03106689453125,0.30487060546875
1759694565202,822578393,12123,9,0.87841796875,-0.03082275390625,0.27215576171875
1759694565202,822578393,12123,10,0.885986328125,-0.01690673828125,0.25408935546875
1759694565202,822578393,12123,11,0.8779296875,-0.02447509765625,0.29071044921875
1759694565202,822578393,12123,12,0.92333984375,0.00872802734375,0.27899169921875
1759694565202,822578393,12123,13,0.9033203125,-0.04937744140625,0.29632568359375
1759694565202,822578393,12123,14,0.846435546875,0.00946044921875,0.29266357421875
1759694565202,822578393,12123,15,0.871826171875,-0.01226806640625,0.28900146484375
1759694565202,822578393,12123,16,0.905029296875,-0.00177001953125,0.29046630859375
1759694565202,822578393,12123,17,0.937744140625,0.02435302734375,0.25994873046875
1759694565202,822578393,12123,18,0.9013671875,-0.02569580078125,0.27655029296875
1759694565202,822578393,12123,19,0.846923828125,0.00018310546875,0.26165771484375
1759694565202,822578393,12123,20,0.853271484375,-0.05596923828125,0.27630615234375
1759694565202,822578393,12123,21,0.966796875,0.01165771484375,0.27899169921875
1759694565202,822578393,12123,22,0.873779296875,-0.04473876953125,0.32049560546875
1759694565202,822578393,12123,23,0.869384765625,-0.01202392578125,0.33172607421875
1759694565202,822578393,12123,24,0.8583984375,-0.05206298828125,0.34588623046875
1759694565202,822578393,12123,25,0.882080078125,-0.04620361328125,0.34637451171875
1759694565202,822578393,12123,26,0.861328125,-0.05377197265625,0.36785888671875
1759694565202,822578393,12123,27,0.862060546875,-0.02935791015625,0.30926513671875
1759694565202,822578393,12123,28,0.95166015625,-0.00250244140625,0.28118896484375
1759694565202,822578393,12123,29,0.834716796875,-0.03497314453125,0.30487060546875
1759694565202,822578393,12123,30,0.86083984375,-0.01348876953125,0.28924560546875
1759694565202,822578393,12123,31,0.906494140625,-0.02105712890625,0.28582763671875
1759694567751,822580972,12124,0,0.89208984375,-0.00811767578125,0.31024169921875
1759694567751,822580972,12124,1,0.87353515625,-0.02154541015625,0.29266357421875
1759694567751,822580972,12124,2,0.863525390625,-0.02056884765625,0.30364990234375
1759694567751,822580972,12124,3,0.9169921875,-0.02984619140625,0.29998779296875
1759694567751,822580972,12124,4,0.905517578125,-0.05059814453125,0.30731201171875
1759694567751,822580972,12124,5,0.874267578125,-0.03204345703125,0.29559326171875
1759694567751,822580972,12124,6,0.880859375,-0.04083251953125,0.28192138671875
1759694567751,822580972,12124,7,0.9169921875,-0.03302001953125,0.24627685546875
1759694567751,822580972,12124,8,0.940185546875,0.01361083984375,0.23724365234375
1759694567751,822580972,12124,9,0.84765625,-0.03594970703125,0.29437255859375
1759694567751,822580972,12124,10,0.88623046875,0.01043701171875,0.24041748046875
1759694567751,822580972,12124,11,0.944580078125,-0.00933837890625,0.26214599609375
1759694567751,822580972,12124,12,0.88427734375,-0.01641845703125,0.25604248046875
1759694567751,822580972,12124,13,0.8896484375,0.03485107421875,0.25384521484375
1759694567751,822580972,12124,14,0.96435546875,0.01873779296875,0.24847412109375
1759694567751,822580972,12124,15,0.830810546875,-0.02545166015625,0.27630615234375
1759694567751,822580972,12124,16,0.86962890625,-0.01422119140625,0.25433349609375
1759694567751,822580972,12124,17,0.895263671875,0.00897216796875,0.27020263671875
1759694567751,822580972,12124,18,0.931396484375,-0.03033447265625,0.29608154296875
1759694567751,822580972,12124,19,0.90380859375,-0.02862548828125,0.28582763671875
1759694567751,822580972,12124,20,0.887939453125,-0.03839111328125,0.26116943359375
1759694567751,822580972,12124,21,0.900146484375,-0.03912353515625,0.26605224609375
1759694567751,822580972,12124,22,0.8994140625,-0.05059814453125,0.28582763671875
1759694567751,822580972,12124,23,0.893798828125,-0.03253173828125,0.23822021484375
1759694567751,822580972,12124,24,0.956298828125,-0.00347900390625,0.18353271484375
1759694567751,822580972,12124,25,0.87109375,-0.04498291015625,0.27215576171875
1759694567751,822580972,12124,26,0.875,-0.02325439453125,0.27142333984375
1759694567751,822580972,12124,27,0.88671875,0.00335693359375,0.24945068359375
1759694567751,822580972,12124,28,0.93115234375,-0.00909423828125,0.23333740234375
1759694567751,822580972,12124,29,0.8798828125,-0.05670166015625,0.26824951171875
1759694567751,822580972,12124,30,0.953125,0.01507568359375,0.24017333984375
1759694567751,822580972,12124,31,0.917724609375,-0.00201416015625,0.23455810546875
1759694570303,822583552,12125,0,0.899658203125,-0.02716064453125,0.23260498046875
1759694570303,822583552,12125,1,0.892822265625,-0.02423095703125,0.26116943359375
1759694570303,822583552,12125,2,0.886962890625,-0.03472900390625,0.27777099609375
1759694570303,822583552,12125,3,0.869873046875,-0.02691650390625,0.30072021484375
1759694570303,822583552,12125,4,1.0087890625,0.04022216796875,0.25286865234375
1759694570303,822583552,12125,5,0.765625,-0.08306884765625,0.33294677734375
1759694570303,822583552,12125,6,0.873291015625,0.04876708984375,0.25921630859375
1759694570303,822583552,12125,7,0.90087890625,-0.03057861328125,0.28289794921875
1759694570303,822583552,12125,8,0.927978515625,0.01507568359375,0.26458740234375
1759694570303,822583552,12125,9,0.880615234375,-0.00201416015625,0.24945068359375
1759694570303,822583552,12125,10,0.9501953125,0.09686279296875,0.21038818359375
1759694570303,822583552,12125,11,0.90625,-0.03668212890625,0.24676513671875
1759694570303,822583552,12125,12,0.8564453125,0.00555419921875,0.23846435546875
1759694570303,822583552,12125,13,0.868896484375,-0.03594970703125,0.24749755859375
1759694570303,822583552,12125,14,0.9599609375,0.02899169921875,0.23089599609375
1759694570303,822583552,12125,15,0.948974609375,-0.03887939453125,0.27532958984375
1759694570303,822583552,12125,16,0.87890625,-0.01422119140625,0.25701904296875
1759694570303,822583552,12125,17,0.8603515625,-0.03350830078125,0.27532958984375
1759694570303,822583552,12125,18,0.900634765625,-0.03570556640625,0.31805419921875
1759694570303,822583552,12125,19,0.884521484375,-0.04718017578125,0.28973388671875
1759694570303,822583552,12125,20,0.8720703125,-0.04107666015625,0.29046630859375
1759694570303,822583552,12125,21,0.957275390625,-0.02886962890625,0.26116943359375
1759694570303,822583552,12125,22,0.87548828125,0.00140380859375,0.25164794921875
1759694570303,822583552,12125,23,0.87109375,-0.02227783203125,0.24652099609375
1759694570303,822583552,12125,24,0.903564453125,-0.00494384765625,0.23333740234375
1759694570303,822583552,12125,25,0.928466796875,-0.00592041015625,0.26580810546875
1759694570303,822583552,12125,26,0.90283203125,-0.01959228515625,0.26922607421875
1759694570303,822583552,12125,27,0.866943359375,0.00482177734375,0.24725341796875
1759694570303,822583552,12125,28,0.893310546875,-0.00592041015625,0.29632568359375
1759694570303,822583552,12125,29,0.918701171875,-0.05596923828125,0.33172607421875
1759694570303,822583552,12125,30,0.877685546875,-0.04425048828125,0.30487060546875
1759694570303,822583552,12125,31,0.86767578125,-0.03717041015625,0.31243896484375
1759694572852,822586131,12126,0,0.875244140625,-0.03497314453125,0.28802490234375
1759694572852,822586131,12126,1,0.889404296875,-0.04180908203125,0.32659912109375
1759694572852,822586131,12126,2,0.9580078125,-0.01666259765625,0.23260498046875
1759694572852,822586131,12126,3,0.82421875,-0.01104736328125,0.25506591796875
1759694572852,822586131,12126,4,0.885986328125,-0.01910400390625,0.27386474609375
1759694572852,822586131,12126,5,0.914794921875,0.00701904296875,0.26629638671875
1759694572852,822586131,12126,6,0.924072265625,0.00140380859375,0.27630615234375
1759694572852,822586131,12126,7,0.91162109375,0.02288818359375,0.25775146484375
1759694572852,822586131,12126,8,0.859375,0.00970458984375,0.30340576171875
1759694572852,822586131,12126,9,0.85400390625,0.01434326171875,0.32318115234375
1759694572852,822586131,12126,10,0.866943359375,-0.01788330078125,0.31561279296875
1759694572852,822586131,12126,11,0.884765625,-0.01104736328125,0.34735107421875
1759694572852,822586131,12126,12,0.893798828125,-0.01348876953125,0.32977294921875
1759694572852,822586131,12126,13,0.858154296875,-0.02545166015625,0.30511474609375
1759694572852,822586131,12126,14,0.8798828125,-0.04107666015625,0.31854248046875
1759694572852,822586131,12126,15,0.8935546875,-0.01739501953125,0.30462646484375
1759694572852,822586131,12126,16,0.9072265625,-0.01373291015625,0.29168701171875
1759694572852,822586131,12126,17,0.888427734375,0.01019287109375,0.30072021484375
1759694572852,822586131,12126,18,0.89453125,0.00897216796875,0.31268310546875
1759694572852,822586131,12126,19,0.859130859375,-0.00421142578125,0.32220458984375
1759694572852,822586131,12126,20,0.86474609375,-0.01055908203125,0.33514404296875
1759694572852,822586131,12126,21,0.86328125,0.01165771484375,0.33416748046875
1759694572852,822586131,12126,22,0.875244140625,0.02020263671875,0.36297607421875
1759694572852,822586131,12126,23,0.88916015625,-0.01300048828125,0.29315185546875
1759694572852,822586131,12126,24,0.83154296875,0.03167724609375,0.36907958984375
1759694572852,822586131,12126,25,0.85791015625,-0.01348876953125,0.35467529296875
1759694572852,822586131,12126,26,0.87451171875,0.01190185546875,0.31121826171875
1759694572852,822586131,12126,27,0.8857421875,0.01361083984375,0.35565185546875
1759694572852,822586131,12126,28,0.87548828125,0.01239013671875,0.35760498046875
1759694572852,822586131,12126,29,0.86181640625,0.00653076171875,0.32196044921875
1759694572852,822586131,12126,30,0.8505859375,-0.01177978515625,0.34271240234375
1759694572852,822586131,12126,31,0.8681640625,-0.01837158203125,0.34759521484375
1759694575401,822588710,12127,0,0.858154296875,0.00042724609375,0.34344482421875
1759694575401,822588710,12127,1,0.90771484375,-0.01641845703125,0.34564208984375
1759694575401,822588710,12127,2,0.87939453125,-0.01031494140625,0.32342529296875
1759694575401,822588710,12127,3,0.909912109375,-0.02789306640625,0.29315185546875
1759694575401,822588710,12127,4,0.9189453125,0.03607177734375,0.26434326171875
1759694575401,822588710,12127,5,0.813232421875,-0.05181884765625,0.35125732421875
1759694575401,822588710,12127,6,0.84130859375,0.01092529296875,0.28045654296875
1759694575401,822588710,12127,7,0.879638671875,-0.04498291015625,0.32562255859375
1759694575401,822588710,12127,8,0.9501953125,-0.00494384765625,0.33001708984375
1759694575401,822588710,12127,9,0.868408203125,-0.05523681640625,0.32073974609375
1759694575401,822588710,12127,10,0.86767578125,-0.02862548828125,0.32415771484375
1759694575401,822588710,12127,11,0.8681640625,-0.04376220703125,0.32684326171875
1759694575401,822588710,12127,12,0.866455078125,-0.05010986328125,0.34881591796875
1759694575401,822588710,12127,13,0.882568359375,-0.04107666015625,0.33587646484375
1759694575401,822588710,12127,14,0.9892578125,0.00628662109375,0.24359130859375
1759694575401,822588710,12127,15,0.762451171875,-0.06842041015625,0.32391357421875
1759694575401,822588710,12127,16,0.884521484375,0.01971435546875,0.28582763671875
1759694575401,822588710,12127,17,0.8779296875,-0.05035400390625,0.33660888671875
1759694575401,822588710,12127,18,0.888916015625,-0.00665283203125,0.27410888671875
1759694575401,822588710,12127,19,0.885498046875,-0.02349853515625,0.33929443359375
1759694575401,822588710,12127,20,0.85986328125,-0.02911376953125,0.35687255859375
1759694575401,822588710,12127,21,0.87158203125,-0.03179931640625,0.35833740234375
1759694575401,822588710,12127,22,0.861328125,-0.03741455078125,0.36297607421875
1759694575401,822588710,12127,23,0.85302734375,-0.04058837890625,0.35369873046875
1759694575401,822588710,12127,24,0.86865234375,-0.04473876953125,0.33123779296875
1759694575401,822588710,12127,25,0.88134765625,-0.04400634765625,0.35638427734375
1759694575401,822588710,12127,26,0.980712890625,0.00653076171875,0.22113037109375
1759694575401,822588710,12127,27,0.834228515625,-0.00177001953125,0.31878662109375
1759694575401,822588710,12127,28,0.850341796875,0.00140380859375,0.28436279296875
1759694575401,822588710,12127,29,0.8974609375,-0.02008056640625,0.25994873046875
1759694575401,822588710,12127,30,0.9130859375,-0.00421142578125,0.29461669921875
1759694575401,822588710,12127,31,0.9111328125,0.04803466796875,0.24749755859375
1759694578101,822591289,12128,0,0.9208984375,0.00433349609375,0.31341552734375
1759694578101,822591289,12128,1,0.80615234375,0.00946044921875,0.28778076171875
1759694578101,822591289,12128,2,0.876708984375,-0.03643798828125,0.28167724609375
1759694578101,822591289,12128,3,0.879638671875,0.01214599609375,0.30487060546875
1759694578101,822591289,12128,4,0.94482421875,-0.00787353515625,0.33172607421875
1759694578101,822591289,12128,5,0.867431640625,-0.04620361328125,0.32879638671875
1759694578101,822591289,12128,6,0.86865234375,-0.03082275390625,0.33587646484375
1759694578101,822591289,12128,7,0.874267578125,-0.03717041015625,0.34979248046875
1759694578101,822591289,12128,8,0.878662109375,-0.03765869140625,0.32977294921875
1759694578101,822591289,12128,9,0.863037109375,-0.04693603515625,0.32415771484375
1759694578101,822591289,12128,10,0.898193359375,-0.03839111328125,0.31219482421875
1759694578101,822591289,12128,11,0.96484375,0.04681396484375,0.22308349609375
1759694578101,822591289,12128,12,0.80419921875,-0.04010009765625,0.33074951171875
1759694578101,822591289,12128,13,0.85009765625,0.01507568359375,0.28826904296875
1759694578101,822591289,12128,14,0.89697265625,-0.03717041015625,0.34002685546875
1759694578101,822591289,12128,15,0.895751953125,0.02484130859375,0.31829833984375
1759694578101,822591289,12128,16,0.861083984375,-0.00860595703125,0.28265380859375
1759694578101,822591289,12128,17,0.844482421875,0.01995849609375,0.32073974609375
1759694578101,822591289,12128,18,0.88818359375,-0.02813720703125,0.39373779296875
1759694578101,822591289,12128,19,0.887939453125,-0.03668212890625,0.36346435546875
1759694578101,822591289,12128,20,0.839599609375,-0.02325439453125,0.35394287109375
1759694578101,822591289,12128,21,0.859130859375,-0.03912353515625,0.37347412109375
1759694578101,822591289,12128,22,0.889892578125,-0.00592041015625,0.38372802734375
1759694578101,822591289,12128,23,0.963134765625,-0.01470947265625,0.20965576171875
1759694578101,822591289,12128,24,0.79150390625,0.01287841796875,0.30096435546875
1759694578101,822591289,12128,25,0.84130859375,-0.01861572265625,0.31048583984375
1759694578101,822591289,12128,26,0.9267578125,-0.00518798828125,0.29388427734375
1759694578101,822591289,12128,27,0.89892578125,-0.00640869140625,0.29193115234375
1759694578101,822591289,12128,28,0.906494140625,0.04339599609375,0.28997802734375
1759694578101,822591289,12128,29,0.904052734375,0.03460693359375,0.28485107421875
1759694578101,822591289,12128,30,0.84521484375,0.00775146484375,0.32269287109375
1759694578101,822591289,12128,31,0.832275390625,-0.03668212890625,0.31121826171875
1759694580950,822593862,12129,0,0.88037109375,0.00726318359375,0.34637451171875
1759694580950,822593862,12129,1,0.92919921875,-0.01348876953125,0.38079833984375
1759694580950,822593862,12129,2,0.821533203125,0.00921630859375,0.34271240234375
1759694580950,822593862,12129,3,0.830322265625,-0.00811767578125,0.40789794921875
1759694580950,822593862,12129,4,0.803466796875,-0.02252197265625,0.40472412109375
1759694580950,822593862,12129,5,0.90087890625,-0.01397705078125,0.40545654296875
1759694580950,822593862,12129,6,0.85888671875,-0.00079345703125,0.45648193359375
1759694580950,822593862,12129,7,0.79931640625,-0.06500244140625,0.46990966796875
1759694580950,822593862,12129,8,0.76904296875,-0.04669189453125,0.42889404296875
1759694580950,822593862,12129,9,0.823486328125,-0.00250244140625,0.45745849609375
1759694580950,822593862,12129,10,0.85546875,-6.103515625e-05,0.45452880859375
1759694580950,822593862,12129,11,0.804931640625,-0.04327392578125,0.44110107421875
1759694580950,822593862,12129,12,0.824951171875,0.00579833984375,0.39154052734375
1759694580950,822593862,12129,13,0.822021484375,0.01507568359375,0.35394287109375
1759694580950,822593862,12129,14,0.8681640625,0.00140380859375,0.35321044921875
1759694580950,822593862,12129,15,0.88623046875,-0.05450439453125,0.47430419921875
1759694580950,822593862,12129,16,0.957275390625,0.09246826171875,0.20672607421875
1759694580950,822593862,12129,17,0.718017578125,-0.01519775390625,0.35174560546875
1759694580950,822593862,12129,18,0.88232421875,0.07635498046875,0.27703857421875
1759694580950,822593862,12129,19,0.91162109375,0.01287841796875,0.32781982421875
1759694580950,822593862,12129,20,0.955810546875,0.06829833984375,0.28778076171875
1759694580950,822593862,12129,21,0.820556640625,-0.02349853515625,0.36590576171875
1759694580950,822593862,12129,22,0.8642578125,0.07025146484375,0.28411865234375
1759694580950,822593862,12129,23,0.79345703125,0.01947021484375,0.30169677734375
1759694580950,822593862,12129,24,0.987060546875,0.02532958984375,0.35540771484375
1759694580950,822593862,12129,25,0.84716796875,-0.00787353515625,0.35150146484375
1759694580950,822593862,12129,26,0.87451171875,-6.103515625e-05,0.36004638671875
