receivedPhoneTimestamp,respeckTimestamp,packetSeqNum,sampleSeqNum,accelX,accelY,accelZ
1759936105919,1037552888,24888,31,-0.869384765625,-0.00128173828125,-0.60479736328125
1759936108501,1037555461,24889,0,-0.80908203125,-0.08721923828125,-0.46490478515625
1759936108501,1037555461,24889,1,-0.894775390625,-0.00396728515625,-0.59552001953125
1759936108501,1037555461,24889,2,-0.83642578125,0.04705810546875,-0.68560791015625
1759936108501,1037555461,24889,3,-0.85009765625,-0.02593994140625,-0.65679931640625
1759936108501,1037555461,24889,4,-0.867431640625,-0.02813720703125,-0.60699462890625
1759936108501,1037555461,24889,5,-0.86767578125,0.02777099609375,-0.67828369140625
1759936108501,1037555461,24889,6,-0.83154296875,0.00115966796875,-0.63775634765625
1759936108501,1037555461,24889,7,-0.85205078125,-0.00616455078125,-0.62628173828125
1759936108501,1037555461,24889,8,-0.843505859375,0.02069091796875,-0.65045166015625
1759936108501,1037555461,24889,9,-0.886474609375,0.02728271484375,-0.62896728515625
1759936108501,1037555461,24889,10,-0.811279296875,-0.02520751953125,-0.56768798828125
1759936108501,1037555461,24889,11,-0.918701171875,-0.07110595703125,-0.50567626953125
1759936108501,1037555461,24889,12,-0.7607421875,0.02728271484375,-0.64508056640625
1759936108501,1037555461,24889,13,-0.917724609375,0.02679443359375,-0.75177001953125
1759936108501,1037555461,24889,14,-0.82666015625,0.00335693359375,-0.62921142578125
1759936108501,1037555461,24889,15,-0.8681640625,-0.12188720703125,-0.45098876953125
1759936108501,1037555461,24889,16,-0.805419921875,0.02362060546875,-0.71099853515625
1759936108501,1037555461,24889,17,-0.8935546875,0.07635498046875,-0.78131103515625
1759936108501,1037555461,24889,18,-0.858154296875,-0.06060791015625,-0.52374267578125
1759936108501,1037555461,24889,19,-0.822998046875,-0.06353759765625,-0.49200439453125
1759936108501,1037555461,24889,20,-0.88916015625,-0.00177001953125,-0.68951416015625
1759936108501,1037555461,24889,21,-0.838134765625,0.01409912109375,-0.69000244140625
1759936108501,1037555461,24889,22,-0.833740234375,-0.00836181640625,-0.63482666015625
1759936108501,1037555461,24889,23,-0.86328125,-0.02325439453125,-0.65338134765625
1759936108501,1037555461,24889,24,-0.844482421875,0.02362060546875,-0.67315673828125
1759936108501,1037555461,24889,25,-0.812255859375,0.00994873046875,-0.64044189453125
1759936108501,1037555461,24889,26,-0.89453125,0.00091552734375,-0.66534423828125
1759936108501,1037555461,24889,27,-0.83203125,-0.05230712890625,-0.47198486328125
1759936108501,1037555461,24889,28,-0.877685546875,-0.02960205078125,-0.56597900390625
1759936108501,1037555461,24889,29,-0.85302734375,0.02166748046875,-0.66070556640625
1759936108501,1037555461,24889,30,-0.88037109375,0.01434326171875,-0.70220947265625
1759936108501,1037555461,24889,31,-0.85595703125,0.04266357421875,-0.71685791015625
1759936111088,1037558034,24890,0,-0.857177734375,-0.10723876953125,-0.38165283203125
1759936111088,1037558034,24890,1,-0.829833984375,0.02581787109375,-0.60772705078125
1759936111088,1037558034,24890,2,-0.900634765625,0.06707763671875,-0.76373291015625
1759936111088,1037558034,24890,3,-0.877685546875,0.02191162109375,-0.65411376953125
1759936111088,1037558034,24890,4,-0.834716796875,-0.03253173828125,-0.46905517578125
1759936111088,1037558034,24890,5,-0.85009765625,-0.02984619140625,-0.55084228515625
1759936111088,1037558034,24890,6,-0.850341796875,0.04510498046875,-0.66925048828125
1759936111088,1037558034,24890,7,-0.889404296875,0.01507568359375,-0.65313720703125
1759936111088,1037558034,24890,8,-0.8095703125,-0.00128173828125,-0.62945556640625
1759936111088,1037558034,24890,9,-0.8623046875,0.02362060546875,-0.69146728515625
1759936111088,1037558034,24890,10,-0.85107421875,0.03533935546875,-0.66949462890625
1759936111088,1037558034,24890,11,-0.83544921875,0.03485107421875,-0.66973876953125
1759936111088,1037558034,24890,12,-0.83251953125,0.03118896484375,-0.67437744140625
1759936111088,1037558034,24890,13,-0.847900390625,0.02264404296875,-0.60919189453125
1759936111088,1037558034,24890,14,-0.86767578125,-0.05010986328125,-0.47589111328125
1759936111088,1037558034,24890,15,-0.85498046875,0.02484130859375,-0.62481689453125
1759936111088,1037558034,24890,16,-0.8388671875,0.02581787109375,-0.70660400390625
1759936111088,1037558034,24890,17,-0.855712890625,0.01165771484375,-0.68145751953125
1759936111088,1037558034,24890,18,-0.843505859375,0.01580810546875,-0.64849853515625
1759936111088,1037558034,24890,19,-0.866943359375,-0.04791259765625,-0.50372314453125
1759936111088,1037558034,24890,20,-0.843017578125,0.02606201171875,-0.58062744140625
1759936111088,1037558034,24890,21,-0.861328125,0.05267333984375,-0.73956298828125
1759936111088,1037558034,24890,22,-0.8837890625,0.01092529296875,-0.65313720703125
1759936111088,1037558034,24890,23,-0.8583984375,0.01092529296875,-0.60382080078125
1759936111088,1037558034,24890,24,-0.8701171875,-0.03887939453125,-0.48175048828125
1759936111088,1037558034,24890,25,-0.87841796875,-0.00567626953125,-0.55792236328125
1759936111088,1037558034,24890,26,-0.878173828125,0.04022216796875,-0.67486572265625
1759936111088,1037558034,24890,27,-0.93798828125,0.01458740234375,-0.64996337890625
1759936111088,1037558034,24890,28,-0.834716796875,-0.02349853515625,-0.46099853515625
1759936111088,1037558034,24890,29,-0.951416015625,-0.04425048828125,-0.53131103515625
1759936111088,1037558034,24890,30,-0.7607421875,0.01165771484375,-0.61944580078125
1759936111088,1037558034,24890,31,-0.9599609375,0.04022216796875,-0.67901611328125
1759936113669,1037560607,24891,0,-0.88037109375,0.00164794921875,-0.56890869140625
1759936113669,1037560607,24891,1,-0.852294921875,-0.09161376953125,-0.48248291015625
1759936113669,1037560607,24891,2,-0.926513671875,-0.01397705078125,-0.53717041015625
1759936113669,1037560607,24891,3,-0.80322265625,0.01824951171875,-0.60064697265625
1759936113669,1037560607,24891,4,-0.9326171875,0.01531982421875,-0.64483642578125
1759936113669,1037560607,24891,5,-0.87158203125,0.02825927734375,-0.67315673828125
1759936113669,1037560607,24891,6,-0.826904296875,-0.00103759765625,-0.65606689453125
1759936113669,1037560607,24891,7,-0.859619140625,0.01922607421875,-0.64727783203125
1759936113669,1037560607,24891,8,-0.873779296875,-0.02569580078125,-0.56597900390625
1759936113669,1037560607,24891,9,-0.833984375,-0.01275634765625,-0.58209228515625
1759936113669,1037560607,24891,10,-0.906494140625,-0.04522705078125,-0.55059814453125
1759936113669,1037560607,24891,11,-0.802490234375,0.04119873046875,-0.70513916015625
1759936113669,1037560607,24891,12,-0.90380859375,0.01971435546875,-0.76641845703125
1759936113669,1037560607,24891,13,-0.83154296875,-0.05645751953125,-0.41827392578125
1759936113669,1037560607,24891,14,-0.873779296875,-0.04718017578125,-0.53546142578125
1759936113669,1037560607,24891,15,-0.87890625,0.06365966796875,-0.67291259765625
1759936113669,1037560607,24891,16,-0.937255859375,-0.00958251953125,-0.62335205078125
1759936113669,1037560607,24891,17,-0.84130859375,0.00067138671875,-0.58599853515625
1759936113669,1037560607,24891,18,-0.888671875,-0.05401611328125,-0.46295166015625
1759936113669,1037560607,24891,19,-0.831787109375,0.02435302734375,-0.69830322265625
1759936113669,1037560607,24891,20,-0.934326171875,0.00750732421875,-0.65435791015625
1759936113669,1037560607,24891,21,-0.859375,-0.00640869140625,-0.55426025390625
1759936113669,1037560607,24891,22,-0.895751953125,-0.08795166015625,-0.42852783203125
1759936113669,1037560607,24891,23,-0.8583984375,0.03729248046875,-0.65264892578125
1759936113669,1037560607,24891,24,-0.93505859375,0.02972412109375,-0.66925048828125
1759936113669,1037560607,24891,25,-0.866943359375,-0.04815673828125,-0.50445556640625
1759936113669,1037560607,24891,26,-0.881103515625,-0.05279541015625,-0.46002197265625
1759936113669,1037560607,24891,27,-0.917724609375,-0.01568603515625,-0.55743408203125
1759936113669,1037560607,24891,28,-0.83935546875,0.00823974609375,-0.60845947265625
1759936113669,1037560607,24891,29,-0.9267578125,-0.01812744140625,-0.62261962890625
1759936113669,1037560607,24891,30,-0.8837890625,-0.01397705078125,-0.62652587890625
1759936113669,1037560607,24891,31,-0.858642578125,0.00384521484375,-0.62872314453125
1759936116254,1037563180,24892,0,-0.851806640625,-0.00396728515625,-0.61871337890625
1759936116254,1037563180,24892,1,-0.895751953125,-0.00152587890625,-0.61651611328125
1759936116254,1037563180,24892,2,-0.857421875,-0.00738525390625,-0.52642822265625
1759936116254,1037563180,24892,3,-0.899658203125,-0.08013916015625,-0.48297119140625
1759936116254,1037563180,24892,4,-0.83984375,0.01409912109375,-0.65020751953125
1759936116254,1037563180,24892,5,-0.91943359375,0.04144287109375,-0.69317626953125
1759936116254,1037563180,24892,6,-0.829345703125,-0.02764892578125,-0.57232666015625
1759936116254,1037563180,24892,7,-0.911376953125,-0.05450439453125,-0.47247314453125
1759936116254,1037563180,24892,8,-0.87255859375,0.00775146484375,-0.54156494140625
1759936116254,1037563180,24892,9,-0.8408203125,0.04803466796875,-0.75347900390625
1759936116254,1037563180,24892,10,-0.928955078125,-0.00494384765625,-0.66070556640625
1759936116254,1037563180,24892,11,-0.853271484375,-0.01763916015625,-0.45489501953125
1759936116254,1037563180,24892,12,-0.8857421875,-0.03009033203125,-0.54205322265625
1759936116254,1037563180,24892,13,-0.86083984375,0.00384521484375,-0.57305908203125
1759936116254,1037563180,24892,14,-0.9091796875,0.05218505859375,-0.72882080078125
1759936116254,1037563180,24892,15,-0.861083984375,-0.01495361328125,-0.63433837890625
1759936116254,1037563180,24892,16,-0.88671875,-0.07696533203125,-0.41046142578125
1759936116254,1037563180,24892,17,-0.88818359375,0.03314208984375,-0.58258056640625
1759936116254,1037563180,24892,18,-0.89306640625,0.06243896484375,-0.70806884765625
1759936116254,1037563180,24892,19,-0.894775390625,-0.03643798828125,-0.54058837890625
1759936116254,1037563180,24892,20,-0.86572265625,-0.04425048828125,-0.48272705078125
1759936116254,1037563180,24892,21,-0.9228515625,-0.01568603515625,-0.51617431640625
1759936116254,1037563180,24892,22,-0.822509765625,0.05999755859375,-0.62554931640625
1759936116254,1037563180,24892,23,-0.974609375,0.01336669921875,-0.72564697265625
1759936116254,1037563180,24892,24,-0.830078125,-0.01495361328125,-0.54840087890625
1759936116254,1037563180,24892,25,-0.9306640625,-0.00128173828125,-0.52740478515625
1759936116254,1037563180,24892,26,-0.8701171875,0.03753662109375,-0.58648681640625
1759936116254,1037563180,24892,27,-0.8935546875,-0.01373291015625,-0.55963134765625
1759936116254,1037563180,24892,28,-0.898681640625,-0.01739501953125,-0.49224853515625
1759936116254,1037563180,24892,29,-0.896728515625,-0.05548095703125,-0.50299072265625
1759936116254,1037563180,24892,30,-0.845458984375,0.08612060546875,-0.71051025390625
1759936116254,1037563180,24892,31,-0.9072265625,-0.01715087890625,-0.65704345703125
1759936118843,1037565753,24893,0,-0.866943359375,-0.01617431640625,-0.49151611328125
1759936118843,1037565753,24893,1,-0.89892578125,-0.03448486328125,-0.51739501953125
1759936118843,1037565753,24893,2,-0.85595703125,0.04705810546875,-0.64801025390625
1759936118843,1037565753,24893,3,-0.911865234375,0.02947998046875,-0.71026611328125
1759936118843,1037565753,24893,4,-0.873291015625,-0.04473876953125,-0.50274658203125
1759936118843,1037565753,24893,5,-0.875244140625,-0.05670166015625,-0.50543212890625
1759936118843,1037565753,24893,6,-0.89013671875,-0.00177001953125,-0.56085205078125
1759936118843,1037565753,24893,7,-0.838623046875,0.07342529296875,-0.71710205078125
1759936118843,1037565753,24893,8,-0.92333984375,-0.00811767578125,-0.67193603515625
1759936118843,1037565753,24893,9,-0.844482421875,-0.06182861328125,-0.44586181640625
1759936118843,1037565753,24893,10,-0.866455078125,-0.00201416015625,-0.58526611328125
1759936118843,1037565753,24893,11,-0.89453125,0.03558349609375,-0.66070556640625
1759936118843,1037565753,24893,12,-0.9375,0.03338623046875,-0.71392822265625
1759936118843,1037565753,24893,13,-0.798095703125,-0.10943603515625,-0.36016845703125
1759936118843,1037565753,24893,14,-0.9482421875,0.02850341796875,-0.57696533203125
1759936118843,1037565753,24893,15,-0.879638671875,-0.04254150390625,-0.58990478515625
1759936118843,1037565753,24893,16,-0.906982421875,0.02215576171875,-0.59918212890625
1759936118843,1037565753,24893,17,-0.928466796875,-0.03326416015625,-0.55377197265625
1759936118843,1037565753,24893,18,-0.865478515625,0.01409912109375,-0.59503173828125
1759936118843,1037565753,24893,19,-0.869384765625,0.01678466796875,-0.57379150390625
1759936118843,1037565753,24893,20,-0.911376953125,-0.02545166015625,-0.57672119140625
1759936118843,1037565753,24893,21,-0.860107421875,-0.02593994140625,-0.50103759765625
1759936118843,1037565753,24893,22,-0.955078125,-0.05303955078125,-0.51226806640625
1759936118843,1037565753,24893,23,-0.788818359375,0.02996826171875,-0.71441650390625
1759936118843,1037565753,24893,24,-0.947021484375,-0.02667236328125,-0.66021728515625
1759936118843,1037565753,24893,25,-0.853759765625,-0.01348876953125,-0.49908447265625
1759936118843,1037565753,24893,26,-0.88525390625,-0.07672119140625,-0.50225830078125
1759936118843,1037565753,24893,27,-0.865966796875,0.05364990234375,-0.66387939453125
1759936118843,1037565753,24893,28,-0.9072265625,-0.01324462890625,-0.63262939453125
1759936118843,1037565753,24893,29,-0.86279296875,-0.02203369140625,-0.59014892578125
1759936118843,1037565753,24893,30,-0.8828125,-0.05035400390625,-0.47930908203125
1759936118843,1037565753,24893,31,-0.892822265625,-0.03131103515625,-0.56036376953125
1759936121618,1037568326,24894,0,-0.835205078125,0.05047607421875,-0.73223876953125
1759936121618,1037568326,24894,1,-0.904052734375,-0.02496337890625,-0.62310791015625
1759936121618,1037568326,24894,2,-0.8662109375,-0.00201416015625,-0.49200439453125
1759936121618,1037568326,24894,3,-0.84912109375,-0.04400634765625,-0.56158447265625
1759936121618,1037568326,24894,4,-0.869140625,0.05706787109375,-0.68389892578125
1759936121618,1037568326,24894,5,-0.910400390625,0.04803466796875,-0.78350830078125
1759936121618,1037568326,24894,6,-0.794921875,-0.09039306640625,-0.38824462890625
1759936121618,1037568326,24894,7,-0.904296875,0.00994873046875,-0.56671142578125
1759936121618,1037568326,24894,8,-0.894287109375,-0.00347900390625,-0.64654541015625
1759936121618,1037568326,24894,9,-0.828125,0.01092529296875,-0.63970947265625
1759936121618,1037568326,24894,10,-0.9033203125,-0.00494384765625,-0.63165283203125
1759936121618,1037568326,24894,11,-0.8701171875,-0.02374267578125,-0.60479736328125
1759936121618,1037568326,24894,12,-0.8564453125,0.00335693359375,-0.62042236328125
1759936121618,1037568326,24894,13,-0.85791015625,0.01361083984375,-0.63214111328125
1759936121618,1037568326,24894,14,-0.89208984375,-0.00445556640625,-0.64727783203125
1759936121618,1037568326,24894,15,-0.835693359375,-0.04327392578125,-0.45733642578125
1759936121618,1037568326,24894,16,-0.892822265625,-0.02716064453125,-0.53375244140625
1759936121618,1037568326,24894,17,-0.88232421875,0.03778076171875,-0.68414306640625
1759936121618,1037568326,24894,18,-0.884521484375,-0.00909423828125,-0.65289306640625
1759936121618,1037568326,24894,19,-0.859619140625,0.00457763671875,-0.61138916015625
1759936121618,1037568326,24894,20,-0.88134765625,-0.05230712890625,-0.47174072265625
1759936121618,1037568326,24894,21,-0.888427734375,0.00213623046875,-0.60113525390625
1759936121618,1037568326,24894,22,-0.86279296875,0.03631591796875,-0.70806884765625
1759936121618,1037568326,24894,23,-0.86767578125,-0.01763916015625,-0.60455322265625
1759936121618,1037568326,24894,24,-0.8876953125,-0.08526611328125,-0.45098876953125
1759936121618,1037568326,24894,25,-0.91455078125,0.01214599609375,-0.55963134765625
1759936121618,1037568326,24894,26,-0.822265625,0.01678466796875,-0.70196533203125
1759936121618,1037568326,24894,27,-0.91943359375,0.01947021484375,-0.68072509765625
1759936121618,1037568326,24894,28,-0.83935546875,-0.08966064453125,-0.38482666015625
1759936121618,1037568326,24894,29,-0.923828125,0.00408935546875,-0.57476806640625
1759936121618,1037568326,24894,30,-0.878662109375,0.04290771484375,-0.69244384765625
1759936121618,1037568326,24894,31,-0.867431640625,-0.03717041015625,-0.63409423828125
1759936124005,1037570900,24895,0,-0.883544921875,-0.06646728515625,-0.43487548828125
1759936124005,1037570900,24895,1,-0.901123046875,0.01092529296875,-0.60113525390625
1759936124005,1037570900,24895,2,-0.912353515625,-0.02276611328125,-0.60406494140625
1759936124005,1037570900,24895,3,-0.895751953125,0.02191162109375,-0.70220947265625
1759936124005,1037570900,24895,4,-0.8115234375,-0.10650634765625,-0.38995361328125
1759936124005,1037570900,24895,5,-0.934326171875,0.01434326171875,-0.57598876953125
1759936124005,1037570900,24895,6,-0.876708984375,-0.03912353515625,-0.60211181640625
1759936124005,1037570900,24895,7,-0.900634765625,-0.00567626953125,-0.60040283203125
1759936124005,1037570900,24895,8,-0.879638671875,-0.01226806640625,-0.63214111328125
1759936124005,1037570900,24895,9,-0.90380859375,-0.02593994140625,-0.55841064453125
1759936124005,1037570900,24895,10,-0.86865234375,0.01654052734375,-0.60797119140625
1759936124005,1037570900,24895,11,-0.88525390625,0.01287841796875,-0.59967041015625
1759936124005,1037570900,24895,12,-0.87744140625,-0.02178955078125,-0.56573486328125
1759936124005,1037570900,24895,13,-0.914306640625,-0.04864501953125,-0.47955322265625
1759936124005,1037570900,24895,14,-0.88818359375,-0.02471923828125,-0.50909423828125
1759936124005,1037570900,24895,15,-0.864501953125,0.03216552734375,-0.67510986328125
1759936124005,1037570900,24895,16,-0.92529296875,-0.01544189453125,-0.65191650390625
1759936124005,1037570900,24895,17,-0.860595703125,0.00140380859375,-0.51885986328125
1759936124005,1037570900,24895,18,-0.90771484375,-0.05694580078125,-0.51202392578125
1759936124005,1037570900,24895,19,-0.92578125,0.04559326171875,-0.57720947265625
1759936124005,1037570900,24895,20,-0.85595703125,-0.01715087890625,-0.60552978515625
1759936124005,1037570900,24895,21,-0.899658203125,-0.00592041015625,-0.59136962890625
1759936124005,1037570900,24895,22,-0.89208984375,-0.02691650390625,-0.50982666015625
1759936124005,1037570900,24895,23,-0.883544921875,-0.02178955078125,-0.54132080078125
1759936124005,1037570900,24895,24,-0.877685546875,0.01092529296875,-0.63189697265625
1759936124005,1037570900,24895,25,-0.946044921875,-0.01519775390625,-0.64654541015625
1759936124005,1037570900,24895,26,-0.84375,-0.06549072265625,-0.44854736328125
1759936124005,1037570900,24895,27,-0.919189453125,-0.00860595703125,-0.56549072265625
1759936124005,1037570900,24895,28,-0.869873046875,0.01727294921875,-0.63848876953125
1759936124005,1037570900,24895,29,-0.950439453125,-0.01422119140625,-0.65338134765625
1759936124005,1037570900,24895,30,-0.83154296875,-0.08721923828125,-0.35601806640625
1759936124005,1037570900,24895,31,-0.970947265625,0.00238037109375,-0.55401611328125
1759936126589,1037573473,24896,0,-0.839111328125,0.00872802734375,-0.66851806640625
1759936126589,1037573473,24896,1,-0.952392578125,-0.05743408203125,-0.52838134765625
1759936126589,1037573473,24896,2,-0.868408203125,-0.03179931640625,-0.47052001953125
1759936126589,1037573473,24896,3,-0.91357421875,-0.01641845703125,-0.56182861328125
1759936126589,1037573473,24896,4,-0.89501953125,-0.02496337890625,-0.58941650390625
1759936126589,1037573473,24896,5,-0.89892578125,-0.02349853515625,-0.55889892578125
1759936126589,1037573473,24896,6,-0.907958984375,-0.01544189453125,-0.55303955078125
1759936126589,1037573473,24896,7,-0.90234375,-0.01593017578125,-0.58673095703125
1759936126589,1037573473,24896,8,-0.85791015625,0.01068115234375,-0.60333251953125
1759936126589,1037573473,24896,9,-0.9326171875,-0.02691650390625,-0.57598876953125
1759936126589,1037573473,24896,10,-0.890625,-0.03179931640625,-0.47222900390625
1759936126589,1037573473,24896,11,-0.8984375,-0.04888916015625,-0.54302978515625
1759936126589,1037573473,24896,12,-0.867919921875,-0.00811767578125,-0.63751220703125
1759936126589,1037573473,24896,13,-0.918212890625,-0.02056884765625,-0.62066650390625
1759936126589,1037573473,24896,14,-0.859619140625,-0.01373291015625,-0.55841064453125
1759936126589,1037573473,24896,15,-0.90625,-0.06475830078125,-0.49664306640625
1759936126589,1037573473,24896,16,-0.890869140625,0.00238037109375,-0.59991455078125
1759936126589,1037573473,24896,17,-0.883544921875,-0.03521728515625,-0.58697509765625
1759936126589,1037573473,24896,18,-0.88427734375,-0.04693603515625,-0.57086181640625
1759936126589,1037573473,24896,19,-0.873779296875,0.01849365234375,-0.69708251953125
1759936126589,1037573473,24896,20,-0.872314453125,-0.04302978515625,-0.56500244140625
1759936126589,1037573473,24896,21,-0.895263671875,-0.05523681640625,-0.43804931640625
1759936126589,1037573473,24896,22,-0.85986328125,0.01092529296875,-0.67242431640625
1759936126589,1037573473,24896,23,-0.918701171875,0.02508544921875,-0.71148681640625
1759936126589,1037573473,24896,24,-0.8349609375,-0.09698486328125,-0.48101806640625
1759936126589,1037573473,24896,25,-0.8916015625,-0.06842041015625,-0.48004150390625
1759936126589,1037573473,24896,26,-0.83984375,0.07098388671875,-0.74713134765625
1759936126589,1037573473,24896,27,-0.940673828125,-0.01104736328125,-0.70196533203125
1759936126589,1037573473,24896,28,-0.818115234375,-0.13092041015625,-0.31768798828125
1759936126589,1037573473,24896,29,-0.946533203125,0.04949951171875,-0.61627197265625
1759936126589,1037573473,24896,30,-0.840576171875,-0.06329345703125,-0.59136962890625
1759936126589,1037573473,24896,31,-0.906982421875,0.01654052734375,-0.65338134765625
1759936129176,1037576040,24897,0,-0.8935546875,-0.03253173828125,-0.61651611328125
1759936129176,1037576040,24897,1,-0.89111328125,-0.00445556640625,-0.52838134765625
1759936129176,1037576040,24897,2,-0.8994140625,-0.01446533203125,-0.55548095703125
1759936129176,1037576040,24897,3,-0.885498046875,0.03192138671875,-0.60357666015625
1759936129176,1037576040,24897,4,-0.90673828125,-0.02325439453125,-0.56793212890625
1759936129176,1037576040,24897,5,-0.865478515625,-0.08941650390625,-0.44732666015625
1759936129176,1037576040,24897,6,-0.962890625,-0.06304931640625,-0.45977783203125
1759936129176,1037576040,24897,7,-0.781982421875,0.05047607421875,-0.75396728515625
1759936129176,1037576040,24897,8,-0.917724609375,-0.06768798828125,-0.65850830078125
1759936129176,1037576040,24897,9,-0.849365234375,0.00408935546875,-0.60162353515625
1759936129176,1037576040,24897,10,-0.910888671875,-0.07379150390625,-0.49273681640625
1759936129176,1037576040,24897,11,-0.857666015625,0.01434326171875,-0.61407470703125
1759936129176,1037576040,24897,12,-0.884521484375,-0.02423095703125,-0.65924072265625
1759936129176,1037576040,24897,13,-0.862060546875,-0.03887939453125,-0.60357666015625
1759936129176,1037576040,24897,14,-0.89111328125,-0.05572509765625,-0.55523681640625
1759936129176,1037576040,24897,15,-0.87158203125,0.00555419921875,-0.56427001953125
1759936129176,1037576040,24897,16,-0.90576171875,-0.04254150390625,-0.56817626953125
1759936129176,1037576040,24897,17,-0.87744140625,-0.01080322265625,-0.63922119140625
1759936129176,1037576040,24897,18,-0.917724609375,-0.06109619140625,-0.59698486328125
1759936129176,1037576040,24897,19,-0.865966796875,-0.06695556640625,-0.41558837890625
1759936129176,1037576040,24897,20,-0.86572265625,0.01727294921875,-0.63555908203125
1759936129176,1037576040,24897,21,-0.94189453125,-0.01617431640625,-0.62335205078125
1759936129176,1037576040,24897,22,-0.875244140625,-0.02764892578125,-0.65386962890625
1759936129176,1037576040,24897,23,-0.88232421875,-0.11944580078125,-0.40240478515625
1759936129176,1037576040,24897,24,-0.876953125,0.03436279296875,-0.56744384765625
1759936129176,1037576040,24897,25,-0.896728515625,-0.03912353515625,-0.60235595703125
1759936129176,1037576040,24897,26,-0.8642578125,-0.01568603515625,-0.61700439453125
1759936129176,1037576040,24897,27,-0.90966796875,-0.07135009765625,-0.60919189453125
1759936129176,1037576040,24897,28,-0.890380859375,0.00970458984375,-0.61383056640625
1759936129176,1037576040,24897,29,-0.88720703125,-0.05645751953125,-0.55133056640625
1759936129176,1037576040,24897,30,-0.872802734375,-0.01324462890625,-0.58209228515625
1759936129176,1037576040,24897,31,-0.87646484375,0.00775146484375,-0.61895751953125
1759936131758,1037578613,24898,0,-0.909912109375,-0.03497314453125,-0.57403564453125
1759936131758,1037578613,24898,1,-0.859130859375,-0.02423095703125,-0.56134033203125
1759936131758,1037578613,24898,2,-0.8984375,-0.02935791015625,-0.63140869140625
1759936131758,1037578613,24898,3,-0.858642578125,-0.05572509765625,-0.53961181640625
1759936131758,1037578613,24898,4,-0.836181640625,-0.01226806640625,-0.58404541015625
1759936131758,1037578613,24898,5,-0.886474609375,-0.00054931640625,-0.65802001953125
1759936131758,1037578613,24898,6,-0.871826171875,0.00604248046875,-0.70855712890625
1759936131758,1037578613,24898,7,-0.857666015625,-0.06988525390625,-0.56549072265625
1759936131758,1037578613,24898,8,-0.82080078125,0.00433349609375,-0.55303955078125
1759936131758,1037578613,24898,9,-0.905029296875,-0.03985595703125,-0.60943603515625
1759936131758,1037578613,24898,10,-0.809326171875,0.01580810546875,-0.68951416015625
1759936131758,1037578613,24898,11,-0.920654296875,-0.08062744140625,-0.70001220703125
1759936131758,1037578613,24898,12,-0.78173828125,-0.00152587890625,-0.54449462890625
1759936131758,1037578613,24898,13,-0.887939453125,-0.04791259765625,-0.58477783203125
1759936131758,1037578613,24898,14,-0.82275390625,-0.00738525390625,-0.61309814453125
1759936131758,1037578613,24898,15,-0.888671875,-0.01690673828125,-0.71270751953125
1759936131758,1037578613,24898,16,-0.87451171875,-0.08892822265625,-0.64898681640625
1759936131758,1037578613,24898,17,-0.827880859375,0.04144287109375,-0.59478759765625
1759936131758,1037578613,24898,18,-0.841552734375,-0.10919189453125,-0.59356689453125
1759936131758,1037578613,24898,19,-0.83251953125,0.05291748046875,-0.60992431640625
1759936131758,1037578613,24898,20,-0.933349609375,-0.08843994140625,-0.67706298828125
1759936131758,1037578613,24898,21,-0.863525390625,-0.02789306640625,-0.64068603515625
1759936131758,1037578613,24898,22,-0.805419921875,-0.02764892578125,-0.54595947265625
1759936131758,1037578613,24898,23,-0.911376953125,-0.07354736328125,-0.53961181640625
1759936131758,1037578613,24898,24,-0.82568359375,0.03729248046875,-0.60040283203125
1759936131758,1037578613,24898,25,-0.91650390625,-0.07135009765625,-0.59503173828125
1759936131758,1037578613,24898,26,-0.87890625,-0.03350830078125,-0.62408447265625
1759936131758,1037578613,24898,27,-0.8994140625,0.00311279296875,-0.60675048828125
1759936131758,1037578613,24898,28,-0.885498046875,-0.02789306640625,-0.57916259765625
1759936131758,1037578613,24898,29,-0.888427734375,-0.01226806640625,-0.62896728515625
1759936131758,1037578613,24898,30,-0.8955078125,0.00750732421875,-0.63531494140625
1759936131758,1037578613,24898,31,-0.875244140625,-0.05157470703125,-0.54400634765625
1759936134341,1037581186,24899,0,-0.89599609375,-0.02032470703125,-0.55279541015625
1759936134341,1037581186,24899,1,-0.890380859375,-0.03204345703125,-0.56915283203125
1759936134341,1037581186,24899,2,-0.896728515625,-0.04742431640625,-0.58135986328125
1759936134341,1037581186,24899,3,-0.849609375,0.00506591796875,-0.53936767578125
1759936134341,1037581186,24899,4,-0.912353515625,-0.06085205078125,-0.53350830078125
1759936134341,1037581186,24899,5,-0.86962890625,0.04608154296875,-0.62725830078125
1759936134341,1037581186,24899,6,-0.89208984375,-0.06768798828125,-0.66680908203125
1759936134341,1037581186,24899,7,-0.849609375,-0.04205322265625,-0.53936767578125
1759936134341,1037581186,24899,8,-0.86767578125,-0.03887939453125,-0.56793212890625
1759936134341,1037581186,24899,9,-0.858154296875,-0.03472900390625,-0.59381103515625
1759936134341,1037581186,24899,10,-0.88525390625,0.04705810546875,-0.68707275390625
1759936134341,1037581186,24899,11,-0.895263671875,-0.08843994140625,-0.66534423828125
1759936134341,1037581186,24899,12,-0.8369140625,-0.02008056640625,-0.54425048828125
1759936134341,1037581186,24899,13,-0.8759765625,-0.06182861328125,-0.56622314453125
1759936134341,1037581186,24899,14,-0.848876953125,-0.00860595703125,-0.60699462890625
1759936134341,1037581186,24899,15,-0.880859375,0.01776123046875,-0.67633056640625
1759936134341,1037581186,24899,16,-0.89501953125,-0.09210205078125,-0.63043212890625
1759936134341,1037581186,24899,17,-0.8515625,-0.04669189453125,-0.57379150390625
1759936134341,1037581186,24899,18,-0.8525390625,-0.01422119140625,-0.52789306640625
1759936134341,1037581186,24899,19,-0.869140625,-0.05596923828125,-0.63775634765625
1759936134341,1037581186,24899,20,-0.840576171875,0.01751708984375,-0.63458251953125
1759936134341,1037581186,24899,21,-0.912841796875,-0.07940673828125,-0.64532470703125
1759936134341,1037581186,24899,22,-0.866943359375,-0.00347900390625,-0.66485595703125
1759936134341,1037581186,24899,23,-0.817626953125,-0.04010009765625,-0.52813720703125
1759936134341,1037581186,24899,24,-0.897705078125,-0.07501220703125,-0.57501220703125
1759936134341,1037581186,24899,25,-0.829345703125,0.01751708984375,-0.57623291015625
1759936134341,1037581186,24899,26,-0.904052734375,-0.07525634765625,-0.58770751953125
1759936134341,1037581186,24899,27,-0.89111328125,-0.00933837890625,-0.66851806640625
1759936134341,1037581186,24899,28,-0.89453125,0.01043701171875,-0.58306884765625
1759936134341,1037581186,24899,29,-0.89892578125,-0.03204345703125,-0.55572509765625
1759936134341,1037581186,24899,30,-0.905029296875,0.05828857421875,-0.66436767578125
1759936134341,1037581186,24899,31,-0.8701171875,-0.02960205078125,-0.54718017578125
1759936136925,1037583759,24900,0,-0.91015625,-0.00762939453125,-0.60821533203125
1759936136925,1037583759,24900,1,-0.904052734375,-0.07452392578125,-0.49102783203125
1759936136925,1037583759,24900,2,-0.861083984375,0.00286865234375,-0.57232666015625
1759936136925,1037583759,24900,3,-0.87060546875,-0.06817626953125,-0.58355712890625
1759936136925,1037583759,24900,4,-0.897216796875,-0.00152587890625,-0.56353759765625
1759936136925,1037583759,24900,5,-0.900146484375,-0.09918212890625,-0.52203369140625
