receivedPhoneTimestamp,respeckTimestamp,packetSeqNum,sampleSeqNum,accelX,accelY,accelZ
1759669547469,797569475,6382,9,0.810791015625,-0.04425048828125,0.51287841796875
1759669547469,797569475,6382,10,0.738037109375,-0.02642822265625,0.51190185546875
1759669547469,797569475,6382,11,0.78369140625,-0.08282470703125,0.53509521484375
1759669547469,797569475,6382,12,0.795654296875,-0.04864501953125,0.49310302734375
1759669547469,797569475,6382,13,0.787353515625,-0.03668212890625,0.47259521484375
1759669547469,797569475,6382,14,0.775146484375,-0.07574462890625,0.50311279296875
1759669547469,797569475,6382,15,0.77734375,-0.05841064453125,0.54437255859375
1759669547469,797569475,6382,16,0.76611328125,-0.04449462890625,0.53875732421875
1759669547469,797569475,6382,17,0.750732421875,-0.01544189453125,0.53045654296875
1759669547469,797569475,6382,18,0.7275390625,-0.10162353515625,0.61566162109375
1759669547469,797569475,6382,19,0.708740234375,-0.10919189453125,0.55364990234375
1759669547469,797569475,6382,20,0.77685546875,-0.06671142578125,0.53143310546875
1759669547469,797569475,6382,21,0.797119140625,-0.00128173828125,0.49774169921875
1759669547469,797569475,6382,22,0.741455078125,-0.01861572265625,0.58782958984375
1759669547469,797569475,6382,23,0.67724609375,-0.04473876953125,0.60443115234375
1759669547469,797569475,6382,24,0.710693359375,-0.10748291015625,0.57196044921875
1759669547469,797569475,6382,25,0.779541015625,-0.05133056640625,0.54705810546875
1759669547469,797569475,6382,26,0.790283203125,-0.03668212890625,0.56268310546875
1759669547469,797569475,6382,27,0.719970703125,-0.02325439453125,0.56927490234375
1759669547469,797569475,6382,28,0.71630859375,-0.02618408203125,0.58099365234375
1759669547469,797569475,6382,29,0.738037109375,-0.04815673828125,0.58563232421875
1759669547469,797569475,6382,30,0.746826171875,-0.04669189453125,0.54705810546875
1759669547469,797569475,6382,31,0.755615234375,-0.03887939453125,0.53094482421875
1759669550016,797572054,6383,0,0.72119140625,-0.01397705078125,0.59368896484375
1759669550016,797572054,6383,1,0.67236328125,-0.05938720703125,0.59564208984375
1759669550016,797572054,6383,2,0.6435546875,-0.06890869140625,0.63934326171875
1759669550016,797572054,6383,3,0.793212890625,-0.04718017578125,0.58538818359375
1759669550016,797572054,6383,4,0.85205078125,-0.01324462890625,0.53802490234375
1759669550016,797572054,6383,5,0.71728515625,-0.01568603515625,0.52947998046875
1759669550016,797572054,6383,6,0.759033203125,-0.04595947265625,0.53900146484375
1759669550016,797572054,6383,7,0.806640625,-0.06939697265625,0.53973388671875
1759669550016,797572054,6383,8,0.76904296875,-0.09307861328125,0.49066162109375
1759669550016,797572054,6383,9,0.779541015625,-0.09503173828125,0.50213623046875
1759669550016,797572054,6383,10,0.781005859375,-0.09185791015625,0.50433349609375
1759669550016,797572054,6383,11,0.7548828125,-0.08917236328125,0.49920654296875
1759669550016,797572054,6383,12,0.74560546875,-0.07867431640625,0.50164794921875
1759669550016,797572054,6383,13,0.782958984375,-0.11090087890625,0.48406982421875
1759669550016,797572054,6383,14,0.86669921875,-0.04473876953125,0.48260498046875
1759669550016,797572054,6383,15,0.7646484375,-0.01422119140625,0.53875732421875
1759669550016,797572054,6383,16,0.72265625,-0.05181884765625,0.58807373046875
1759669550016,797572054,6383,17,0.661376953125,-0.07330322265625,0.66033935546875
1759669550016,797572054,6383,18,0.7958984375,-0.07208251953125,0.53167724609375
1759669550016,797572054,6383,19,0.793701171875,-0.04034423828125,0.52435302734375
1759669550016,797572054,6383,20,0.77880859375,-0.01519775390625,0.50994873046875
1759669550016,797572054,6383,21,0.78076171875,0.02069091796875,0.62542724609375
1759669550016,797572054,6383,22,0.5576171875,-0.03570556640625,0.61688232421875
1759669550016,797572054,6383,23,0.665283203125,-0.12237548828125,0.65374755859375
1759669550016,797572054,6383,24,0.62548828125,-0.05621337890625,0.64471435546875
1759669550016,797572054,6383,25,0.719970703125,-0.06793212890625,0.66302490234375
1759669550016,797572054,6383,26,0.703369140625,-0.05010986328125,0.63665771484375
1759669550016,797572054,6383,27,0.693359375,-0.04205322265625,0.60467529296875
1759669550016,797572054,6383,28,0.69775390625,-0.05181884765625,0.58123779296875
1759669550016,797572054,6383,29,0.71875,-0.04986572265625,0.57318115234375
1759669550016,797572054,6383,30,0.74658203125,-0.07257080078125,0.57025146484375
1759669550016,797572054,6383,31,0.75048828125,-0.07647705078125,0.58709716796875
1759669552716,797574634,6384,0,0.7080078125,-0.01666259765625,0.57391357421875
1759669552716,797574634,6384,1,0.748046875,-0.02716064453125,0.60833740234375
1759669552716,797574634,6384,2,0.705810546875,-0.05792236328125,0.62176513671875
1759669552716,797574634,6384,3,0.7021484375,-0.07794189453125,0.58514404296875
1759669552716,797574634,6384,4,0.74365234375,-0.04669189453125,0.58587646484375
1759669552716,797574634,6384,5,0.6845703125,-0.02301025390625,0.58807373046875
1759669552716,797574634,6384,6,0.7158203125,-0.02862548828125,0.64569091796875
1759669552716,797574634,6384,7,0.727294921875,-0.01959228515625,0.60028076171875
1759669552716,797574634,6384,8,0.67578125,-0.08013916015625,0.61224365234375
1759669552716,797574634,6384,9,0.6728515625,-0.07647705078125,0.62225341796875
1759669552716,797574634,6384,10,0.730224609375,-0.05889892578125,0.62640380859375
1759669552716,797574634,6384,11,0.6767578125,-0.02227783203125,0.61517333984375
1759669552716,797574634,6384,12,0.66943359375,-0.04156494140625,0.60491943359375
1759669552716,797574634,6384,13,0.67626953125,-0.03350830078125,0.68890380859375
1759669552716,797574634,6384,14,0.732177734375,-0.06231689453125,0.58734130859375
1759669552716,797574634,6384,15,0.677978515625,-0.04962158203125,0.58489990234375
1759669552716,797574634,6384,16,0.74755859375,-0.06182861328125,0.63665771484375
1759669552716,797574634,6384,17,0.698486328125,-0.04400634765625,0.58489990234375
1759669552716,797574634,6384,18,0.711181640625,-0.04766845703125,0.58587646484375
1759669552716,797574634,6384,19,0.760986328125,-0.06109619140625,0.57366943359375
1759669552716,797574634,6384,20,0.745849609375,-0.07183837890625,0.56146240234375
1759669552716,797574634,6384,21,0.753662109375,-0.08306884765625,0.55584716796875
1759669552716,797574634,6384,22,0.765869140625,-0.07183837890625,0.54998779296875
1759669552716,797574634,6384,23,0.758056640625,-0.07403564453125,0.53338623046875
1759669552716,797574634,6384,24,0.74462890625,-0.06182861328125,0.51483154296875
1759669552716,797574634,6384,25,0.746826171875,-0.08087158203125,0.52996826171875
1759669552716,797574634,6384,26,0.78759765625,-0.07843017578125,0.57342529296875
1759669552716,797574634,6384,27,0.7587890625,-0.04498291015625,0.56195068359375
1759669552716,797574634,6384,28,0.752197265625,-0.04376220703125,0.54901123046875
1759669552716,797574634,6384,29,0.734130859375,-0.06915283203125,0.56854248046875
1759669552716,797574634,6384,30,0.735107421875,-0.05792236328125,0.59051513671875
1759669552716,797574634,6384,31,0.69921875,-0.06988525390625,0.57025146484375
1759669555265,797577213,6385,0,0.7509765625,-0.03009033203125,0.57513427734375
1759669555265,797577213,6385,1,0.63232421875,-0.06182861328125,0.64422607421875
1759669555265,797577213,6385,2,0.664794921875,-0.09381103515625,0.60931396484375
1759669555265,797577213,6385,3,0.746826171875,-0.04962158203125,0.61224365234375
1759669555265,797577213,6385,4,0.785400390625,-0.01202392578125,0.55096435546875
1759669555265,797577213,6385,5,0.83935546875,0.01214599609375,0.48211669921875
1759669555265,797577213,6385,6,0.677734375,-0.00592041015625,0.62542724609375
1759669555265,797577213,6385,7,0.692626953125,-0.06890869140625,0.59295654296875
1759669555265,797577213,6385,8,0.714111328125,-0.05841064453125,0.55413818359375
1759669555265,797577213,6385,9,0.77294921875,-0.05255126953125,0.59759521484375
1759669555265,797577213,6385,10,0.71630859375,-0.05426025390625,0.58489990234375
1759669555265,797577213,6385,11,0.720458984375,-0.06231689453125,0.57366943359375
1759669555265,797577213,6385,12,0.759521484375,-0.04742431640625,0.53094482421875
1759669555265,797577213,6385,13,0.8125,-0.04058837890625,0.48846435546875
1759669555265,797577213,6385,14,0.78759765625,-0.04522705078125,0.48724365234375
1759669555265,797577213,6385,15,0.79296875,-0.07745361328125,0.50994873046875
1759669555265,797577213,6385,16,0.79150390625,-0.08453369140625,0.50213623046875
1759669555265,797577213,6385,17,0.7978515625,-0.08795166015625,0.49066162109375
1759669555265,797577213,6385,18,0.80029296875,-0.08551025390625,0.48529052734375
1759669555265,797577213,6385,19,0.762451171875,-0.07183837890625,0.50604248046875
1759669555265,797577213,6385,20,0.7431640625,-0.10943603515625,0.48773193359375
1759669555265,797577213,6385,21,0.820556640625,-0.05767822265625,0.52752685546875
1759669555265,797577213,6385,22,0.7744140625,-0.02496337890625,0.50213623046875
1759669555265,797577213,6385,23,0.7646484375,-0.04888916015625,0.57147216796875
1759669555265,797577213,6385,24,0.71484375,-0.07794189453125,0.58734130859375
1759669555265,797577213,6385,25,0.717041015625,-0.13214111328125,0.58807373046875
1759669555265,797577213,6385,26,0.738037109375,-0.04351806640625,0.56170654296875
1759669555265,797577213,6385,27,0.7333984375,-0.05084228515625,0.58465576171875
1759669555265,797577213,6385,28,0.69189453125,-0.00885009765625,0.60614013671875
1759669555265,797577213,6385,29,0.651611328125,-0.04644775390625,0.62738037109375
1759669555265,797577213,6385,30,0.681884765625,-0.10064697265625,0.63128662109375
1759669555265,797577213,6385,31,0.73388671875,-0.06646728515625,0.59710693359375
1759669557817,797579792,6386,0,0.720703125,-0.04327392578125,0.60565185546875
1759669557817,797579792,6386,1,0.73681640625,-0.04205322265625,0.57781982421875
1759669557817,797579792,6386,2,0.74755859375,-0.04449462890625,0.55877685546875
1759669557817,797579792,6386,3,0.760009765625,-0.06231689453125,0.53070068359375
1759669557817,797579792,6386,4,0.7666015625,-0.05255126953125,0.51165771484375
1759669557817,797579792,6386,5,0.7734375,-0.06109619140625,0.53143310546875
1759669557817,797579792,6386,6,0.7744140625,-0.06915283203125,0.51068115234375
1759669557817,797579792,6386,7,0.777099609375,-0.05548095703125,0.48260498046875
1759669557817,797579792,6386,8,0.811767578125,-0.06646728515625,0.49481201171875
1759669557817,797579792,6386,9,0.81494140625,-0.07476806640625,0.47210693359375
1759669557817,797579792,6386,10,0.80078125,-0.07208251953125,0.47479248046875
1759669557817,797579792,6386,11,0.754150390625,-0.06353759765625,0.47283935546875
1759669557817,797579792,6386,12,0.818115234375,-0.10455322265625,0.48968505859375
1759669557817,797579792,6386,13,0.824951171875,-0.05938720703125,0.48822021484375
1759669557817,797579792,6386,14,0.748046875,-0.02569580078125,0.50970458984375
1759669557817,797579792,6386,15,0.734375,-0.09991455078125,0.60931396484375
1759669557817,797579792,6386,16,0.7451171875,-0.08111572265625,0.54608154296875
1759669557817,797579792,6386,17,0.779052734375,-0.05670166015625,0.50897216796875
1759669557817,797579792,6386,18,0.73876953125,-0.01861572265625,0.59930419921875
1759669557817,797579792,6386,19,0.658203125,-0.03546142578125,0.60760498046875
1759669557817,797579792,6386,20,0.72509765625,-0.07745361328125,0.59857177734375
1759669557817,797579792,6386,21,0.752685546875,-0.03521728515625,0.56243896484375
1759669557817,797579792,6386,22,0.774169921875,-0.00665283203125,0.58709716796875
1759669557817,797579792,6386,23,0.666259765625,0.02362060546875,0.63079833984375
1759669557817,797579792,6386,24,0.665283203125,-0.05230712890625,0.59857177734375
1759669557817,797579792,6386,25,0.709228515625,-0.08258056640625,0.57562255859375
1759669557817,797579792,6386,26,0.765625,-0.06671142578125,0.56072998046875
1759669557817,797579792,6386,27,0.76171875,-0.00494384765625,0.54022216796875
1759669557817,797579792,6386,28,0.73974609375,-0.00225830078125,0.58294677734375
1759669557817,797579792,6386,29,0.758056640625,0.00018310546875,0.54876708984375
1759669557817,797579792,6386,30,0.76611328125,-0.02008056640625,0.54071044921875
1759669557817,797579792,6386,31,0.7783203125,-0.04840087890625,0.53729248046875
1759669560365,797582371,6387,0,0.7724609375,-0.05352783203125,0.52825927734375
1759669560365,797582371,6387,1,0.76513671875,-0.06475830078125,0.54046630859375
1759669560365,797582371,6387,2,0.7509765625,-0.06036376953125,0.52532958984375
1759669560365,797582371,6387,3,0.774658203125,-0.06036376953125,0.52850341796875
1759669560365,797582371,6387,4,0.768798828125,-0.06280517578125,0.52215576171875
1759669560365,797582371,6387,5,0.75244140625,-0.06109619140625,0.49847412109375
1759669560365,797582371,6387,6,0.773681640625,-0.10675048828125,0.53338623046875
1759669560365,797582371,6387,7,0.782958984375,-0.03472900390625,0.52850341796875
1759669560365,797582371,6387,8,0.771484375,-0.03375244140625,0.55853271484375
1759669560365,797582371,6387,9,0.71142578125,-0.05792236328125,0.60443115234375
1759669560365,797582371,6387,10,0.678466796875,-0.09503173828125,0.62176513671875
1759669560365,797582371,6387,11,0.7490234375,-0.06597900390625,0.57440185546875
1759669560365,797582371,6387,12,0.742431640625,-0.03912353515625,0.57489013671875
1759669560365,797582371,6387,13,0.75341796875,-0.01910400390625,0.53216552734375
1759669560365,797582371,6387,14,0.677001953125,0.01019287109375,0.68206787109375
1759669560365,797582371,6387,15,0.65283203125,-0.08160400390625,0.63714599609375
1759669560365,797582371,6387,16,0.636474609375,-0.09161376953125,0.60784912109375
1759669560365,797582371,6387,17,0.78125,-0.06744384765625,0.61322021484375
1759669560365,797582371,6387,18,0.765380859375,-0.02032470703125,0.55682373046875
1759669560365,797582371,6387,19,0.7412109375,-0.03375244140625,0.54217529296875
1759669560365,797582371,6387,20,0.74365234375,-0.03814697265625,0.54754638671875
1759669560365,797582371,6387,21,0.765380859375,-0.05938720703125,0.51434326171875
1759669560365,797582371,6387,22,0.774169921875,-0.05889892578125,0.50994873046875
1759669560365,797582371,6387,23,0.773681640625,-0.05938720703125,0.52142333984375
1759669560365,797582371,6387,24,0.75341796875,-0.04058837890625,0.53240966796875
1759669560365,797582371,6387,25,0.749267578125,-0.06622314453125,0.48040771484375
1759669560365,797582371,6387,26,0.837646484375,-0.06622314453125,0.47967529296875
1759669560365,797582371,6387,27,0.861083984375,-0.10089111328125,0.49066162109375
1759669560365,797582371,6387,28,0.768798828125,-0.06964111328125,0.48187255859375
1759669560365,797582371,6387,29,0.79052734375,-0.02178955078125,0.47894287109375
1759669560365,797582371,6387,30,0.770263671875,-0.06304931640625,0.54217529296875
1759669560365,797582371,6387,31,0.802734375,-0.04840087890625,0.49456787109375
1759669562917,797584950,6388,0,0.78662109375,-0.02496337890625,0.48675537109375
1759669562917,797584950,6388,1,0.82421875,-0.03106689453125,0.47137451171875
1759669562917,797584950,6388,2,0.751953125,0.02606201171875,0.57489013671875
1759669562917,797584950,6388,3,0.71728515625,-0.07550048828125,0.56048583984375
1759669562917,797584950,6388,4,0.756103515625,-0.06158447265625,0.53094482421875
1759669562917,797584950,6388,5,0.804931640625,-0.01544189453125,0.49237060546875
1759669562917,797584950,6388,6,0.72705078125,-0.00201416015625,0.57928466796875
1759669562917,797584950,6388,7,0.682373046875,-0.03546142578125,0.59539794921875
1759669562917,797584950,6388,8,0.696044921875,-0.07672119140625,0.60540771484375
1759669562917,797584950,6388,9,0.800537109375,-0.01910400390625,0.54388427734375
1759669562917,797584950,6388,10,0.78955078125,-0.02203369140625,0.50897216796875
1759669562917,797584950,6388,11,0.74365234375,-0.03790283203125,0.55145263671875
1759669562917,797584950,6388,12,0.745361328125,-0.06256103515625,0.55194091796875
1759669562917,797584950,6388,13,0.78173828125,-0.07794189453125,0.52777099609375
1759669562917,797584950,6388,14,0.788330078125,-0.04620361328125,0.50262451171875
1759669562917,797584950,6388,15,0.77197265625,-0.04986572265625,0.53070068359375
1759669562917,797584950,6388,16,0.76806640625,-0.08087158203125,0.52532958984375
1759669562917,797584950,6388,17,0.76171875,-0.08184814453125,0.50897216796875
1759669562917,797584950,6388,18,0.77490234375,-0.07843017578125,0.51019287109375
1759669562917,797584950,6388,19,0.7744140625,-0.08111572265625,0.51336669921875
1759669562917,797584950,6388,20,0.771728515625,-0.07843017578125,0.51702880859375
1759669562917,797584950,6388,21,0.775146484375,-0.07574462890625,0.51312255859375
1759669562917,797584950,6388,22,0.7490234375,-0.05523681640625,0.52117919921875
1759669562917,797584950,6388,23,0.747314453125,-0.11773681640625,0.50775146484375
1759669562917,797584950,6388,24,0.8349609375,-0.07403564453125,0.55072021484375
1759669562917,797584950,6388,25,0.75634765625,-0.02081298828125,0.47894287109375
1759669562917,797584950,6388,26,0.72265625,-0.04595947265625,0.59686279296875
1759669562917,797584950,6388,27,0.747314453125,-0.11846923828125,0.61322021484375
1759669562917,797584950,6388,28,0.72509765625,-0.04937744140625,0.53900146484375
1759669562917,797584950,6388,29,0.79541015625,-0.05816650390625,0.53240966796875
1759669562917,797584950,6388,30,0.6845703125,-0.02203369140625,0.65570068359375
1759669562917,797584950,6388,31,0.6533203125,-0.05206298828125,0.59686279296875
1759669565616,797587529,6389,0,0.708984375,-0.08892822265625,0.59930419921875
1759669565616,797587529,6389,1,0.769287109375,-0.07647705078125,0.57464599609375
1759669565616,797587529,6389,2,0.74951171875,-0.06427001953125,0.58416748046875
1759669565616,797587529,6389,3,0.728515625,-0.03546142578125,0.58831787109375
1759669565616,797587529,6389,4,0.73974609375,-0.02374267578125,0.56048583984375
1759669565616,797587529,6389,5,0.77294921875,-0.05474853515625,0.52630615234375
1759669565616,797587529,6389,6,0.748291015625,-0.07379150390625,0.54022216796875
1759669565616,797587529,6389,7,0.735107421875,-0.08843994140625,0.57318115234375
1759669565616,797587529,6389,8,0.73046875,-0.07794189453125,0.55291748046875
1759669565616,797587529,6389,9,0.741455078125,-0.09112548828125,0.55218505859375
1759669565616,797587529,6389,10,0.722900390625,-0.10211181640625,0.57098388671875
1759669565616,797587529,6389,11,0.729248046875,-0.09527587890625,0.57635498046875
1759669565616,797587529,6389,12,0.720703125,-0.11138916015625,0.57855224609375
1759669565616,797587529,6389,13,0.730712890625,-0.11212158203125,0.57269287109375
1759669565616,797587529,6389,14,0.765869140625,-0.10992431640625,0.55633544921875
1759669565616,797587529,6389,15,0.74609375,-0.09576416015625,0.55804443359375
1759669565616,797587529,6389,16,0.73486328125,-0.09649658203125,0.56170654296875
1759669565616,797587529,6389,17,0.740234375,-0.10968017578125,0.56854248046875
1759669565616,797587529,6389,18,0.737060546875,-0.10089111328125,0.56781005859375
1759669565616,797587529,6389,19,0.73291015625,-0.09307861328125,0.57733154296875
1759669565616,797587529,6389,20,0.741943359375,-0.07769775390625,0.57733154296875
1759669565616,797587529,6389,21,0.731201171875,-0.07550048828125,0.57244873046875
1759669565616,797587529,6389,22,0.748291015625,-0.08209228515625,0.54705810546875
1759669565616,797587529,6389,23,0.6982421875,-0.07965087890625,0.60125732421875
1759669565616,797587529,6389,24,0.73193359375,-0.05035400390625,0.58782958984375
1759669565616,797587529,6389,25,0.734375,-0.07501220703125,0.55242919921875
1759669565616,797587529,6389,26,0.6845703125,-0.03009033203125,0.66204833984375
1759669565616,797587529,6389,27,0.64453125,-0.07550048828125,0.65521240234375
1759669565616,797587529,6389,28,0.711669921875,-0.07525634765625,0.59466552734375
1759669565616,797587529,6389,29,0.740234375,-0.04840087890625,0.56878662109375
1759669565616,797587529,6389,30,0.654052734375,-0.01690673828125,0.64007568359375
1759669565616,797587529,6389,31,0.64599609375,-0.05938720703125,0.64764404296875
1759669568166,797590108,6390,0,0.678466796875,-0.07354736328125,0.65765380859375
1759669568166,797590108,6390,1,0.726806640625,-0.08013916015625,0.64007568359375
1759669568166,797590108,6390,2,0.70654296875,-0.03814697265625,0.60345458984375
1759669568166,797590108,6390,3,0.70947265625,-0.06011962890625,0.62005615234375
1759669568166,797590108,6390,4,0.717529296875,-0.06915283203125,0.60223388671875
1759669568166,797590108,6390,5,0.72998046875,-0.08746337890625,0.58172607421875
1759669568166,797590108,6390,6,0.728515625,-0.09185791015625,0.57342529296875
1759669568166,797590108,6390,7,0.709228515625,-0.07720947265625,0.58709716796875
1759669568166,797590108,6390,8,0.7421875,-0.08184814453125,0.56732177734375
1759669568166,797590108,6390,9,0.709228515625,-0.06768798828125,0.59613037109375
1759669568166,797590108,6390,10,0.720703125,-0.04034423828125,0.59832763671875
1759669568166,797590108,6390,11,0.734375,-0.04937744140625,0.58245849609375
1759669568166,797590108,6390,12,0.7294921875,-0.04254150390625,0.58856201171875
1759669568166,797590108,6390,13,0.675048828125,-0.06866455078125,0.70501708984375
1759669568166,797590108,6390,14,0.62109375,-0.10455322265625,0.64154052734375
1759669568166,797590108,6390,15,0.68505859375,-0.06475830078125,0.63006591796875
1759669568166,797590108,6390,16,0.717529296875,-0.06353759765625,0.61029052734375
1759669568166,797590108,6390,17,0.655517578125,-0.00103759765625,0.69989013671875
1759669568166,797590108,6390,18,0.556640625,-0.07354736328125,0.70208740234375
1759669568166,797590108,6390,19,0.613525390625,-0.10235595703125,0.67181396484375
1759669568166,797590108,6390,20,0.72705078125,-0.06915283203125,0.61688232421875
1759669568166,797590108,6390,21,0.757080078125,-0.01739501953125,0.59588623046875
1759669568166,797590108,6390,22,0.71435546875,-0.04083251953125,0.62591552734375
1759669568166,797590108,6390,23,0.7001953125,-0.06573486328125,0.62664794921875
1759669568166,797590108,6390,24,0.71435546875,-0.08111572265625,0.59930419921875
1759669568166,797590108,6390,25,0.706298828125,-0.09454345703125,0.59661865234375
1759669568166,797590108,6390,26,0.70654296875,-0.09527587890625,0.62152099609375
1759669568166,797590108,6390,27,0.683837890625,-0.08843994140625,0.61737060546875
1759669568166,797590108,6390,28,0.68115234375,-0.06915283203125,0.60101318359375
1759669568166,797590108,6390,29,0.67822265625,-0.10284423828125,0.59173583984375
1759669568166,797590108,6390,30,0.7314453125,-0.11065673828125,0.65692138671875
1759669568166,797590108,6390,31,0.740478515625,-0.04473876953125,0.57635498046875
1759669570718,797592687,6391,0,0.669677734375,-0.04766845703125,0.61419677734375
1759669570718,797592687,6391,1,0.65625,-0.08209228515625,0.69744873046875
1759669570718,797592687,6391,2,0.64306640625,-0.10382080078125,0.65789794921875
1759669570718,797592687,6391,3,0.70068359375,-0.06500244140625,0.62689208984375
1759669570718,797592687,6391,4,0.6669921875,-0.04083251953125,0.62445068359375
1759669570718,797592687,6391,5,0.61669921875,-0.05889892578125,0.68914794921875
1759669570718,797592687,6391,6,0.681396484375,-0.09576416015625,0.66082763671875
1759669570718,797592687,6391,7,0.703369140625,-0.06475830078125,0.61956787109375
1759669570718,797592687,6391,8,0.739013671875,-0.03643798828125,0.57928466796875
1759669570718,797592687,6391,9,0.632568359375,0.00531005859375,0.70501708984375
1759669570718,797592687,6391,10,0.63671875,-0.06890869140625,0.67059326171875
1759669570718,797592687,6391,11,0.589599609375,-0.06768798828125,0.64739990234375
1759669570718,797592687,6391,12,0.722900390625,-0.11676025390625,0.68963623046875
1759669570718,797592687,6391,13,0.66064453125,-0.04840087890625,0.65521240234375
1759669570718,797592687,6391,14,0.729736328125,-0.05474853515625,0.64495849609375
1759669570718,797592687,6391,15,0.656005859375,-0.03228759765625,0.62225341796875
1759669570718,797592687,6391,16,0.712890625,-0.04718017578125,0.57611083984375
1759669570718,797592687,6391,17,0.744384765625,-0.07232666015625,0.59466552734375
1759669570718,797592687,6391,18,0.71240234375,-0.08135986328125,0.58685302734375
1759669570718,797592687,6391,19,0.720947265625,-0.08380126953125,0.59197998046875
1759669570718,797592687,6391,20,0.71923828125,-0.08404541015625,0.58978271484375
1759669570718,797592687,6391,21,0.718017578125,-0.09136962890625,0.57269287109375
1759669570718,797592687,6391,22,0.732666015625,-0.10894775390625,0.58416748046875
1759669570718,797592687,6391,23,0.736083984375,-0.10015869140625,0.57708740234375
1759669570718,797592687,6391,24,0.731689453125,-0.08990478515625,0.55682373046875
1759669570718,797592687,6391,25,0.70654296875,-0.07574462890625,0.56463623046875
1759669570718,797592687,6391,26,0.74072265625,-0.11846923828125,0.57098388671875
1759669570718,797592687,6391,27,0.737060546875,-0.05792236328125,0.60028076171875
1759669570718,797592687,6391,28,0.736572265625,-0.05694580078125,0.53948974609375
1759669570718,797592687,6391,29,0.6884765625,-0.04644775390625,0.64276123046875
1759669570718,797592687,6391,30,0.70654296875,-0.09527587890625,0.65301513671875
1759669570718,797592687,6391,31,0.694091796875,-0.06182861328125,0.61614990234375
1759669573267,797595261,6392,0,0.704833984375,-0.05303955078125,0.61199951171875
1759669573267,797595261,6392,1,0.67724609375,-0.03594970703125,0.61126708984375
1759669573267,797595261,6392,2,0.70947265625,-0.03619384765625,0.62933349609375
1759669573267,797595261,6392,3,0.7265625,-0.01934814453125,0.60418701171875
1759669573267,797595261,6392,4,0.66162109375,-0.07086181640625,0.63812255859375
1759669573267,797595261,6392,5,0.68017578125,-0.06304931640625,0.60101318359375
1759669573267,797595261,6392,6,0.69775390625,-0.03814697265625,0.62322998046875
1759669573267,797595261,6392,7,0.7177734375,-0.04058837890625,0.63690185546875
1759669573267,797595261,6392,8,0.697509765625,-0.02886962890625,0.60443115234375
1759669573267,797595261,6392,9,0.701904296875,-0.05767822265625,0.59124755859375
1759669573267,797595261,6392,10,0.77978515625,-0.06475830078125,0.57733154296875
1759669573267,797595261,6392,11,0.753173828125,-0.06182861328125,0.55023193359375
1759669573267,797595261,6392,12,0.751708984375,-0.07305908203125,0.54925537109375
1759669573267,797595261,6392,13,0.750732421875,-0.06524658203125,0.55511474609375
1759669573267,797595261,6392,14,0.76953125,-0.04986572265625,0.54290771484375
1759669573267,797595261,6392,15,0.74658203125,-0.07843017578125,0.54168701171875
1759669573267,797595261,6392,16,0.748046875,-0.09527587890625,0.54901123046875
1759669573267,797595261,6392,17,0.72900390625,-0.08184814453125,0.55706787109375
1759669573267,797595261,6392,18,0.70556640625,-0.09234619140625,0.53436279296875
1759669573267,797595261,6392,19,0.775146484375,-0.08892822265625,0.58050537109375
1759669573267,797595261,6392,20,0.739501953125,-0.04473876953125,0.57098388671875
1759669573267,797595261,6392,21,0.68896484375,-0.03814697265625,0.59686279296875
1759669573267,797595261,6392,22,0.716796875,-0.10577392578125,0.64178466796875
1759669573267,797595261,6392,23,0.709228515625,-0.05352783203125,0.60882568359375
1759669573267,797595261,6392,24,0.7197265625,-0.03253173828125,0.59979248046875
1759669573267,797595261,6392,25,0.738525390625,-0.01397705078125,0.60711669921875
1759669573267,797595261,6392,26,0.593994140625,-0.07525634765625,0.71795654296875
1759669573267,797595261,6392,27,0.61767578125,-0.06695556640625,0.63446044921875
1759669573267,797595261,6392,28,0.682373046875,-0.07501220703125,0.64471435546875
1759669573267,797595261,6392,29,0.718994140625,-0.04522705078125,0.65447998046875
1759669573267,797595261,6392,30,0.695556640625,-0.01617431640625,0.60394287109375
1759669573267,797595261,6392,31,0.732666015625,0.00384521484375,0.58905029296875
1759669575965,797597840,6393,0,0.618896484375,-0.02813720703125,0.72406005859375
1759669575965,797597840,6393,1,0.637451171875,-0.09918212890625,0.61322021484375
1759669575965,797597840,6393,2,0.732421875,-0.06329345703125,0.62200927734375
1759669575965,797597840,6393,3,0.77685546875,0.02899169921875,0.58538818359375
1759669575965,797597840,6393,4,0.646240234375,0.03387451171875,0.63201904296875
1759669575965,797597840,6393,5,0.6474609375,-0.05010986328125,0.62005615234375
1759669575965,797597840,6393,6,0.6826171875,-0.06011962890625,0.62689208984375
1759669575965,797597840,6393,7,0.759521484375,-0.03936767578125,0.59906005859375
1759669575965,797597840,6393,8,0.734619140625,-0.02862548828125,0.59637451171875
1759669575965,797597840,6393,9,0.739013671875,-0.02398681640625,0.58514404296875
1759669575965,797597840,6393,10,0.75634765625,-0.03204345703125,0.56756591796875
1759669575965,797597840,6393,11,0.75830078125,-0.04083251953125,0.52728271484375
1759669575965,797597840,6393,12,0.758544921875,-0.07818603515625,0.54730224609375
1759669575965,797597840,6393,13,0.743896484375,-0.09381103515625,0.56024169921875
1759669575965,797597840,6393,14,0.73583984375,-0.08404541015625,0.56048583984375
1759669575965,797597840,6393,15,0.718994140625,-0.06573486328125,0.54315185546875
1759669575965,797597840,6393,16,0.721923828125,-0.10992431640625,0.54827880859375
1759669575965,797597840,6393,17,0.763671875,-0.08941650390625,0.60760498046875
1759669575965,797597840,6393,18,0.7490234375,-0.05718994140625,0.57073974609375
1759669575965,797597840,6393,19,0.747314453125,-0.04791259765625,0.58465576171875
1759669575965,797597840,6393,20,0.79150390625,-0.07354736328125,0.55633544921875
1759669575965,797597840,6393,21,0.675048828125,-0.02911376953125,0.55828857421875
1759669575965,797597840,6393,22,0.626708984375,-0.09332275390625,0.68353271484375
1759669575965,797597840,6393,23,0.6611328125,-0.08184814453125,0.62371826171875
1759669575965,797597840,6393,24,0.691162109375,-0.07647705078125,0.60760498046875
1759669575965,797597840,6393,25,0.726806640625,-0.01593017578125,0.63079833984375
1759669575965,797597840,6393,26,0.535888671875,-0.04742431640625,0.74212646484375
1759669575965,797597840,6393,27,0.603515625,-0.09967041015625,0.70941162109375
1759669575965,797597840,6393,28,0.66845703125,-0.07818603515625,0.62493896484375
1759669575965,797597840,6393,29,0.7294921875,-0.02032470703125,0.59881591796875
1759669575965,797597840,6393,30,0.717529296875,-0.03961181640625,0.64056396484375
1759669575965,797597840,6393,31,0.6982421875,-0.05548095703125,0.63299560546875
1759669578516,797600419,6394,0,0.7333984375,-0.06549072265625,0.59588623046875
1759669578516,797600419,6394,1,0.74072265625,-0.08868408203125,0.57171630859375
1759669578516,797600419,6394,2,0.740478515625,-0.06866455078125,0.56512451171875
1759669578516,797600419,6394,3,0.731201171875,-0.07745361328125,0.57928466796875
1759669578516,797600419,6394,4,0.7373046875,-0.08477783203125,0.56292724609375
1759669578516,797600419,6394,5,0.743408203125,-0.08502197265625,0.54925537109375
1759669578516,797600419,6394,6,0.75146484375,-0.07647705078125,0.55194091796875
1759669578516,797600419,6394,7,0.74169921875,-0.06695556640625,0.55535888671875
1759669578516,797600419,6394,8,0.72021484375,-0.06597900390625,0.53997802734375
1759669578516,797600419,6394,9,0.745849609375,-0.11358642578125,0.55487060546875
1759669578516,797600419,6394,10,0.800048828125,-0.05816650390625,0.57708740234375
1759669578516,797600419,6394,11,0.703125,-0.02838134765625,0.57684326171875
1759669578516,797600419,6394,12,0.7109375,-0.08331298828125,0.62176513671875
1759669578516,797600419,6394,13,0.721435546875,-0.05596923828125,0.59735107421875
1759669578516,797600419,6394,14,0.654296875,-0.05963134765625,0.65423583984375
1759669578516,797600419,6394,15,0.672119140625,-0.07647705078125,0.63177490234375
1759669578516,797600419,6394,16,0.68896484375,-0.05889892578125,0.61004638671875
1759669578516,797600419,6394,17,0.72509765625,-0.05914306640625,0.57464599609375
1759669578516,797600419,6394,18,0.61669921875,-0.00347900390625,0.71600341796875
1759669578516,797600419,6394,19,0.601806640625,-0.07550048828125,0.66204833984375
1759669578516,797600419,6394,20,0.706298828125,-0.08819580078125,0.65325927734375
1759669578516,797600419,6394,21,0.737548828125,-0.04205322265625,0.61590576171875
1759669578516,797600419,6394,22,0.709228515625,-0.02667236328125,0.60076904296875
