receivedPhoneTimestamp,respeckTimestamp,packetSeqNum,sampleSeqNum,accelX,accelY,accelZ
1760042114970,1173634521,29134,16,-0.518798828125,-0.20172119140625,0.78045654296875
1760042114970,1173634521,29134,17,-0.545654296875,-0.14141845703125,0.79290771484375
1760042114970,1173634521,29134,18,-0.54150390625,-0.19293212890625,0.77630615234375
1760042114970,1173634521,29134,19,-0.56005859375,-0.16387939453125,0.79339599609375
1760042114970,1173634521,29134,20,-0.52734375,-0.12408447265625,0.77825927734375
1760042114970,1173634521,29134,21,-0.573974609375,-0.14727783203125,0.82464599609375
1760042114970,1173634521,29134,22,-0.586181640625,-0.24249267578125,0.80218505859375
1760042114970,1173634521,29134,23,-0.515869140625,-0.13800048828125,0.80169677734375
1760042114970,1173634521,29134,24,-0.513916015625,-0.11431884765625,0.79827880859375
1760042114970,1173634521,29134,25,-0.5810546875,-0.18878173828125,0.79095458984375
1760042114970,1173634521,29134,26,-0.54638671875,-0.15386962890625,0.78509521484375
1760042114970,1173634521,29134,27,-0.49658203125,-0.14849853515625,0.78900146484375
1760042114970,1173634521,29134,28,-0.576416015625,-0.11846923828125,0.85565185546875
1760042114970,1173634521,29134,29,-0.522216796875,-0.20806884765625,0.79681396484375
1760042114970,1173634521,29134,30,-0.516357421875,-0.13189697265625,0.80609130859375
1760042114970,1173634521,29134,31,-0.548828125,-0.13677978515625,0.79559326171875
1760042117521,1173637046,29135,0,-0.55517578125,-0.10064697265625,0.77459716796875
1760042117521,1173637046,29135,1,-0.53271484375,-0.19464111328125,0.87493896484375
1760042117521,1173637046,29135,2,-0.53076171875,-0.22442626953125,0.74090576171875
1760042117521,1173637046,29135,3,-0.463134765625,-0.07379150390625,0.88739013671875
1760042117521,1173637046,29135,4,-0.561767578125,-0.15655517578125,0.78240966796875
1760042117521,1173637046,29135,5,-0.548828125,-0.15606689453125,0.81561279296875
1760042117521,1173637046,29135,6,-0.534912109375,-0.14483642578125,0.80242919921875
1760042117521,1173637046,29135,7,-0.529296875,-0.17926025390625,0.79705810546875
1760042117521,1173637046,29135,8,-0.55419921875,-0.17657470703125,0.78875732421875
1760042117521,1173637046,29135,9,-0.527099609375,-0.16900634765625,0.80584716796875
1760042117521,1173637046,29135,10,-0.535400390625,-0.16070556640625,0.80804443359375
1760042117521,1173637046,29135,11,-0.55078125,-0.16973876953125,0.79315185546875
1760042117521,1173637046,29135,12,-0.547607421875,-0.13018798828125,0.77655029296875
1760042117521,1173637046,29135,13,-0.53759765625,-0.15777587890625,0.81512451171875
1760042117521,1173637046,29135,14,-0.595458984375,-0.23199462890625,0.80145263671875
1760042117521,1173637046,29135,15,-0.5087890625,-0.14190673828125,0.83392333984375
1760042117521,1173637046,29135,16,-0.517822265625,-0.13262939453125,0.79681396484375
1760042117521,1173637046,29135,17,-0.571044921875,-0.22198486328125,0.76239013671875
1760042117521,1173637046,29135,18,-0.53076171875,-0.14117431640625,0.82025146484375
1760042117521,1173637046,29135,19,-0.5712890625,-0.24395751953125,0.78973388671875
1760042117521,1173637046,29135,20,-0.523681640625,-0.11993408203125,0.81854248046875
1760042117521,1173637046,29135,21,-0.538330078125,-0.13848876953125,0.78753662109375
1760042117521,1173637046,29135,22,-0.531494140625,-0.17266845703125,0.76312255859375
1760042117521,1173637046,29135,23,-0.552001953125,-0.20635986328125,0.86419677734375
1760042117521,1173637046,29135,24,-0.516357421875,-0.13677978515625,0.81292724609375
1760042117521,1173637046,29135,25,-0.54296875,-0.16705322265625,0.78656005859375
1760042117521,1173637046,29135,26,-0.53369140625,-0.16485595703125,0.79608154296875
1760042117521,1173637046,29135,27,-0.54052734375,-0.15875244140625,0.80194091796875
1760042117521,1173637046,29135,28,-0.531982421875,-0.15777587890625,0.81097412109375
1760042117521,1173637046,29135,29,-0.527587890625,-0.16387939453125,0.80682373046875
1760042117521,1173637046,29135,30,-0.5244140625,-0.16314697265625,0.80487060546875
1760042117521,1173637046,29135,31,-0.53857421875,-0.16314697265625,0.80145263671875
1760042120073,1173639572,29136,0,-0.532470703125,-0.12017822265625,0.78900146484375
1760042120073,1173639572,29136,1,-0.52294921875,-0.14239501953125,0.86224365234375
1760042120073,1173639572,29136,2,-0.550048828125,-0.21343994140625,0.77069091796875
1760042120073,1173639572,29136,3,-0.48828125,-0.09771728515625,0.84466552734375
1760042120073,1173639572,29136,4,-0.53369140625,-0.15484619140625,0.78924560546875
1760042120073,1173639572,29136,5,-0.560546875,-0.17877197265625,0.81512451171875
1760042120073,1173639572,29136,6,-0.5283203125,-0.14727783203125,0.79071044921875
1760042120073,1173639572,29136,7,-0.532470703125,-0.16094970703125,0.80438232421875
1760042120073,1173639572,29136,8,-0.52099609375,-0.12799072265625,0.81610107421875
1760042120073,1173639572,29136,9,-0.529541015625,-0.18536376953125,0.80413818359375
1760042120073,1173639572,29136,10,-0.5283203125,-0.17974853515625,0.80609130859375
1760042120073,1173639572,29136,11,-0.52783203125,-0.16754150390625,0.82025146484375
1760042120073,1173639572,29136,12,-0.55078125,-0.13507080078125,0.81561279296875
1760042120073,1173639572,29136,13,-0.518798828125,-0.14678955078125,0.79632568359375
1760042120073,1173639572,29136,14,-0.542236328125,-0.19512939453125,0.76727294921875
1760042120073,1173639572,29136,15,-0.54150390625,-0.15875244140625,0.78118896484375
1760042120073,1173639572,29136,16,-0.545166015625,-0.14508056640625,0.87152099609375
1760042120073,1173639572,29136,17,-0.548095703125,-0.18780517578125,0.80926513671875
1760042120073,1173639572,29136,18,-0.5078125,-0.14678955078125,0.78363037109375
1760042120073,1173639572,29136,19,-0.53271484375,-0.15216064453125,0.75018310546875
1760042120073,1173639572,29136,20,-0.615234375,-0.19415283203125,0.87200927734375
1760042120073,1173639572,29136,21,-0.490478515625,-0.15435791015625,0.80804443359375
1760042120073,1173639572,29136,22,-0.514892578125,-0.13824462890625,0.75506591796875
1760042120073,1173639572,29136,23,-0.547119140625,-0.17144775390625,0.81317138671875
1760042120073,1173639572,29136,24,-0.552734375,-0.16265869140625,0.83148193359375
1760042120073,1173639572,29136,25,-0.4931640625,-0.12921142578125,0.83685302734375
1760042120073,1173639572,29136,26,-0.51171875,-0.23834228515625,0.78900146484375
1760042120073,1173639572,29136,27,-0.55029296875,-0.14996337890625,0.81292724609375
1760042120073,1173639572,29136,28,-0.520263671875,-0.10845947265625,0.81024169921875
1760042120073,1173639572,29136,29,-0.53515625,-0.16729736328125,0.79852294921875
1760042120073,1173639572,29136,30,-0.5322265625,-0.17681884765625,0.80511474609375
1760042120073,1173639572,29136,31,-0.52978515625,-0.16290283203125,0.77532958984375
1760042122621,1173642097,29137,0,-0.516357421875,-0.14459228515625,0.83245849609375
1760042122621,1173642097,29137,1,-0.568603515625,-0.19635009765625,0.85858154296875
1760042122621,1173642097,29137,2,-0.488525390625,-0.15679931640625,0.76995849609375
1760042122621,1173642097,29137,3,-0.547607421875,-0.15606689453125,0.74310302734375
1760042122621,1173642097,29137,4,-0.556396484375,-0.17926025390625,0.88958740234375
1760042122621,1173642097,29137,5,-0.49560546875,-0.11993408203125,0.83245849609375
1760042122621,1173642097,29137,6,-0.50537109375,-0.19268798828125,0.79412841796875
1760042122621,1173642097,29137,7,-0.542236328125,-0.21319580078125,0.79876708984375
1760042122621,1173642097,29137,8,-0.536865234375,-0.11529541015625,0.82073974609375
1760042122621,1173642097,29137,9,-0.53955078125,-0.12457275390625,0.80413818359375
1760042122621,1173642097,29137,10,-0.531005859375,-0.16265869140625,0.79095458984375
1760042122621,1173642097,29137,11,-0.5390625,-0.20123291015625,0.79388427734375
1760042122621,1173642097,29137,12,-0.531005859375,-0.17144775390625,0.78631591796875
1760042122621,1173642097,29137,13,-0.5341796875,-0.12554931640625,0.81463623046875
1760042122621,1173642097,29137,14,-0.56396484375,-0.22979736328125,0.83392333984375
1760042122621,1173642097,29137,15,-0.519287109375,-0.15533447265625,0.79827880859375
1760042122621,1173642097,29137,16,-0.541259765625,-0.18170166015625,0.77947998046875
1760042122621,1173642097,29137,17,-0.5419921875,-0.13238525390625,0.76165771484375
1760042122621,1173642097,29137,18,-0.55517578125,-0.16168212890625,0.87078857421875
1760042122621,1173642097,29137,19,-0.50927734375,-0.19879150390625,0.81781005859375
1760042122621,1173642097,29137,20,-0.5263671875,-0.14190673828125,0.76654052734375
1760042122621,1173642097,29137,21,-0.546875,-0.14947509765625,0.80096435546875
1760042122621,1173642097,29137,22,-0.56640625,-0.16436767578125,0.85711669921875
1760042122621,1173642097,29137,23,-0.48974609375,-0.15045166015625,0.76531982421875
1760042122621,1173642097,29137,24,-0.561767578125,-0.18707275390625,0.77337646484375
1760042122621,1173642097,29137,25,-0.53076171875,-0.12774658203125,0.83270263671875
1760042122621,1173642097,29137,26,-0.5341796875,-0.16241455078125,0.81341552734375
1760042122621,1173642097,29137,27,-0.50048828125,-0.14239501953125,0.82220458984375
1760042122621,1173642097,29137,28,-0.534912109375,-0.21368408203125,0.80462646484375
1760042122621,1173642097,29137,29,-0.536865234375,-0.12847900390625,0.81976318359375
1760042122621,1173642097,29137,30,-0.531005859375,-0.14483642578125,0.81024169921875
1760042122621,1173642097,29137,31,-0.531005859375,-0.15289306640625,0.80877685546875
1760042125170,1173644622,29138,0,-0.53759765625,-0.18658447265625,0.79754638671875
1760042125170,1173644622,29138,1,-0.51708984375,-0.13067626953125,0.76483154296875
1760042125170,1173644622,29138,2,-0.547607421875,-0.17559814453125,0.85418701171875
1760042125170,1173644622,29138,3,-0.531494140625,-0.19512939453125,0.80926513671875
1760042125170,1173644622,29138,4,-0.51806640625,-0.15997314453125,0.77655029296875
1760042125170,1173644622,29138,5,-0.541259765625,-0.13726806640625,0.77239990234375
1760042125170,1173644622,29138,6,-0.549560546875,-0.18902587890625,0.85076904296875
1760042125170,1173644622,29138,7,-0.503173828125,-0.14312744140625,0.81488037109375
1760042125170,1173644622,29138,8,-0.50390625,-0.19927978515625,0.81512451171875
1760042125170,1173644622,29138,9,-0.529541015625,-0.18804931640625,0.79534912109375
1760042125170,1173644622,29138,10,-0.537841796875,-0.13922119140625,0.83758544921875
1760042125170,1173644622,29138,11,-0.517578125,-0.19366455078125,0.80316162109375
1760042125170,1173644622,29138,12,-0.5322265625,-0.13848876953125,0.80877685546875
1760042125170,1173644622,29138,13,-0.513671875,-0.14337158203125,0.80535888671875
1760042125170,1173644622,29138,14,-0.52197265625,-0.18975830078125,0.80169677734375
1760042125170,1173644622,29138,15,-0.540283203125,-0.17633056640625,0.81219482421875
1760042125170,1173644622,29138,16,-0.554931640625,-0.15582275390625,0.79608154296875
1760042125170,1173644622,29138,17,-0.537353515625,-0.18048095703125,0.79315185546875
1760042125170,1173644622,29138,18,-0.525634765625,-0.15093994140625,0.78143310546875
1760042125170,1173644622,29138,19,-0.572998046875,-0.20758056640625,0.84759521484375
1760042125170,1173644622,29138,20,-0.521728515625,-0.16900634765625,0.77630615234375
1760042125170,1173644622,29138,21,-0.543212890625,-0.16900634765625,0.77996826171875
1760042125170,1173644622,29138,22,-0.57666015625,-0.16607666015625,0.79510498046875
1760042125170,1173644622,29138,23,-0.510498046875,-0.15362548828125,0.81292724609375
1760042125170,1173644622,29138,24,-0.5751953125,-0.16729736328125,0.82391357421875
1760042125170,1173644622,29138,25,-0.52001953125,-0.16217041015625,0.78167724609375
1760042125170,1173644622,29138,26,-0.552978515625,-0.16705322265625,0.79241943359375
1760042125170,1173644622,29138,27,-0.5732421875,-0.16412353515625,0.80487060546875
1760042125170,1173644622,29138,28,-0.541259765625,-0.15875244140625,0.80291748046875
1760042125170,1173644622,29138,29,-0.537353515625,-0.15509033203125,0.75335693359375
1760042125170,1173644622,29138,30,-0.5283203125,-0.12066650390625,0.84173583984375
1760042125170,1173644622,29138,31,-0.567138671875,-0.23541259765625,0.79998779296875
1760042127571,1173647147,29139,0,-0.5107421875,-0.11260986328125,0.81463623046875
1760042127571,1173647147,29139,1,-0.5234375,-0.14068603515625,0.78070068359375
1760042127571,1173647147,29139,2,-0.569580078125,-0.14654541015625,0.83001708984375
1760042127571,1173647147,29139,3,-0.5361328125,-0.20123291015625,0.79608154296875
1760042127571,1173647147,29139,4,-0.527587890625,-0.15313720703125,0.82342529296875
1760042127571,1173647147,29139,5,-0.503662109375,-0.17462158203125,0.80584716796875
1760042127571,1173647147,29139,6,-0.552001953125,-0.13262939453125,0.81243896484375
1760042127571,1173647147,29139,7,-0.528564453125,-0.14141845703125,0.79583740234375
1760042127571,1173647147,29139,8,-0.5439453125,-0.16973876953125,0.79583740234375
1760042127571,1173647147,29139,9,-0.545654296875,-0.18389892578125,0.78802490234375
1760042127571,1173647147,29139,10,-0.544921875,-0.15826416015625,0.80950927734375
1760042127571,1173647147,29139,11,-0.54150390625,-0.16998291015625,0.79998779296875
1760042127571,1173647147,29139,12,-0.5361328125,-0.16436767578125,0.79827880859375
1760042127571,1173647147,29139,13,-0.557373046875,-0.17974853515625,0.79022216796875
1760042127571,1173647147,29139,14,-0.555908203125,-0.16143798828125,0.78192138671875
1760042127571,1173647147,29139,15,-0.529296875,-0.12139892578125,0.83294677734375
1760042127571,1173647147,29139,16,-0.572265625,-0.21319580078125,0.79803466796875
1760042127571,1173647147,29139,17,-0.5009765625,-0.11383056640625,0.81097412109375
1760042127571,1173647147,29139,18,-0.553955078125,-0.14068603515625,0.78314208984375
1760042127571,1173647147,29139,19,-0.562744140625,-0.17242431640625,0.81121826171875
1760042127571,1173647147,29139,20,-0.55859375,-0.16949462890625,0.80877685546875
1760042127571,1173647147,29139,21,-0.516845703125,-0.15435791015625,0.78070068359375
1760042127571,1173647147,29139,22,-0.551513671875,-0.10675048828125,0.76922607421875
1760042127571,1173647147,29139,23,-0.5625,-0.20196533203125,0.86810302734375
1760042127571,1173647147,29139,24,-0.513916015625,-0.17291259765625,0.77044677734375
1760042127571,1173647147,29139,25,-0.519775390625,-0.13702392578125,0.80340576171875
1760042127571,1173647147,29139,26,-0.543701171875,-0.20611572265625,0.81781005859375
1760042127571,1173647147,29139,27,-0.533935546875,-0.09429931640625,0.81878662109375
1760042127571,1173647147,29139,28,-0.53076171875,-0.14166259765625,0.79534912109375
1760042127571,1173647147,29139,29,-0.54052734375,-0.17730712890625,0.80389404296875
1760042127571,1173647147,29139,30,-0.5322265625,-0.16925048828125,0.78045654296875
1760042127571,1173647147,29139,31,-0.558349609375,-0.16998291015625,0.77459716796875
1760042130121,1173649672,29140,0,-0.52734375,-0.15240478515625,0.83856201171875
1760042130121,1173649672,29140,1,-0.5537109375,-0.17828369140625,0.80389404296875
1760042130121,1173649672,29140,2,-0.517822265625,-0.17803955078125,0.81610107421875
1760042130121,1173649672,29140,3,-0.54052734375,-0.17999267578125,0.79876708984375
1760042130121,1173649672,29140,4,-0.5478515625,-0.12701416015625,0.82440185546875
1760042130121,1173649672,29140,5,-0.536865234375,-0.13360595703125,0.78900146484375
1760042130121,1173649672,29140,6,-0.5439453125,-0.17022705078125,0.73577880859375
1760042130121,1173649672,29140,7,-0.558349609375,-0.18389892578125,0.85443115234375
1760042130121,1173649672,29140,8,-0.53515625,-0.20538330078125,0.80950927734375
1760042130121,1173649672,29140,9,-0.527587890625,-0.13262939453125,0.75164794921875
1760042130121,1173649672,29140,10,-0.547607421875,-0.17999267578125,0.83441162109375
1760042130121,1173649672,29140,11,-0.5341796875,-0.13775634765625,0.79876708984375
1760042130121,1173649672,29140,12,-0.527587890625,-0.18829345703125,0.81146240234375
1760042130121,1173649672,29140,13,-0.536376953125,-0.20904541015625,0.81219482421875
1760042130121,1173649672,29140,14,-0.537841796875,-0.12823486328125,0.81243896484375
1760042130121,1173649672,29140,15,-0.52880859375,-0.13775634765625,0.79998779296875
1760042130121,1173649672,29140,16,-0.556396484375,-0.16094970703125,0.78118896484375
1760042130121,1173649672,29140,17,-0.50341796875,-0.18511962890625,0.80560302734375
1760042130121,1173649672,29140,18,-0.541748046875,-0.16534423828125,0.82220458984375
1760042130121,1173649672,29140,19,-0.53759765625,-0.19439697265625,0.79974365234375
1760042130121,1173649672,29140,20,-0.53125,-0.18121337890625,0.79534912109375
1760042130121,1173649672,29140,21,-0.53662109375,-0.16363525390625,0.77557373046875
1760042130121,1173649672,29140,22,-0.52734375,-0.15142822265625,0.83172607421875
1760042130121,1173649672,29140,23,-0.54150390625,-0.21002197265625,0.80657958984375
1760042130121,1173649672,29140,24,-0.511962890625,-0.19903564453125,0.83001708984375
1760042130121,1173649672,29140,25,-0.539306640625,-0.16680908203125,0.79412841796875
1760042130121,1173649672,29140,26,-0.521240234375,-0.13824462890625,0.81536865234375
1760042130121,1173649672,29140,27,-0.5380859375,-0.16094970703125,0.80218505859375
1760042130121,1173649672,29140,28,-0.542236328125,-0.16143798828125,0.78192138671875
1760042130121,1173649672,29140,29,-0.52392578125,-0.16632080078125,0.79681396484375
1760042130121,1173649672,29140,30,-0.565673828125,-0.19219970703125,0.83612060546875
1760042130121,1173649672,29140,31,-0.498046875,-0.17022705078125,0.80389404296875
1760042132671,1173652197,29141,0,-0.548583984375,-0.20343017578125,0.76605224609375
1760042132671,1173652197,29141,1,-0.54345703125,-0.13116455078125,0.78094482421875
1760042132671,1173652197,29141,2,-0.565673828125,-0.20733642578125,0.85687255859375
1760042132671,1173652197,29141,3,-0.478759765625,-0.17559814453125,0.79559326171875
1760042132671,1173652197,29141,4,-0.577880859375,-0.20880126953125,0.77410888671875
1760042132671,1173652197,29141,5,-0.51123046875,-0.12945556640625,0.77630615234375
1760042132671,1173652197,29141,6,-0.607421875,-0.14752197265625,0.86785888671875
1760042132671,1173652197,29141,7,-0.48193359375,-0.19219970703125,0.75213623046875
1760042132671,1173652197,29141,8,-0.570068359375,-0.16754150390625,0.73748779296875
1760042132671,1173652197,29141,9,-0.537109375,-0.13458251953125,0.87371826171875
1760042132671,1173652197,29141,10,-0.560791015625,-0.19366455078125,0.80584716796875
1760042132671,1173652197,29141,11,-0.496337890625,-0.16754150390625,0.80926513671875
1760042132671,1173652197,29141,12,-0.537109375,-0.21807861328125,0.79705810546875
1760042132671,1173652197,29141,13,-0.532470703125,-0.14141845703125,0.82806396484375
1760042132671,1173652197,29141,14,-0.532958984375,-0.14288330078125,0.79656982421875
1760042132671,1173652197,29141,15,-0.553955078125,-0.15606689453125,0.80145263671875
1760042132671,1173652197,29141,16,-0.53125,-0.17999267578125,0.79827880859375
1760042132671,1173652197,29141,17,-0.53857421875,-0.20294189453125,0.74700927734375
1760042132671,1173652197,29141,18,-0.539794921875,-0.13800048828125,0.84051513671875
1760042132671,1173652197,29141,19,-0.53955078125,-0.15338134765625,0.83026123046875
1760042132671,1173652197,29141,20,-0.52880859375,-0.19635009765625,0.79241943359375
1760042132671,1173652197,29141,21,-0.5546875,-0.19879150390625,0.78265380859375
1760042132671,1173652197,29141,22,-0.5498046875,-0.15435791015625,0.79266357421875
1760042132671,1173652197,29141,23,-0.53955078125,-0.16070556640625,0.80487060546875
1760042132671,1173652197,29141,24,-0.54541015625,-0.18804931640625,0.74871826171875
1760042132671,1173652197,29141,25,-0.551025390625,-0.15216064453125,0.83905029296875
1760042132671,1173652197,29141,26,-0.53125,-0.17779541015625,0.80828857421875
1760042132671,1173652197,29141,27,-0.54443359375,-0.17242431640625,0.81854248046875
1760042132671,1173652197,29141,28,-0.536865234375,-0.19879150390625,0.80072021484375
1760042132671,1173652197,29141,29,-0.54833984375,-0.13555908203125,0.80804443359375
1760042132671,1173652197,29141,30,-0.553955078125,-0.15460205078125,0.78436279296875
1760042132671,1173652197,29141,31,-0.552001953125,-0.15948486328125,0.79119873046875
1760042135222,1173654722,29142,0,-0.533203125,-0.17730712890625,0.77459716796875
1760042135222,1173654722,29142,1,-0.561767578125,-0.19024658203125,0.83099365234375
1760042135222,1173654722,29142,2,-0.53759765625,-0.15875244140625,0.79705810546875
1760042135222,1173654722,29142,3,-0.55517578125,-0.18121337890625,0.75433349609375
1760042135222,1173654722,29142,4,-0.547607421875,-0.15045166015625,0.83953857421875
1760042135222,1173654722,29142,5,-0.52978515625,-0.16876220703125,0.80535888671875
1760042135222,1173654722,29142,6,-0.55517578125,-0.18682861328125,0.79583740234375
1760042135222,1173654722,29142,7,-0.555908203125,-0.17584228515625,0.78363037109375
1760042135222,1173654722,29142,8,-0.55224609375,-0.14337158203125,0.80389404296875
1760042135222,1173654722,29142,9,-0.533935546875,-0.19464111328125,0.78558349609375
1760042135222,1173654722,29142,10,-0.551513671875,-0.14971923828125,0.77215576171875
1760042135222,1173654722,29142,11,-0.550537109375,-0.18389892578125,0.80364990234375
1760042135222,1173654722,29142,12,-0.5400390625,-0.13555908203125,0.81243896484375
1760042135222,1173654722,29142,13,-0.538330078125,-0.20245361328125,0.82000732421875
1760042135222,1173654722,29142,14,-0.5439453125,-0.17437744140625,0.79388427734375
1760042135222,1173654722,29142,15,-0.54541015625,-0.13653564453125,0.79388427734375
1760042135222,1173654722,29142,16,-0.541748046875,-0.15313720703125,0.79681396484375
1760042135222,1173654722,29142,17,-0.513916015625,-0.18829345703125,0.78460693359375
1760042135222,1173654722,29142,18,-0.6123046875,-0.19610595703125,0.79486083984375
1760042135222,1173654722,29142,19,-0.537109375,-0.17559814453125,0.78094482421875
1760042135222,1173654722,29142,20,-0.546142578125,-0.12677001953125,0.78460693359375
1760042135222,1173654722,29142,21,-0.566650390625,-0.20294189453125,0.80804443359375
1760042135222,1173654722,29142,22,-0.538818359375,-0.18951416015625,0.78948974609375
1760042135222,1173654722,29142,23,-0.54150390625,-0.17022705078125,0.77386474609375
1760042135222,1173654722,29142,24,-0.5498046875,-0.12701416015625,0.82196044921875
1760042135222,1173654722,29142,25,-0.546630859375,-0.16558837890625,0.80218505859375
1760042135222,1173654722,29142,26,-0.52197265625,-0.18585205078125,0.81219482421875
1760042135222,1173654722,29142,27,-0.56298828125,-0.22003173828125,0.79705810546875
1760042135222,1173654722,29142,28,-0.514892578125,-0.13775634765625,0.81634521484375
1760042135222,1173654722,29142,29,-0.553466796875,-0.14215087890625,0.79754638671875
1760042135222,1173654722,29142,30,-0.5419921875,-0.17022705078125,0.78924560546875
1760042135222,1173654722,29142,31,-0.557861328125,-0.18243408203125,0.78631591796875
1760042137773,1173657247,29143,0,-0.551025390625,-0.19195556640625,0.76605224609375
1760042137773,1173657247,29143,1,-0.53515625,-0.11456298828125,0.81390380859375
1760042137773,1173657247,29143,2,-0.535400390625,-0.17071533203125,0.81805419921875
1760042137773,1173657247,29143,3,-0.5361328125,-0.19830322265625,0.80316162109375
1760042137773,1173657247,29143,4,-0.570556640625,-0.17095947265625,0.77825927734375
1760042137773,1173657247,29143,5,-0.538330078125,-0.12188720703125,0.78997802734375
1760042137773,1173657247,29143,6,-0.53564453125,-0.17535400390625,0.83367919921875
1760042137773,1173657247,29143,7,-0.548828125,-0.19024658203125,0.77972412109375
1760042137773,1173657247,29143,8,-0.543212890625,-0.13409423828125,0.77581787109375
1760042137773,1173657247,29143,9,-0.53076171875,-0.15704345703125,0.83538818359375
1760042137773,1173657247,29143,10,-0.548095703125,-0.16949462890625,0.80633544921875
1760042137773,1173657247,29143,11,-0.5634765625,-0.18072509765625,0.77117919921875
1760042137773,1173657247,29143,12,-0.529541015625,-0.17022705078125,0.78631591796875
1760042137773,1173657247,29143,13,-0.52880859375,-0.12823486328125,0.82757568359375
1760042137773,1173657247,29143,14,-0.537353515625,-0.18780517578125,0.79925537109375
1760042137773,1173657247,29143,15,-0.55224609375,-0.19879150390625,0.80999755859375
1760042137773,1173657247,29143,16,-0.5234375,-0.16119384765625,0.80755615234375
1760042137773,1173657247,29143,17,-0.536376953125,-0.13580322265625,0.81683349609375
1760042137773,1173657247,29143,18,-0.552978515625,-0.15899658203125,0.80194091796875
1760042137773,1173657247,29143,19,-0.548828125,-0.15435791015625,0.79510498046875
1760042137773,1173657247,29143,20,-0.54931640625,-0.19195556640625,0.78582763671875
1760042137773,1173657247,29143,21,-0.538330078125,-0.15533447265625,0.75384521484375
1760042137773,1173657247,29143,22,-0.568603515625,-0.14288330078125,0.83465576171875
1760042137773,1173657247,29143,23,-0.54052734375,-0.19683837890625,0.79364013671875
1760042137773,1173657247,29143,24,-0.553466796875,-0.17095947265625,0.76263427734375
1760042137773,1173657247,29143,25,-0.54345703125,-0.14971923828125,0.81390380859375
1760042137773,1173657247,29143,26,-0.531982421875,-0.16021728515625,0.80731201171875
1760042137773,1173657247,29143,27,-0.543212890625,-0.20123291015625,0.82391357421875
1760042137773,1173657247,29143,28,-0.519775390625,-0.17218017578125,0.79315185546875
1760042137773,1173657247,29143,29,-0.55224609375,-0.13531494140625,0.80487060546875
1760042137773,1173657247,29143,30,-0.539794921875,-0.16339111328125,0.79876708984375
1760042137773,1173657247,29143,31,-0.562744140625,-0.17608642578125,0.79998779296875
1760042140321,1173659772,29144,0,-0.539306640625,-0.19781494140625,0.76287841796875
1760042140321,1173659772,29144,1,-0.521240234375,-0.15802001953125,0.81927490234375
1760042140321,1173659772,29144,2,-0.54345703125,-0.19195556640625,0.81488037109375
1760042140321,1173659772,29144,3,-0.533203125,-0.19586181640625,0.80364990234375
1760042140321,1173659772,29144,4,-0.56298828125,-0.16632080078125,0.80291748046875
1760042140321,1173659772,29144,5,-0.516357421875,-0.14654541015625,0.79681396484375
1760042140321,1173659772,29144,6,-0.528564453125,-0.18731689453125,0.79949951171875
1760042140321,1173659772,29144,7,-0.557373046875,-0.20758056640625,0.78485107421875
1760042140321,1173659772,29144,8,-0.558837890625,-0.18707275390625,0.78851318359375
1760042140321,1173659772,29144,9,-0.548583984375,-0.13702392578125,0.77313232421875
1760042140321,1173659772,29144,10,-0.554931640625,-0.17999267578125,0.82147216796875
1760042140321,1173659772,29144,11,-0.54443359375,-0.22296142578125,0.78533935546875
1760042140321,1173659772,29144,12,-0.539794921875,-0.14849853515625,0.76776123046875
1760042140321,1173659772,29144,13,-0.548828125,-0.15802001953125,0.82635498046875
1760042140321,1173659772,29144,14,-0.533935546875,-0.19342041015625,0.80047607421875
1760042140321,1173659772,29144,15,-0.570068359375,-0.15362548828125,0.75384521484375
1760042140321,1173659772,29144,16,-0.532470703125,-0.18536376953125,0.83831787109375
1760042140321,1173659772,29144,17,-0.5302734375,-0.17120361328125,0.79583740234375
1760042140321,1173659772,29144,18,-0.56298828125,-0.16217041015625,0.76214599609375
1760042140321,1173659772,29144,19,-0.540771484375,-0.17584228515625,0.83831787109375
1760042140321,1173659772,29144,20,-0.514404296875,-0.14849853515625,0.79388427734375
1760042140321,1173659772,29144,21,-0.551513671875,-0.19415283203125,0.82440185546875
1760042140321,1173659772,29144,22,-0.5380859375,-0.18341064453125,0.80023193359375
1760042140321,1173659772,29144,23,-0.547607421875,-0.13092041015625,0.80316162109375
1760042140321,1173659772,29144,24,-0.555419921875,-0.14971923828125,0.79559326171875
1760042140321,1173659772,29144,25,-0.547119140625,-0.17095947265625,0.78778076171875
1760042140321,1173659772,29144,26,-0.56689453125,-0.18438720703125,0.72479248046875
1760042140321,1173659772,29144,27,-0.558837890625,-0.16314697265625,0.83978271484375
1760042140321,1173659772,29144,28,-0.513916015625,-0.15875244140625,0.80657958984375
1760042140321,1173659772,29144,29,-0.5458984375,-0.16094970703125,0.83660888671875
1760042140321,1173659772,29144,30,-0.533447265625,-0.24688720703125,0.76922607421875
1760042140321,1173659772,29144,31,-0.5693359375,-0.10797119140625,0.80535888671875
1760042142870,1173662297,29145,0,-0.549072265625,-0.14166259765625,0.79486083984375
1760042142870,1173662297,29145,1,-0.543701171875,-0.18927001953125,0.77972412109375
1760042142870,1173662297,29145,2,-0.504150390625,-0.16607666015625,0.78387451171875
1760042142870,1173662297,29145,3,-0.597412109375,-0.21368408203125,0.83074951171875
1760042142870,1173662297,29145,4,-0.5107421875,-0.16973876953125,0.77850341796875
1760042142870,1173662297,29145,5,-0.5810546875,-0.14947509765625,0.73162841796875
1760042142870,1173662297,29145,6,-0.598876953125,-0.17169189453125,0.84906005859375
1760042142870,1173662297,29145,7,-0.48193359375,-0.15850830078125,0.79046630859375
1760042142870,1173662297,29145,8,-0.55322265625,-0.20294189453125,0.81829833984375
1760042142870,1173662297,29145,9,-0.530029296875,-0.23712158203125,0.81634521484375
1760042142870,1173662297,29145,10,-0.537841796875,-0.09527587890625,0.78997802734375
1760042142870,1173662297,29145,11,-0.567138671875,-0.14459228515625,0.78973388671875
1760042142870,1173662297,29145,12,-0.52734375,-0.16851806640625,0.75360107421875
1760042142870,1173662297,29145,13,-0.578369140625,-0.22344970703125,0.84906005859375
1760042142870,1173662297,29145,14,-0.513671875,-0.18951416015625,0.77947998046875
1760042142870,1173662297,29145,15,-0.55908203125,-0.13775634765625,0.75555419921875
1760042142870,1173662297,29145,16,-0.575927734375,-0.19830322265625,0.84051513671875
1760042142870,1173662297,29145,17,-0.513427734375,-0.12481689453125,0.80950927734375
1760042142870,1173662297,29145,18,-0.553955078125,-0.23907470703125,0.78167724609375
1760042142870,1173662297,29145,19,-0.52099609375,-0.17437744140625,0.74676513671875
1760042142870,1173662297,29145,20,-0.5927734375,-0.12603759765625,0.87518310546875
1760042142870,1173662297,29145,21,-0.498291015625,-0.18463134765625,0.77410888671875
1760042142870,1173662297,29145,22,-0.553466796875,-0.17999267578125,0.77532958984375
1760042142870,1173662297,29145,23,-0.5615234375,-0.18096923828125,0.81585693359375
1760042142870,1173662297,29145,24,-0.522216796875,-0.12994384765625,0.81463623046875
1760042142870,1173662297,29145,25,-0.5234375,-0.22247314453125,0.81805419921875
1760042142870,1173662297,29145,26,-0.5439453125,-0.15582275390625,0.80633544921875
1760042142870,1173662297,29145,27,-0.537353515625,-0.15582275390625,0.79949951171875
1760042142870,1173662297,29145,28,-0.539306640625,-0.14923095703125,0.79559326171875
1760042142870,1173662297,29145,29,-0.5400390625,-0.19561767578125,0.78533935546875
1760042142870,1173662297,29145,30,-0.531494140625,-0.15826416015625,0.76141357421875
1760042142870,1173662297,29145,31,-0.574462890625,-0.19952392578125,0.82586669921875
1760042145421,1173664822,29146,0,-0.5234375,-0.15728759765625,0.82391357421875
1760042145421,1173664822,29146,1,-0.532470703125,-0.22882080078125,0.79461669921875
1760042145421,1173664822,29146,2,-0.56396484375,-0.16387939453125,0.80438232421875
1760042145421,1173664822,29146,3,-0.553466796875,-0.15338134765625,0.79119873046875
1760042145421,1173664822,29146,4,-0.54150390625,-0.12017822265625,0.80072021484375
1760042145421,1173664822,29146,5,-0.537353515625,-0.22491455078125,0.77996826171875
1760042145421,1173664822,29146,6,-0.559814453125,-0.19635009765625,0.79144287109375
1760042145421,1173664822,29146,7,-0.556884765625,-0.14678955078125,0.76849365234375
1760042145421,1173664822,29146,8,-0.548583984375,-0.15948486328125,0.81414794921875
1760042145421,1173664822,29146,9,-0.550048828125,-0.19488525390625,0.78802490234375
1760042145421,1173664822,29146,10,-0.55078125,-0.18194580078125,0.79705810546875
1760042145421,1173664822,29146,11,-0.5478515625,-0.17901611328125,0.76190185546875
1760042145421,1173664822,29146,12,-0.545654296875,-0.10943603515625,0.85858154296875
1760042145421,1173664822,29146,13,-0.5419921875,-0.19635009765625,0.78045654296875
