receivedPhoneTimestamp,respeckTimestamp,packetSeqNum,sampleSeqNum,accelX,accelY,accelZ
1760000492989,1124205642,11935,16,0.0009765625,-1.00762939453125,-0.09063720703125
1760000492989,1124205642,11935,17,0.012451171875,-0.99444580078125,-0.11041259765625
1760000492989,1124205642,11935,18,0.01318359375,-0.97784423828125,-0.10064697265625
1760000492989,1124205642,11935,19,-0.03173828125,-0.97979736328125,-0.10797119140625
1760000492989,1124205642,11935,20,0.03271484375,-1.01446533203125,-0.12384033203125
1760000492989,1124205642,11935,21,0.040283203125,-0.99517822265625,-0.20977783203125
1760000492989,1124205642,11935,22,-0.034912109375,-0.98052978515625,-0.05670166015625
1760000492989,1124205642,11935,23,-0.015869140625,-1.00299072265625,0.02777099609375
1760000492989,1124205642,11935,24,-0.0205078125,-1.02618408203125,-0.08453369140625
1760000492989,1124205642,11935,25,-0.012939453125,-0.98345947265625,-0.04986572265625
1760000492989,1124205642,11935,26,0.004638671875,-1.01422119140625,-0.05206298828125
1760000492989,1124205642,11935,27,-0.0185546875,-1.01324462890625,-0.03936767578125
1760000492989,1124205642,11935,28,0.00048828125,-1.00787353515625,-0.06915283203125
1760000492989,1124205642,11935,29,-0.030517578125,-0.97540283203125,-0.06744384765625
1760000492989,1124205642,11935,30,0.010009765625,-0.98712158203125,-0.06036376953125
1760000492989,1124205642,11935,31,0.0283203125,-0.97442626953125,-0.11334228515625
1760000495514,1124208161,11936,0,0.01416015625,-1.01690673828125,-0.09210205078125
1760000495514,1124208161,11936,1,-0.04931640625,-1.01812744140625,-0.11798095703125
1760000495514,1124208161,11936,2,-0.07470703125,-1.00225830078125,-0.10137939453125
1760000495514,1124208161,11936,3,-0.03759765625,-0.97955322265625,0.04339599609375
1760000495514,1124208161,11936,4,0.008544921875,-1.03985595703125,-0.06964111328125
1760000495514,1124208161,11936,5,0.0029296875,-0.97149658203125,-0.08599853515625
1760000495514,1124208161,11936,6,0.0283203125,-0.99053955078125,-0.07696533203125
1760000495514,1124208161,11936,7,0.03271484375,-1.03399658203125,-0.08721923828125
1760000495514,1124208161,11936,8,-0.05029296875,-0.96466064453125,0.09027099609375
1760000495514,1124208161,11936,9,0.00390625,-1.00372314453125,-0.04107666015625
1760000495514,1124208161,11936,10,0.004150390625,-0.98565673828125,-0.00079345703125
1760000495514,1124208161,11936,11,0.013671875,-1.01031494140625,0.00897216796875
1760000495514,1124208161,11936,12,0.025390625,-1.01495361328125,0.02117919921875
1760000495514,1124208161,11936,13,0.0166015625,-1.00103759765625,0.01898193359375
1760000495514,1124208161,11936,14,0.01513671875,-0.99761962890625,0.01776123046875
1760000495514,1124208161,11936,15,0.009765625,-0.99468994140625,0.02313232421875
1760000495514,1124208161,11936,16,0.01025390625,-0.99298095703125,0.01336669921875
1760000495514,1124208161,11936,17,0.013916015625,-0.99859619140625,0.00408935546875
1760000495514,1124208161,11936,18,0.005126953125,-0.99761962890625,-0.01568603515625
1760000495514,1124208161,11936,19,0.003173828125,-0.99102783203125,-0.02252197265625
1760000495514,1124208161,11936,20,-0.00732421875,-0.99029541015625,-0.03717041015625
1760000495514,1124208161,11936,21,0.006591796875,-0.99737548828125,-0.03619384765625
1760000495514,1124208161,11936,22,0.017333984375,-0.99957275390625,-0.06353759765625
1760000495514,1124208161,11936,23,0.031494140625,-1.00079345703125,-0.06304931640625
1760000495514,1124208161,11936,24,0.041748046875,-1.03521728515625,-0.11187744140625
1760000495514,1124208161,11936,25,-0.041259765625,-0.96539306640625,0.06854248046875
1760000495514,1124208161,11936,26,0.00537109375,-1.00250244140625,-0.01275634765625
1760000495514,1124208161,11936,27,-0.002197265625,-0.98345947265625,-0.04376220703125
1760000495514,1124208161,11936,28,0.005859375,-1.03131103515625,0.00457763671875
1760000495514,1124208161,11936,29,-0.0078125,-1.00030517578125,0.00823974609375
1760000495514,1124208161,11936,30,0.00146484375,-0.99591064453125,-0.00518798828125
1760000495514,1124208161,11936,31,-0.003662109375,-1.01519775390625,-0.01226806640625
1760000498029,1124210680,11937,0,-0.009521484375,-0.98443603515625,-0.02569580078125
1760000498029,1124210680,11937,1,0.0009765625,-0.99761962890625,-0.04449462890625
1760000498029,1124210680,11937,2,-0.011962890625,-0.98101806640625,-0.06134033203125
1760000498029,1124210680,11937,3,0.013427734375,-1.00518798828125,-0.02691650390625
1760000498029,1124210680,11937,4,-0.000732421875,-0.99835205078125,-0.06402587890625
1760000498029,1124210680,11937,5,0.008544921875,-1.00543212890625,-0.06939697265625
1760000498029,1124210680,11937,6,0.02880859375,-1.00787353515625,-0.05499267578125
1760000498029,1124210680,11937,7,0.03564453125,-1.04156494140625,-0.08795166015625
1760000498029,1124210680,11937,8,-0.038818359375,-0.96392822265625,0.04144287109375
1760000498029,1124210680,11937,9,-0.02001953125,-0.98883056640625,-0.03375244140625
1760000498029,1124210680,11937,10,0.016845703125,-1.00811767578125,-0.03887939453125
1760000498029,1124210680,11937,11,0.00537109375,-0.98858642578125,-0.01495361328125
1760000498029,1124210680,11937,12,0.030517578125,-1.01104736328125,-0.06549072265625
1760000498029,1124210680,11937,13,-0.025634765625,-0.98590087890625,0.04412841796875
1760000498029,1124210680,11937,14,-0.023681640625,-0.95489501953125,0.04290771484375
1760000498029,1124210680,11937,15,0.025146484375,-1.04205322265625,0.00994873046875
1760000498029,1124210680,11937,16,-0.0107421875,-1.00665283203125,0.05633544921875
1760000498029,1124210680,11937,17,0.018798828125,-0.99591064453125,0.05267333984375
1760000498029,1124210680,11937,18,0.003173828125,-1.01031494140625,0.05487060546875
1760000498029,1124210680,11937,19,0.02734375,-0.99615478515625,0.03363037109375
1760000498029,1124210680,11937,20,-0.00390625,-0.99542236328125,0.05780029296875
1760000498029,1124210680,11937,21,0.019775390625,-0.98248291015625,0.01239013671875
1760000498029,1124210680,11937,22,0.00341796875,-0.99127197265625,0.00335693359375
1760000498029,1124210680,11937,23,-0.0009765625,-0.98785400390625,-0.00787353515625
1760000498029,1124210680,11937,24,-0.00830078125,-0.99615478515625,-0.04644775390625
1760000498029,1124210680,11937,25,-0.03076171875,-0.99615478515625,-0.03302001953125
1760000498029,1124210680,11937,26,-0.0439453125,-1.02032470703125,-0.06256103515625
1760000498029,1124210680,11937,27,-0.0361328125,-1.02862548828125,-0.14898681640625
1760000498029,1124210680,11937,28,-0.08447265625,-0.96563720703125,0.03045654296875
1760000498029,1124210680,11937,29,-0.09375,-0.97808837890625,-0.01373291015625
1760000498029,1124210680,11937,30,-0.03564453125,-1.03057861328125,-0.03302001953125
1760000498029,1124210680,11937,31,-0.049072265625,-1.01544189453125,0.01239013671875
1760000500551,1124213199,11938,0,-0.021728515625,-1.00250244140625,0.02850341796875
1760000500551,1124213199,11938,1,-0.034912109375,-1.00347900390625,0.02947998046875
1760000500551,1124213199,11938,2,-0.009033203125,-1.00006103515625,0.02655029296875
1760000500551,1124213199,11938,3,-0.026611328125,-0.99664306640625,0.01849365234375
1760000500551,1124213199,11938,4,-0.021484375,-0.98931884765625,-0.00689697265625
1760000500551,1124213199,11938,5,-0.006103515625,-0.98248291015625,-0.02569580078125
1760000500551,1124213199,11938,6,-0.036865234375,-0.98956298828125,-0.01202392578125
1760000500551,1124213199,11938,7,-0.006591796875,-1.00079345703125,-0.03668212890625
1760000500551,1124213199,11938,8,-0.002685546875,-1.00250244140625,-0.04327392578125
1760000500551,1124213199,11938,9,0.009765625,-1.00543212890625,-0.04156494140625
1760000500551,1124213199,11938,10,0.03759765625,-1.01519775390625,-0.11212158203125
1760000500551,1124213199,11938,11,-0.007080078125,-0.97979736328125,0.00164794921875
1760000500551,1124213199,11938,12,-0.038330078125,-0.97711181640625,0.04071044921875
1760000500551,1124213199,11938,13,0.03369140625,-1.04205322265625,-0.06817626953125
1760000500551,1124213199,11938,14,-0.014892578125,-0.98492431640625,-0.03985595703125
1760000500551,1124213199,11938,15,0.0205078125,-0.99713134765625,-0.04742431640625
1760000500551,1124213199,11938,16,0.002197265625,-1.00396728515625,-0.06085205078125
1760000500551,1124213199,11938,17,0.002197265625,-1.02276611328125,-0.03936767578125
1760000500551,1124213199,11938,18,-0.03076171875,-0.95806884765625,0.03875732421875
1760000500551,1124213199,11938,19,0.01171875,-1.00592041015625,-0.01593017578125
1760000500551,1124213199,11938,20,-0.002685546875,-1.00396728515625,-0.00347900390625
1760000500551,1124213199,11938,21,-0.0029296875,-1.01788330078125,0.03851318359375
1760000500551,1124213199,11938,22,0.00732421875,-0.99395751953125,0.03436279296875
1760000500551,1124213199,11938,23,0.013671875,-1.01593017578125,0.02386474609375
1760000500551,1124213199,11938,24,-0.02392578125,-0.99786376953125,0.02703857421875
1760000500551,1124213199,11938,25,0.0087890625,-1.00567626953125,-0.00445556640625
1760000500551,1124213199,11938,26,0.01611328125,-0.98980712890625,-0.00299072265625
1760000500551,1124213199,11938,27,0.00244140625,-0.97760009765625,-0.03009033203125
1760000500551,1124213199,11938,28,0.00244140625,-0.99932861328125,-0.00982666015625
1760000500551,1124213199,11938,29,0.00830078125,-1.00885009765625,-0.02056884765625
1760000500551,1124213199,11938,30,0.017822265625,-0.99932861328125,-0.01837158203125
1760000500551,1124213199,11938,31,0.028564453125,-1.03399658203125,-0.06158447265625
1760000503072,1124215718,11939,0,-0.03759765625,-0.95684814453125,0.06805419921875
1760000503072,1124215718,11939,1,-0.00537109375,-0.96759033203125,-0.00177001953125
1760000503072,1124215718,11939,2,0.0078125,-1.02398681640625,0.01605224609375
1760000503072,1124215718,11939,3,-0.02001953125,-1.01177978515625,0.05706787109375
1760000503072,1124215718,11939,4,0.019775390625,-0.99591064453125,0.03948974609375
1760000503072,1124215718,11939,5,0.00390625,-1.00054931640625,0.03753662109375
1760000503072,1124215718,11939,6,0.003662109375,-1.00689697265625,0.02288818359375
1760000503072,1124215718,11939,7,0.006103515625,-0.99053955078125,0.00750732421875
1760000503072,1124215718,11939,8,0.012451171875,-0.98736572265625,-0.01910400390625
1760000503072,1124215718,11939,9,0.00537109375,-0.98028564453125,-0.02081298828125
1760000503072,1124215718,11939,10,0.030517578125,-1.02862548828125,-0.02423095703125
1760000503072,1124215718,11939,11,0.01123046875,-0.97784423828125,-0.01885986328125
1760000503072,1124215718,11939,12,-0.0126953125,-1.00982666015625,0.05999755859375
1760000503072,1124215718,11939,13,0.01708984375,-0.99371337890625,-0.02618408203125
1760000503072,1124215718,11939,14,0.0009765625,-0.99517822265625,-0.02569580078125
1760000503072,1124215718,11939,15,0.000244140625,-0.99859619140625,0.03118896484375
1760000503072,1124215718,11939,16,0.0078125,-0.99273681640625,0.02484130859375
1760000503072,1124215718,11939,17,-0.000732421875,-1.00445556640625,0.03485107421875
1760000503072,1124215718,11939,18,0.00634765625,-1.00738525390625,0.05609130859375
1760000503072,1124215718,11939,19,0.012939453125,-1.00787353515625,0.03753662109375
1760000503072,1124215718,11939,20,0.0078125,-0.99884033203125,0.04559326171875
1760000503072,1124215718,11939,21,0.002197265625,-1.00250244140625,0.03143310546875
1760000503072,1124215718,11939,22,0.003173828125,-0.98858642578125,-0.00030517578125
1760000503072,1124215718,11939,23,0.03173828125,-0.97906494140625,-0.03546142578125
1760000503072,1124215718,11939,24,-0.00341796875,-1.00299072265625,-0.00323486328125
1760000503072,1124215718,11939,25,0.020751953125,-1.01129150390625,-0.04766845703125
1760000503072,1124215718,11939,26,-0.001953125,-0.98004150390625,0.02362060546875
1760000503072,1124215718,11939,27,-0.027099609375,-0.99200439453125,0.05950927734375
1760000503072,1124215718,11939,28,0.010498046875,-1.00494384765625,0.01263427734375
1760000503072,1124215718,11939,29,-0.016845703125,-0.99932861328125,0.04583740234375
1760000503072,1124215718,11939,30,0.017333984375,-0.99932861328125,0.07781982421875
1760000503072,1124215718,11939,31,0.004638671875,-0.99664306640625,0.05438232421875
1760000505593,1124218237,11940,0,-0.013671875,-0.99932861328125,0.06683349609375
1760000505593,1124218237,11940,1,-0.001953125,-1.00299072265625,0.06072998046875
1760000505593,1124218237,11940,2,-0.00537109375,-1.00396728515625,0.03875732421875
1760000505593,1124218237,11940,3,0.007568359375,-0.99566650390625,0.03778076171875
1760000505593,1124218237,11940,4,0.007080078125,-1.00006103515625,0.01507568359375
1760000505593,1124218237,11940,5,0.017333984375,-0.99688720703125,0.00726318359375
1760000505593,1124218237,11940,6,0.0107421875,-1.00347900390625,0.01165771484375
1760000505593,1124218237,11940,7,0.0009765625,-0.99273681640625,-0.00445556640625
1760000505593,1124218237,11940,8,-0.0029296875,-0.99810791015625,-0.00738525390625
1760000505593,1124218237,11940,9,0.000732421875,-0.99371337890625,-0.01251220703125
1760000505593,1124218237,11940,10,-0.008544921875,-0.97735595703125,-0.01739501953125
1760000505593,1124218237,11940,11,-0.012939453125,-0.98663330078125,-0.01983642578125
1760000505593,1124218237,11940,12,-0.02880859375,-1.01251220703125,-0.02740478515625
1760000505593,1124218237,11940,13,0.022216796875,-0.99859619140625,-0.04571533203125
1760000505593,1124218237,11940,14,0.01513671875,-0.98785400390625,-0.05084228515625
1760000505593,1124218237,11940,15,0.029052734375,-1.00445556640625,-0.05181884765625
1760000505593,1124218237,11940,16,0.029541015625,-0.99664306640625,-0.04400634765625
1760000505593,1124218237,11940,17,0.027099609375,-0.99395751953125,-0.05743408203125
1760000505593,1124218237,11940,18,0.0439453125,-1.00714111328125,-0.09210205078125
1760000505593,1124218237,11940,19,-0.00927734375,-0.99273681640625,-0.05303955078125
1760000505593,1124218237,11940,20,-0.035888671875,-0.99566650390625,0.05389404296875
1760000505593,1124218237,11940,21,0.014404296875,-1.03179931640625,-0.03594970703125
1760000505593,1124218237,11940,22,0.014404296875,-0.98956298828125,-0.05352783203125
1760000505593,1124218237,11940,23,0.045166015625,-0.98883056640625,-0.07769775390625
1760000505593,1124218237,11940,24,-0.00048828125,-0.98712158203125,0.04705810546875
1760000505593,1124218237,11940,25,-0.000732421875,-1.00225830078125,0.02069091796875
1760000505593,1124218237,11940,26,0.0234375,-1.01593017578125,-0.02838134765625
1760000505593,1124218237,11940,27,0.0244140625,-1.01031494140625,-0.02545166015625
1760000505593,1124218237,11940,28,0.0263671875,-0.98809814453125,0.00115966796875
1760000505593,1124218237,11940,29,0.034912109375,-1.01251220703125,0.00311279296875
1760000505593,1124218237,11940,30,0.016845703125,-0.99371337890625,-0.00128173828125
1760000505593,1124218237,11940,31,0.017578125,-0.99615478515625,0.01483154296875
1760000508120,1124220756,11941,0,0.025146484375,-0.99908447265625,0.02752685546875
1760000508120,1124220756,11941,1,0.0146484375,-0.98614501953125,0.03924560546875
1760000508120,1124220756,11941,2,0.01025390625,-1.00469970703125,0.02532958984375
1760000508120,1124220756,11941,3,0.010009765625,-0.99591064453125,0.04217529296875
1760000508120,1124220756,11941,4,0.010986328125,-1.00445556640625,0.01141357421875
1760000508120,1124220756,11941,5,0.021484375,-0.99395751953125,0.00823974609375
1760000508120,1124220756,11941,6,0.02197265625,-1.00079345703125,-0.00079345703125
1760000508120,1124220756,11941,7,0.019775390625,-0.99688720703125,-0.01470947265625
1760000508120,1124220756,11941,8,0.00927734375,-0.99981689453125,-0.01910400390625
1760000508120,1124220756,11941,9,0.0146484375,-0.99786376953125,-0.03106689453125
1760000508120,1124220756,11941,10,0.01025390625,-0.98443603515625,-0.02935791015625
1760000508120,1124220756,11941,11,0.001220703125,-0.98175048828125,-0.02130126953125
1760000508120,1124220756,11941,12,-0.00244140625,-0.99615478515625,-0.04473876953125
1760000508120,1124220756,11941,13,0.015380859375,-1.00982666015625,-0.03643798828125
1760000508120,1124220756,11941,14,0.028076171875,-0.99322509765625,-0.03839111328125
1760000508120,1124220756,11941,15,0.032958984375,-0.99542236328125,-0.03814697265625
1760000508120,1124220756,11941,16,0.032470703125,-1.00177001953125,-0.04058837890625
1760000508120,1124220756,11941,17,0.040771484375,-0.99664306640625,-0.04962158203125
1760000508120,1124220756,11941,18,0.05322265625,-1.02935791015625,-0.09820556640625
1760000508120,1124220756,11941,19,-0.006103515625,-0.97125244140625,0.00042724609375
1760000508120,1124220756,11941,20,-0.001220703125,-0.98223876953125,0.01507568359375
1760000508120,1124220756,11941,21,0.026611328125,-1.00836181640625,-0.03277587890625
1760000508120,1124220756,11941,22,0.01025390625,-0.99713134765625,-0.00347900390625
1760000508120,1124220756,11941,23,0.02392578125,-1.01446533203125,0.02362060546875
1760000508120,1124220756,11941,24,0.010498046875,-0.99664306640625,0.01507568359375
1760000508120,1124220756,11941,25,0.009765625,-0.99786376953125,0.02752685546875
1760000508120,1124220756,11941,26,0.010986328125,-0.99298095703125,0.02166748046875
1760000508120,1124220756,11941,27,0.016357421875,-0.99786376953125,0.02508544921875
1760000508120,1124220756,11941,28,0.021484375,-1.00567626953125,0.02630615234375
1760000508120,1124220756,11941,29,0.0048828125,-0.99444580078125,0.00726318359375
1760000508120,1124220756,11941,30,0.01904296875,-0.99639892578125,-6.103515625e-05
1760000508120,1124220756,11941,31,0.01318359375,-0.97735595703125,-0.01251220703125
1760000510632,1124223275,11942,0,0.004150390625,-0.99981689453125,0.00506591796875
1760000510632,1124223275,11942,1,0.0263671875,-1.00567626953125,-0.00103759765625
1760000510632,1124223275,11942,2,0.03076171875,-0.99591064453125,-0.02423095703125
1760000510632,1124223275,11942,3,0.048095703125,-1.00103759765625,-0.04498291015625
1760000510632,1124223275,11942,4,0.04150390625,-1.00201416015625,-0.01983642578125
1760000510632,1124223275,11942,5,-0.015380859375,-0.98760986328125,0.07806396484375
1760000510632,1124223275,11942,6,0.024169921875,-0.99932861328125,0.00750732421875
1760000510632,1124223275,11942,7,0.02392578125,-1.00128173828125,-0.01519775390625
1760000510632,1124223275,11942,8,0.02783203125,-0.98907470703125,0.03558349609375
1760000510632,1124223275,11942,9,0.0146484375,-1.00640869140625,0.02679443359375
1760000510632,1124223275,11942,10,0.020751953125,-0.99786376953125,0.03753662109375
1760000510632,1124223275,11942,11,0.021728515625,-0.99273681640625,0.03631591796875
1760000510632,1124223275,11942,12,0.0205078125,-0.99371337890625,0.04241943359375
1760000510632,1124223275,11942,13,0.0234375,-0.99957275390625,0.04559326171875
1760000510632,1124223275,11942,14,0.01318359375,-0.99200439453125,0.04974365234375
1760000510632,1124223275,11942,15,0.02783203125,-0.99151611328125,0.04510498046875
1760000510632,1124223275,11942,16,0.021240234375,-0.99737548828125,0.04315185546875
1760000510632,1124223275,11942,17,0.01904296875,-0.99737548828125,0.02606201171875
1760000510632,1124223275,11942,18,0.0283203125,-1.00006103515625,0.02435302734375
1760000510632,1124223275,11942,19,0.01513671875,-1.00152587890625,0.01068115234375
1760000510632,1124223275,11942,20,0.024169921875,-0.99591064453125,-6.103515625e-05
1760000510632,1124223275,11942,21,0.01513671875,-0.99493408203125,0.00628662109375
1760000510632,1124223275,11942,22,0.01513671875,-0.98712158203125,-0.00347900390625
1760000510632,1124223275,11942,23,0.013427734375,-0.97344970703125,-0.00543212890625
1760000510632,1124223275,11942,24,0.00048828125,-1.01031494140625,-0.01397705078125
1760000510632,1124223275,11942,25,0.01611328125,-0.99591064453125,-0.01617431640625
1760000510632,1124223275,11942,26,0.02734375,-0.98907470703125,-0.04400634765625
1760000510632,1124223275,11942,27,0.030029296875,-1.00640869140625,-0.04083251953125
1760000510632,1124223275,11942,28,0.0341796875,-1.00665283203125,-0.03961181640625
1760000510632,1124223275,11942,29,0.039306640625,-1.00323486328125,-0.03790283203125
1760000510632,1124223275,11942,30,0.0390625,-1.03424072265625,-0.08087158203125
1760000510632,1124223275,11942,31,-0.023193359375,-0.95489501953125,0.05194091796875
1760000513151,1124225794,11943,0,0.021484375,-1.02252197265625,0.00238037109375
1760000513151,1124225794,11943,1,0.00634765625,-0.97442626953125,-0.04791259765625
1760000513151,1124225794,11943,2,0.016845703125,-1.00640869140625,-0.01593017578125
1760000513151,1124225794,11943,3,0.016357421875,-0.99713134765625,-0.01788330078125
1760000513151,1124225794,11943,4,0.02587890625,-1.04278564453125,-0.06060791015625
1760000513151,1124225794,11943,5,-0.03662109375,-0.96661376953125,0.09637451171875
1760000513151,1124225794,11943,6,0.027587890625,-0.98248291015625,0.00360107421875
1760000513151,1124225794,11943,7,0.019775390625,-0.99981689453125,0.02484130859375
1760000513151,1124225794,11943,8,-0.002685546875,-1.01300048828125,0.03924560546875
1760000513151,1124225794,11943,9,0.0166015625,-1.00030517578125,0.04827880859375
1760000513151,1124225794,11943,10,0.0166015625,-0.99810791015625,0.04583740234375
1760000513151,1124225794,11943,11,0.022705078125,-0.99224853515625,0.02777099609375
1760000513151,1124225794,11943,12,0.0126953125,-0.99395751953125,0.06512451171875
1760000513151,1124225794,11943,13,0.01708984375,-0.99566650390625,0.06292724609375
1760000513151,1124225794,11943,14,0.016357421875,-0.99298095703125,0.06243896484375
1760000513151,1124225794,11943,15,0.010986328125,-0.99786376953125,0.06903076171875
1760000513151,1124225794,11943,16,0.013427734375,-0.99615478515625,0.05023193359375
1760000513151,1124225794,11943,17,0.01513671875,-1.00054931640625,0.04339599609375
1760000513151,1124225794,11943,18,0.012451171875,-0.99908447265625,0.03338623046875
1760000513151,1124225794,11943,19,-0.002197265625,-0.99444580078125,0.01605224609375
1760000513151,1124225794,11943,20,0.007080078125,-0.99371337890625,0.01385498046875
1760000513151,1124225794,11943,21,0.0166015625,-0.98785400390625,0.00872802734375
1760000513151,1124225794,11943,22,0.008544921875,-0.98907470703125,0.00482177734375
1760000513151,1124225794,11943,23,0.014404296875,-0.98663330078125,-0.00372314453125
1760000513151,1124225794,11943,24,-0.01318359375,-1.00518798828125,-0.00982666015625
1760000513151,1124225794,11943,25,0.021728515625,-0.99786376953125,0.00042724609375
1760000513151,1124225794,11943,26,0.037841796875,-0.98907470703125,-0.02569580078125
1760000513151,1124225794,11943,27,0.03662109375,-0.99713134765625,-0.02471923828125
1760000513151,1124225794,11943,28,0.033447265625,-1.00006103515625,-0.02374267578125
1760000513151,1124225794,11943,29,0.034912109375,-0.99615478515625,-0.02545166015625
1760000513151,1124225794,11943,30,0.028564453125,-1.00177001953125,-0.03594970703125
1760000513151,1124225794,11943,31,0.036376953125,-0.99371337890625,-0.04083251953125
1760000515671,1124228313,11944,0,0.026611328125,-1.00665283203125,-0.04254150390625
1760000515671,1124228313,11944,1,0.0400390625,-1.01568603515625,-0.07647705078125
1760000515671,1124228313,11944,2,0.00341796875,-0.96759033203125,-0.00054931640625
1760000515671,1124228313,11944,3,-0.02392578125,-0.98614501953125,0.06170654296875
1760000515671,1124228313,11944,4,0.02587890625,-1.01837158203125,-0.03204345703125
1760000515671,1124228313,11944,5,0.010498046875,-0.99957275390625,-0.02642822265625
1760000515671,1124228313,11944,6,-0.003662109375,-0.99102783203125,-0.00909423828125
1760000515671,1124228313,11944,7,0.029541015625,-1.00177001953125,-0.03839111328125
1760000515671,1124228313,11944,8,0.016845703125,-0.99957275390625,-0.00347900390625
1760000515671,1124228313,11944,9,-0.03515625,-0.98809814453125,0.08685302734375
1760000515671,1124228313,11944,10,0.0458984375,-0.99395751953125,-0.01910400390625
1760000515671,1124228313,11944,11,0.00927734375,-1.00543212890625,0.02459716796875
1760000515671,1124228313,11944,12,0.005126953125,-1.01129150390625,0.05511474609375
1760000515671,1124228313,11944,13,0.024169921875,-1.01153564453125,0.05682373046875
1760000515671,1124228313,11944,14,0.0205078125,-0.99151611328125,0.04534912109375
1760000515671,1124228313,11944,15,0.021728515625,-0.99249267578125,0.06488037109375
1760000515671,1124228313,11944,16,0.014892578125,-0.99298095703125,0.05242919921875
1760000515671,1124228313,11944,17,0.01806640625,-0.99273681640625,0.05682373046875
1760000515671,1124228313,11944,18,0.02392578125,-0.98980712890625,0.04339599609375
1760000515671,1124228313,11944,19,0.02197265625,-1.00079345703125,0.03411865234375
1760000515671,1124228313,11944,20,0.02734375,-0.99395751953125,0.02728271484375
1760000515671,1124228313,11944,21,0.030517578125,-0.99371337890625,0.01263427734375
1760000515671,1124228313,11944,22,0.03271484375,-0.99127197265625,0.01361083984375
1760000515671,1124228313,11944,23,0.031982421875,-0.99371337890625,0.00701904296875
1760000515671,1124228313,11944,24,0.0283203125,-0.98541259765625,-0.00250244140625
1760000515671,1124228313,11944,25,0.02734375,-0.99298095703125,-0.00250244140625
1760000515671,1124228313,11944,26,0.0341796875,-0.99468994140625,0.00482177734375
1760000515671,1124228313,11944,27,0.040283203125,-1.00054931640625,-0.00250244140625
1760000515671,1124228313,11944,28,0.0439453125,-0.99639892578125,-0.01031494140625
1760000515671,1124228313,11944,29,0.046142578125,-0.99444580078125,0.00164794921875
1760000515671,1124228313,11944,30,0.052734375,-0.99981689453125,-0.00250244140625
1760000515671,1124228313,11944,31,0.055908203125,-0.99395751953125,-0.00860595703125
1760000518196,1124230832,11945,0,0.052978515625,-1.00030517578125,-0.02203369140625
1760000518196,1124230832,11945,1,0.064208984375,-1.04498291015625,-0.04229736328125
1760000518196,1124230832,11945,2,0.017578125,-0.93414306640625,0.07269287109375
1760000518196,1124230832,11945,3,0.027587890625,-0.99273681640625,0.01727294921875
1760000518196,1124230832,11945,4,0.039794921875,-1.00201416015625,-0.02716064453125
1760000518196,1124230832,11945,5,0.033203125,-0.99224853515625,-0.00982666015625
1760000518196,1124230832,11945,6,0.02978515625,-1.00323486328125,-0.00396728515625
1760000518196,1124230832,11945,7,0.060791015625,-0.99957275390625,-0.06256103515625
1760000518196,1124230832,11945,8,0.00830078125,-0.98150634765625,0.06097412109375
1760000518196,1124230832,11945,9,0.018310546875,-0.98980712890625,0.01971435546875
1760000518196,1124230832,11945,10,0.031982421875,-1.00079345703125,0.01824951171875
1760000518196,1124230832,11945,11,0.0224609375,-0.99664306640625,0.05194091796875
1760000518196,1124230832,11945,12,0.030517578125,-1.00665283203125,0.07537841796875
1760000518196,1124230832,11945,13,0.0234375,-0.99053955078125,0.06365966796875
1760000518196,1124230832,11945,14,0.021240234375,-0.99737548828125,0.06292724609375
1760000518196,1124230832,11945,15,0.0380859375,-0.98614501953125,0.05267333984375
1760000518196,1124230832,11945,16,0.023681640625,-0.99078369140625,0.06292724609375
1760000518196,1124230832,11945,17,0.02734375,-0.99493408203125,0.05926513671875
1760000518196,1124230832,11945,18,0.016357421875,-1.00030517578125,0.07733154296875
1760000518196,1124230832,11945,19,0.016845703125,-0.99151611328125,0.06439208984375
1760000518196,1124230832,11945,20,0.0263671875,-0.99737548828125,0.06072998046875
1760000518196,1124230832,11945,21,0.021484375,-0.99444580078125,0.05364990234375
1760000518196,1124230832,11945,22,0.02734375,-1.00396728515625,0.03704833984375
1760000518196,1124230832,11945,23,0.015380859375,-0.98883056640625,0.01898193359375
1760000518196,1124230832,11945,24,0.01708984375,-0.99420166015625,0.02166748046875
1760000518196,1124230832,11945,25,0.014404296875,-1.00225830078125,0.01239013671875
1760000518196,1124230832,11945,26,0.015625,-0.99005126953125,-0.00762939453125
1760000518196,1124230832,11945,27,0.014892578125,-0.98614501953125,-0.00738525390625
1760000518196,1124230832,11945,28,0.013427734375,-0.98736572265625,-0.02325439453125
1760000518196,1124230832,11945,29,0.010498046875,-1.00201416015625,-0.01007080078125
1760000518196,1124230832,11945,30,0.036865234375,-0.99639892578125,-0.02447509765625
1760000518196,1124230832,11945,31,0.040771484375,-0.99566650390625,-0.04156494140625
1760000520713,1124233351,11946,0,0.033447265625,-1.00006103515625,-0.03033447265625
1760000520713,1124233351,11946,1,0.0390625,-0.99713134765625,-0.04351806640625
1760000520713,1124233351,11946,2,0.031494140625,-1.00079345703125,-0.02764892578125
1760000520713,1124233351,11946,3,0.060791015625,-1.00274658203125,-0.03985595703125
1760000520713,1124233351,11946,4,0.06298828125,-1.00250244140625,-0.06524658203125
1760000520713,1124233351,11946,5,0.0107421875,-0.97808837890625,0.05267333984375
1760000520713,1124233351,11946,6,0.018798828125,-1.02740478515625,0.01678466796875
1760000520713,1124233351,11946,7,0.0107421875,-0.97052001953125,-0.08013916015625
1760000520713,1124233351,11946,8,0.031982421875,-0.98345947265625,-0.06036376953125
1760000520713,1124233351,11946,9,0.018310546875,-1.00421142578125,0.04241943359375
1760000520713,1124233351,11946,10,-0.00244140625,-0.98712158203125,0.02679443359375
1760000520713,1124233351,11946,11,0.0439453125,-1.00640869140625,-0.00347900390625
1760000520713,1124233351,11946,12,0.025634765625,-1.00494384765625,0.02581787109375
1760000520713,1124233351,11946,13,0.03125,-1.00323486328125,0.04022216796875
1760000520713,1124233351,11946,14,0.028564453125,-0.99371337890625,0.03875732421875
1760000520713,1124233351,11946,15,0.04150390625,-0.99176025390625,0.03070068359375
1760000520713,1124233351,11946,16,0.0146484375,-1.00665283203125,0.04119873046875
1760000520713,1124233351,11946,17,0.029541015625,-0.99542236328125,0.05755615234375
1760000520713,1124233351,11946,18,0.01708984375,-0.98956298828125,0.08392333984375
1760000520713,1124233351,11946,19,0.022705078125,-0.98736572265625,0.06854248046875
1760000520713,1124233351,11946,20,0.02490234375,-0.99713134765625,0.07830810546875
1760000520713,1124233351,11946,21,0.02880859375,-0.99102783203125,0.06365966796875
1760000520713,1124233351,11946,22,0.029296875,-0.99786376953125,0.05120849609375
1760000520713,1124233351,11946,23,0.01953125,-0.99517822265625,0.04168701171875
1760000520713,1124233351,11946,24,0.02001953125,-0.98199462890625,0.02947998046875
1760000520713,1124233351,11946,25,0.022216796875,-0.97003173828125,0.01776123046875
1760000520713,1124233351,11946,26,0.010986328125,-1.01104736328125,0.03973388671875
1760000520713,1124233351,11946,27,0.045166015625,-0.98370361328125,-0.01812744140625
1760000520713,1124233351,11946,28,0.037353515625,-1.00567626953125,-0.01519775390625
1760000520713,1124233351,11946,29,0.039306640625,-0.99322509765625,0.00677490234375
1760000520713,1124233351,11946,30,0.06787109375,-1.00714111328125,-0.00689697265625
1760000520713,1124233351,11946,31,0.0400390625,-0.99298095703125,-0.00885009765625
1760000523215,1124235870,11947,0,0.02197265625,-1.02423095703125,-0.03912353515625
1760000523215,1124235870,11947,1,0.0009765625,-0.94757080078125,0.09735107421875
1760000523215,1124235870,11947,2,0.012939453125,-1.01422119140625,0.03485107421875
1760000523215,1124235870,11947,3,0.0107421875,-0.99835205078125,-0.02789306640625
1760000523215,1124235870,11947,4,0.04833984375,-0.99005126953125,0.04144287109375
1760000523215,1124235870,11947,5,0.013427734375,-1.01031494140625,0.03704833984375
1760000523215,1124235870,11947,6,0.012451171875,-0.99908447265625,0.03973388671875
