receivedPhoneTimestamp,respeckTimestamp,packetSeqNum,sampleSeqNum,accelX,accelY,accelZ
1760020649333,78423338,1011,0,-0.2529296875,-0.11846923828125,0.94818115234375
1760020649333,78423338,1011,1,-0.21826171875,-0.09307861328125,0.90936279296875
1760020649333,78423338,1011,2,-0.181640625,-0.07208251953125,0.85858154296875
1760020649333,78423338,1011,3,-0.201416015625,-0.11163330078125,0.90887451171875
1760020649333,78423338,1011,4,-0.178955078125,-0.12603759765625,0.92279052734375
1760020649333,78423338,1011,5,-0.179443359375,-0.12115478515625,0.90447998046875
1760020649333,78423338,1011,6,-0.196044921875,-0.12701416015625,0.91571044921875
1760020649333,78423338,1011,7,-0.2080078125,-0.12969970703125,0.92059326171875
1760020649333,78423338,1011,8,-0.23046875,-0.08380126953125,0.86614990234375
1760020649333,78423338,1011,9,-0.23193359375,-0.02130126953125,0.89202880859375
1760020649333,78423338,1011,10,-0.227783203125,-0.05889892578125,0.90765380859375
1760020649333,78423338,1011,11,-0.228515625,-0.03741455078125,0.92230224609375
1760020649333,78423338,1011,12,-0.21875,-0.03765869140625,0.89495849609375
1760020649333,78423338,1011,13,-0.22607421875,-0.10821533203125,0.91131591796875
1760020649333,78423338,1011,14,-0.20703125,-0.13409423828125,0.90325927734375
1760020649333,78423338,1011,15,-0.185791015625,-0.11358642578125,0.92718505859375
1760020649333,78423338,1011,16,-0.194580078125,-0.08990478515625,0.92474365234375
1760020649333,78423338,1011,17,-0.200927734375,-0.12408447265625,0.87835693359375
1760020649333,78423338,1011,18,-0.178955078125,-0.11163330078125,0.88861083984375
1760020649333,78423338,1011,19,-0.22705078125,-0.13214111328125,0.92034912109375
1760020649333,78423338,1011,20,-0.218994140625,-0.09527587890625,0.88983154296875
1760020649333,78423338,1011,21,-0.197998046875,-0.04254150390625,0.85784912109375
1760020649333,78423338,1011,22,-0.244384765625,-0.05328369140625,0.89984130859375
1760020649333,78423338,1011,23,-0.249267578125,-0.07867431640625,0.91961669921875
1760020649333,78423338,1011,24,-0.22412109375,-0.05426025390625,0.89617919921875
1760020649333,78423338,1011,25,-0.2333984375,-0.06768798828125,0.91497802734375
1760020649333,78423338,1011,26,-0.24609375,-0.08770751953125,0.90008544921875
1760020649333,78423338,1011,27,-0.193603515625,-0.04595947265625,0.87615966796875
1760020649333,78423338,1011,28,-0.260498046875,-0.10308837890625,0.90570068359375
1760020649333,78423338,1011,29,-0.219482421875,-0.09576416015625,0.95819091796875
1760020649333,78423338,1011,30,-0.154541015625,-0.08062744140625,0.87030029296875
1760020649333,78423338,1011,31,-0.245849609375,-0.06793212890625,0.86248779296875
1760020651887,78425911,1012,0,-0.262451171875,-0.09869384765625,0.94134521484375
1760020651887,78425911,1012,1,-0.215576171875,-0.08575439453125,0.91009521484375
1760020651887,78425911,1012,2,-0.208984375,-0.08111572265625,0.87664794921875
1760020651887,78425911,1012,3,-0.240234375,-0.03277587890625,0.89007568359375
1760020651887,78425911,1012,4,-0.24462890625,-0.04498291015625,0.90960693359375
1760020651887,78425911,1012,5,-0.260009765625,-0.07403564453125,0.91839599609375
1760020651887,78425911,1012,6,-0.242431640625,-0.06719970703125,0.91741943359375
1760020651887,78425911,1012,7,-0.239990234375,-0.05303955078125,0.92718505859375
1760020651887,78425911,1012,8,-0.228515625,-0.02032470703125,0.88885498046875
1760020651887,78425911,1012,9,-0.233642578125,-0.14581298828125,0.88153076171875
1760020651887,78425911,1012,10,-0.210693359375,-0.16680908203125,0.89935302734375
1760020651887,78425911,1012,11,-0.187744140625,-0.16778564453125,0.88226318359375
1760020651887,78425911,1012,12,-0.184326171875,-0.14312744140625,0.90350341796875
1760020651887,78425911,1012,13,-0.1923828125,-0.11920166015625,0.89569091796875
1760020651887,78425911,1012,14,-0.1953125,-0.13604736328125,0.89447021484375
1760020651887,78425911,1012,15,-0.19384765625,-0.15362548828125,0.89349365234375
1760020651887,78425911,1012,16,-0.202880859375,-0.10626220703125,0.85321044921875
1760020651887,78425911,1012,17,-0.281005859375,-0.08404541015625,0.95062255859375
1760020651887,78425911,1012,18,-0.23876953125,-0.08624267578125,0.91375732421875
1760020651887,78425911,1012,19,-0.24169921875,-0.09503173828125,0.91595458984375
1760020651887,78425911,1012,20,-0.20556640625,-0.07672119140625,0.81463623046875
1760020651887,78425911,1012,21,-0.284423828125,-0.06817626953125,0.93817138671875
1760020651887,78425911,1012,22,-0.2490234375,-0.09381103515625,0.91448974609375
1760020651887,78425911,1012,23,-0.2177734375,-0.09600830078125,0.88348388671875
1760020651887,78425911,1012,24,-0.24951171875,-0.07061767578125,0.89666748046875
1760020651887,78425911,1012,25,-0.2353515625,-0.06378173828125,0.89251708984375
1760020651887,78425911,1012,26,-0.25927734375,-0.10015869140625,0.89276123046875
1760020651887,78425911,1012,27,-0.2373046875,-0.10064697265625,0.92425537109375
1760020651887,78425911,1012,28,-0.1904296875,-0.06158447265625,0.86297607421875
1760020651887,78425911,1012,29,-0.255859375,-0.08160400390625,0.90399169921875
1760020651887,78425911,1012,30,-0.312744140625,-0.08599853515625,0.91033935546875
1760020651887,78425911,1012,31,-0.1806640625,-0.07476806640625,0.92230224609375
1760020654588,78428484,1013,0,-0.17529296875,-0.06768798828125,0.88616943359375
1760020654588,78428484,1013,1,-0.149169921875,-0.09771728515625,0.91766357421875
1760020654588,78428484,1013,2,-0.271240234375,0.00726318359375,0.90692138671875
1760020654588,78428484,1013,3,-0.34326171875,-0.18804931640625,0.92669677734375
1760020654588,78428484,1013,4,-0.249755859375,-0.16070556640625,0.88104248046875
1760020654588,78428484,1013,5,-0.2431640625,-0.15826416015625,0.88519287109375
1760020654588,78428484,1013,6,-0.13427734375,-0.14117431640625,0.89447021484375
1760020654588,78428484,1013,7,-0.0986328125,-0.10943603515625,0.87835693359375
1760020654588,78428484,1013,8,-0.126953125,-0.12286376953125,0.91278076171875
1760020654588,78428484,1013,9,-0.204345703125,-0.14093017578125,0.88323974609375
1760020654588,78428484,1013,10,-0.2509765625,-0.14483642578125,0.93353271484375
1760020654588,78428484,1013,11,-0.11328125,-0.15313720703125,0.88690185546875
1760020654588,78428484,1013,12,-0.29296875,-0.11065673828125,0.96307373046875
1760020654588,78428484,1013,13,-0.15625,-0.07281494140625,0.86614990234375
1760020654588,78428484,1013,14,-0.274169921875,-0.10870361328125,0.90985107421875
1760020654588,78428484,1013,15,-0.15673828125,-0.11602783203125,0.91058349609375
1760020654588,78428484,1013,16,-0.1201171875,-0.11358642578125,0.90106201171875
1760020654588,78428484,1013,17,-0.16357421875,-0.11358642578125,0.90936279296875
1760020654588,78428484,1013,18,-0.18359375,-0.10064697265625,0.88494873046875
1760020654588,78428484,1013,19,-0.2080078125,-0.13653564453125,0.89959716796875
1760020654588,78428484,1013,20,-0.192626953125,-0.13580322265625,0.89080810546875
1760020654588,78428484,1013,21,-0.177001953125,-0.13287353515625,0.92181396484375
1760020654588,78428484,1013,22,-0.035400390625,-0.23101806640625,0.92987060546875
1760020654588,78428484,1013,23,-0.099365234375,-0.14630126953125,0.89935302734375
1760020654588,78428484,1013,24,-0.0947265625,-0.15924072265625,0.88787841796875
1760020654588,78428484,1013,25,-0.155029296875,-0.13336181640625,0.89935302734375
1760020654588,78428484,1013,26,-0.184326171875,-0.20587158203125,0.93817138671875
1760020654588,78428484,1013,27,-0.158935546875,-0.14630126953125,0.90618896484375
1760020654588,78428484,1013,28,-0.153564453125,-0.14263916015625,0.89349365234375
1760020654588,78428484,1013,29,-0.1669921875,-0.14312744140625,0.90936279296875
1760020654588,78428484,1013,30,-0.18017578125,-0.15069580078125,0.90472412109375
1760020654588,78428484,1013,31,-0.167724609375,-0.15020751953125,0.93035888671875
1760020657131,78431057,1014,0,-0.133056640625,-0.13287353515625,0.91741943359375
1760020657131,78431057,1014,1,-0.1455078125,-0.14581298828125,0.90277099609375
1760020657131,78431057,1014,2,-0.1171875,-0.08404541015625,0.90350341796875
1760020657131,78431057,1014,3,-0.126708984375,-0.09332275390625,0.91571044921875
1760020657131,78431057,1014,4,-0.1298828125,-0.11407470703125,0.92816162109375
1760020657131,78431057,1014,5,-0.123291015625,-0.08843994140625,0.90374755859375
1760020657131,78431057,1014,6,-0.125244140625,-0.08428955078125,0.91033935546875
1760020657131,78431057,1014,7,-0.1240234375,-0.09063720703125,0.86590576171875
1760020657131,78431057,1014,8,-0.181884765625,-0.09063720703125,0.91522216796875
1760020657131,78431057,1014,9,-0.184814453125,-0.14727783203125,0.96063232421875
1760020657131,78431057,1014,10,-0.175537109375,-0.12652587890625,0.92401123046875
1760020657131,78431057,1014,11,-0.182373046875,-0.13458251953125,0.89031982421875
1760020657131,78431057,1014,12,-0.15673828125,-0.07818603515625,0.82830810546875
1760020657131,78431057,1014,13,-0.193115234375,-0.13970947265625,0.98895263671875
1760020657131,78431057,1014,14,-0.172119140625,-0.16998291015625,0.89251708984375
1760020657131,78431057,1014,15,-0.169677734375,-0.14312744140625,0.90887451171875
1760020657131,78431057,1014,16,-0.184326171875,-0.11773681640625,0.86151123046875
1760020657131,78431057,1014,17,-0.199951171875,-0.14117431640625,0.93548583984375
1760020657131,78431057,1014,18,-0.171142578125,-0.21759033203125,0.93597412109375
1760020657131,78431057,1014,19,-0.173583984375,-0.12603759765625,0.87860107421875
1760020657131,78431057,1014,20,-0.18212890625,-0.12188720703125,0.85760498046875
1760020657131,78431057,1014,21,-0.197998046875,-0.19586181640625,0.95208740234375
1760020657131,78431057,1014,22,-0.19287109375,-0.20172119140625,0.90472412109375
1760020657131,78431057,1014,23,-0.17333984375,-0.14459228515625,0.87078857421875
1760020657131,78431057,1014,24,-0.175048828125,-0.16680908203125,0.90936279296875
1760020657131,78431057,1014,25,-0.205322265625,-0.19537353515625,0.89739990234375
1760020657131,78431057,1014,26,-0.190673828125,-0.21173095703125,0.91790771484375
1760020657131,78431057,1014,27,-0.1767578125,-0.18243408203125,0.91766357421875
1760020657131,78431057,1014,28,-0.189208984375,-0.17755126953125,0.91351318359375
1760020657131,78431057,1014,29,-0.15673828125,-0.14923095703125,0.90521240234375
1760020657131,78431057,1014,30,-0.155517578125,-0.12188720703125,0.88885498046875
1760020657131,78431057,1014,31,-0.15234375,-0.11480712890625,0.91180419921875
1760020659834,78433630,1015,0,-0.146484375,-0.09454345703125,0.90570068359375
1760020659834,78433630,1015,1,-0.137939453125,-0.09649658203125,0.90740966796875
1760020659834,78433630,1015,2,-0.142333984375,-0.08966064453125,0.90350341796875
1760020659834,78433630,1015,3,-0.140625,-0.09259033203125,0.89544677734375
1760020659834,78433630,1015,4,-0.142822265625,-0.08038330078125,0.90814208984375
1760020659834,78433630,1015,5,-0.165283203125,-0.10406494140625,0.90057373046875
1760020659834,78433630,1015,6,-0.203125,-0.09796142578125,0.94573974609375
1760020659834,78433630,1015,7,-0.16748046875,-0.13311767578125,0.92620849609375
1760020659834,78433630,1015,8,-0.1640625,-0.08282470703125,0.88787841796875
1760020659834,78433630,1015,9,-0.17822265625,-0.07012939453125,0.88348388671875
1760020659834,78433630,1015,10,-0.202880859375,-0.12237548828125,0.93402099609375
1760020659834,78433630,1015,11,-0.171142578125,-0.14337158203125,0.90423583984375
1760020659834,78433630,1015,12,-0.174560546875,-0.11798095703125,0.91009521484375
1760020659834,78433630,1015,13,-0.192626953125,-0.10186767578125,0.87908935546875
1760020659834,78433630,1015,14,-0.202880859375,-0.14947509765625,0.92669677734375
1760020659834,78433630,1015,15,-0.199462890625,-0.16363525390625,0.91693115234375
1760020659834,78433630,1015,16,-0.16845703125,-0.11138916015625,0.89520263671875
1760020659834,78433630,1015,17,-0.19873046875,-0.13433837890625,0.92987060546875
1760020659834,78433630,1015,18,-0.16845703125,-0.12115478515625,0.90521240234375
1760020659834,78433630,1015,19,-0.161865234375,-0.14166259765625,0.91375732421875
1760020659834,78433630,1015,20,-0.15625,-0.09649658203125,0.90570068359375
1760020659834,78433630,1015,21,-0.152099609375,-0.09307861328125,0.90838623046875
1760020659834,78433630,1015,22,-0.14501953125,-0.11358642578125,0.90740966796875
1760020659834,78433630,1015,23,-0.141357421875,-0.10211181640625,0.91571044921875
1760020659834,78433630,1015,24,-0.147705078125,-0.09088134765625,0.91009521484375
1760020659834,78433630,1015,25,-0.143798828125,-0.10821533203125,0.90545654296875
1760020659834,78433630,1015,26,-0.1484375,-0.09478759765625,0.89837646484375
1760020659834,78433630,1015,27,-0.1435546875,-0.10186767578125,0.89324951171875
1760020659834,78433630,1015,28,-0.1826171875,-0.09552001953125,0.87078857421875
1760020659834,78433630,1015,29,-0.19677734375,-0.06427001953125,0.94647216796875
1760020659834,78433630,1015,30,-0.177490234375,-0.20977783203125,0.96356201171875
1760020659834,78433630,1015,31,-0.157470703125,-0.10284423828125,0.89276123046875
1760020662233,78436204,1016,0,-0.1767578125,-0.06646728515625,0.83685302734375
1760020662233,78436204,1016,1,-0.187255859375,-0.07330322265625,0.92864990234375
1760020662233,78436204,1016,2,-0.20556640625,-0.21881103515625,0.97967529296875
1760020662233,78436204,1016,3,-0.14453125,-0.13970947265625,0.88714599609375
1760020662233,78436204,1016,4,-0.16357421875,-0.08843994140625,0.83856201171875
1760020662233,78436204,1016,5,-0.208984375,-0.09918212890625,0.93621826171875
1760020662233,78436204,1016,6,-0.191650390625,-0.21954345703125,0.94476318359375
1760020662233,78436204,1016,7,-0.156982421875,-0.14996337890625,0.86029052734375
1760020662233,78436204,1016,8,-0.153076171875,-0.07672119140625,0.89154052734375
1760020662233,78436204,1016,9,-0.222900390625,-0.12994384765625,0.92108154296875
1760020662233,78436204,1016,10,-0.236083984375,-0.15240478515625,0.95770263671875
1760020662233,78436204,1016,11,-0.162841796875,-0.16485595703125,0.83807373046875
1760020662233,78436204,1016,12,-0.1806640625,-0.04815673828125,0.87274169921875
1760020662233,78436204,1016,13,-0.254150390625,-0.10968017578125,0.98211669921875
1760020662233,78436204,1016,14,-0.194091796875,-0.14801025390625,0.94720458984375
1760020662233,78436204,1016,15,-0.16650390625,-0.16241455078125,0.88299560546875
1760020662233,78436204,1016,16,-0.180908203125,-0.11187744140625,0.89642333984375
1760020662233,78436204,1016,17,-0.185302734375,-0.10797119140625,0.90643310546875
1760020662233,78436204,1016,18,-0.160400390625,-0.11968994140625,0.90789794921875
1760020662233,78436204,1016,19,-0.14501953125,-0.10845947265625,0.89691162109375
1760020662233,78436204,1016,20,-0.15185546875,-0.10894775390625,0.91693115234375
1760020662233,78436204,1016,21,-0.157470703125,-0.11700439453125,0.90936279296875
1760020662233,78436204,1016,22,-0.146484375,-0.11431884765625,0.90447998046875
1760020662233,78436204,1016,23,-0.140380859375,-0.10723876953125,0.87689208984375
1760020662233,78436204,1016,24,-0.13134765625,-0.08282470703125,0.79168701171875
1760020662233,78436204,1016,25,-0.294677734375,-0.14190673828125,1.06488037109375
1760020662233,78436204,1016,26,-0.145751953125,-0.14971923828125,0.92254638671875
1760020662233,78436204,1016,27,-0.158935546875,-0.14801025390625,0.87518310546875
1760020662233,78436204,1016,28,-0.21337890625,-0.14654541015625,0.85906982421875
1760020662233,78436204,1016,29,-0.173095703125,0.00750732421875,0.87518310546875
1760020662233,78436204,1016,30,-0.204833984375,-0.19268798828125,1.00506591796875
1760020662233,78436204,1016,31,-0.16357421875,-0.18878173828125,0.89764404296875
1760020664781,78438777,1017,0,-0.171875,-0.10870361328125,0.84808349609375
1760020664781,78438777,1017,1,-0.17138671875,-0.09283447265625,0.93499755859375
1760020664781,78438777,1017,2,-0.218994140625,-0.15606689453125,0.93963623046875
1760020664781,78438777,1017,3,-0.19384765625,-0.16168212890625,0.85418701171875
1760020664781,78438777,1017,4,-0.1357421875,-0.16436767578125,0.90252685546875
1760020664781,78438777,1017,5,-0.215087890625,-0.13751220703125,0.94403076171875
1760020664781,78438777,1017,6,-0.205810546875,-0.18316650390625,0.90008544921875
1760020664781,78438777,1017,7,-0.1494140625,-0.14898681640625,0.84613037109375
1760020664781,78438777,1017,8,-0.216796875,-0.16046142578125,0.95013427734375
1760020664781,78438777,1017,9,-0.177001953125,-0.19805908203125,0.95892333984375
1760020664781,78438777,1017,10,-0.160400390625,-0.14727783203125,0.88543701171875
1760020664781,78438777,1017,11,-0.153076171875,-0.12261962890625,0.89422607421875
1760020664781,78438777,1017,12,-0.146240234375,-0.09649658203125,0.90496826171875
1760020664781,78438777,1017,13,-0.13623046875,-0.11993408203125,0.92205810546875
1760020664781,78438777,1017,14,-0.12841796875,-0.08917236328125,0.88201904296875
1760020664781,78438777,1017,15,-0.130615234375,-0.11383056640625,0.89764404296875
1760020664781,78438777,1017,16,-0.142822265625,-0.11041259765625,0.86907958984375
1760020664781,78438777,1017,17,-0.15673828125,-0.05474853515625,0.90814208984375
1760020664781,78438777,1017,18,-0.173828125,-0.15924072265625,1.00140380859375
1760020664781,78438777,1017,19,-0.13720703125,-0.11553955078125,0.90692138671875
1760020664781,78438777,1017,20,-0.160400390625,-0.12481689453125,0.91766357421875
1760020664781,78438777,1017,21,-0.135009765625,-0.08575439453125,0.91595458984375
1760020664781,78438777,1017,22,-0.1416015625,-0.08892822265625,0.90008544921875
1760020664781,78438777,1017,23,-0.1142578125,-0.09893798828125,0.89642333984375
1760020664781,78438777,1017,24,-0.1162109375,-0.10797119140625,0.91693115234375
1760020664781,78438777,1017,25,-0.1201171875,-0.10919189453125,0.91644287109375
1760020664781,78438777,1017,26,-0.118896484375,-0.10357666015625,0.91009521484375
1760020664781,78438777,1017,27,-0.1162109375,-0.11260986328125,0.90423583984375
1760020664781,78438777,1017,28,-0.1142578125,-0.13287353515625,0.92034912109375
1760020664781,78438777,1017,29,-0.12451171875,-0.06671142578125,0.90789794921875
1760020664781,78438777,1017,30,-0.14892578125,-0.07037353515625,0.89349365234375
1760020664781,78438777,1017,31,-0.158203125,-0.12896728515625,0.95867919921875
1760020667330,78441350,1018,0,-0.126953125,-0.16558837890625,0.93353271484375
1760020667330,78441350,1018,1,-0.13623046875,-0.06768798828125,0.88983154296875
1760020667330,78441350,1018,2,-0.148681640625,-0.03839111328125,0.86737060546875
1760020667330,78441350,1018,3,-0.20751953125,-0.05938720703125,0.90887451171875
1760020667330,78441350,1018,4,-0.135986328125,-0.19683837890625,0.98162841796875
1760020667330,78441350,1018,5,-0.13525390625,-0.14263916015625,0.90960693359375
1760020667330,78441350,1018,6,-0.158935546875,-0.04913330078125,0.81634521484375
1760020667330,78441350,1018,7,-0.197265625,-0.01226806640625,0.94061279296875
1760020667330,78441350,1018,8,-0.203857421875,-0.20343017578125,0.96820068359375
1760020667330,78441350,1018,9,-0.13818359375,-0.15216064453125,0.90350341796875
1760020667330,78441350,1018,10,-0.183349609375,-0.08843994140625,0.86566162109375
1760020667330,78441350,1018,11,-0.19775390625,-0.06158447265625,0.87615966796875
1760020667330,78441350,1018,12,-0.237060546875,-0.18658447265625,0.98431396484375
1760020667330,78441350,1018,13,-0.14111328125,-0.17242431640625,0.89251708984375
1760020667330,78441350,1018,14,-0.192138671875,-0.09527587890625,0.84027099609375
1760020667330,78441350,1018,15,-0.205810546875,-0.12115478515625,0.90350341796875
1760020667330,78441350,1018,16,-0.216064453125,-0.16265869140625,0.98504638671875
1760020667330,78441350,1018,17,-0.16357421875,-0.16290283203125,0.91375732421875
1760020667330,78441350,1018,18,-0.15478515625,-0.13873291015625,0.88250732421875
1760020667330,78441350,1018,19,-0.1962890625,-0.12945556640625,0.92498779296875
1760020667330,78441350,1018,20,-0.1640625,-0.10919189453125,0.91033935546875
1760020667330,78441350,1018,21,-0.136474609375,-0.09527587890625,0.88568115234375
1760020667330,78441350,1018,22,-0.1611328125,-0.10650634765625,0.90545654296875
1760020667330,78441350,1018,23,-0.141357421875,-0.10748291015625,0.88470458984375
1760020667330,78441350,1018,24,-0.1318359375,-0.08087158203125,0.83660888671875
1760020667330,78441350,1018,25,-0.205322265625,-0.08209228515625,0.95159912109375
1760020667330,78441350,1018,26,-0.20361328125,-0.19366455078125,0.97406005859375
1760020667330,78441350,1018,27,-0.162353515625,-0.16168212890625,0.90643310546875
1760020667330,78441350,1018,28,-0.171630859375,-0.06964111328125,0.83294677734375
1760020667330,78441350,1018,29,-0.19873046875,-0.06109619140625,0.92425537109375
1760020667330,78441350,1018,30,-0.185302734375,-0.15484619140625,0.95941162109375
1760020667330,78441350,1018,31,-0.167724609375,-0.17169189453125,0.92034912109375
1760020670026,78443923,1019,0,-0.14990234375,-0.06695556640625,0.82659912109375
1760020670026,78443923,1019,1,-0.1953125,-0.04473876953125,0.93719482421875
1760020670026,78443923,1019,2,-0.213623046875,-0.18707275390625,0.96795654296875
1760020670026,78443923,1019,3,-0.163818359375,-0.13043212890625,0.85101318359375
1760020670026,78443923,1019,4,-0.1591796875,-0.06622314453125,0.86517333984375
1760020670026,78443923,1019,5,-0.2099609375,-0.12969970703125,0.98358154296875
1760020670026,78443923,1019,6,-0.210693359375,-0.15704345703125,0.90594482421875
1760020670026,78443923,1019,7,-0.178466796875,-0.11236572265625,0.83099365234375
1760020670026,78443923,1019,8,-0.2041015625,-0.03668212890625,0.95526123046875
1760020670026,78443923,1019,9,-0.201171875,-0.17559814453125,0.98138427734375
1760020670026,78443923,1019,10,-0.13671875,-0.09967041015625,0.87689208984375
1760020670026,78443923,1019,11,-0.181884765625,-0.09332275390625,0.90789794921875
1760020670026,78443923,1019,12,-0.165283203125,-0.08575439453125,0.91107177734375
1760020670026,78443923,1019,13,-0.140380859375,-0.11041259765625,0.90179443359375
1760020670026,78443923,1019,14,-0.144775390625,-0.10504150390625,0.89910888671875
1760020670026,78443923,1019,15,-0.133056640625,-0.10992431640625,0.91326904296875
1760020670026,78443923,1019,16,-0.133544921875,-0.12237548828125,0.91082763671875
1760020670026,78443923,1019,17,-0.12939453125,-0.11114501953125,0.88934326171875
1760020670026,78443923,1019,18,-0.115966796875,-0.10113525390625,0.84271240234375
1760020670026,78443923,1019,19,-0.18359375,-0.06182861328125,0.95794677734375
1760020670026,78443923,1019,20,-0.22900390625,-0.15289306640625,0.98162841796875
1760020670026,78443923,1019,21,-0.127685546875,-0.12872314453125,0.89569091796875
1760020670026,78443923,1019,22,-0.15625,-0.09185791015625,0.83148193359375
1760020670026,78443923,1019,23,-0.22412109375,-0.01373291015625,0.91058349609375
1760020670026,78443923,1019,24,-0.220703125,-0.09649658203125,0.95989990234375
1760020670026,78443923,1019,25,-0.165771484375,-0.15509033203125,0.95306396484375
1760020670026,78443923,1019,26,-0.173095703125,-0.11236572265625,0.82659912109375
1760020670026,78443923,1019,27,-0.197998046875,-0.00689697265625,0.87786865234375
1760020670026,78443923,1019,28,-0.212646484375,-0.12164306640625,0.97357177734375
1760020670026,78443923,1019,29,-0.16357421875,-0.14630126953125,0.92498779296875
1760020670026,78443923,1019,30,-0.19140625,-0.12359619140625,0.91571044921875
1760020670026,78443923,1019,31,-0.160400390625,-0.08184814453125,0.92474365234375
1760020672586,78446496,1020,0,-0.185302734375,-0.11724853515625,0.89569091796875
1760020672586,78446496,1020,1,-0.157958984375,-0.10137939453125,0.89276123046875
1760020672586,78446496,1020,2,-0.1376953125,-0.09967041015625,0.90740966796875
1760020672586,78446496,1020,3,-0.13818359375,-0.10772705078125,0.90789794921875
1760020672586,78446496,1020,4,-0.12744140625,-0.10992431640625,0.88763427734375
1760020672586,78446496,1020,5,-0.151123046875,-0.08966064453125,0.86224365234375
1760020672586,78446496,1020,6,-0.197998046875,-0.08624267578125,0.94598388671875
1760020672586,78446496,1020,7,-0.173583984375,-0.11016845703125,0.96405029296875
1760020672586,78446496,1020,8,-0.1796875,-0.16217041015625,0.92425537109375
1760020672586,78446496,1020,9,-0.153564453125,-0.06671142578125,0.84271240234375
1760020672586,78446496,1020,10,-0.179931640625,-0.00762939453125,0.88031005859375
1760020672586,78446496,1020,11,-0.21142578125,-0.09136962890625,0.96453857421875
1760020672586,78446496,1020,12,-0.170166015625,-0.15655517578125,0.94329833984375
1760020672586,78446496,1020,13,-0.177978515625,-0.07818603515625,0.85174560546875
1760020672586,78446496,1020,14,-0.168212890625,-0.00128173828125,0.90521240234375
1760020672586,78446496,1020,15,-0.20703125,-0.13360595703125,0.95770263671875
1760020672586,78446496,1020,16,-0.155517578125,-0.13262939453125,0.89544677734375
1760020672586,78446496,1020,17,-0.173828125,-0.06427001953125,0.87469482421875
1760020672586,78446496,1020,18,-0.19580078125,-0.08551025390625,0.95819091796875
1760020672586,78446496,1020,19,-0.169677734375,-0.13385009765625,0.90203857421875
1760020672586,78446496,1020,20,-0.18603515625,-0.10430908203125,0.86737060546875
1760020672586,78446496,1020,21,-0.17138671875,-0.08087158203125,0.96063232421875
1760020672586,78446496,1020,22,-0.1650390625,-0.13555908203125,0.93597412109375
1760020672586,78446496,1020,23,-0.170654296875,-0.11138916015625,0.89178466796875
1760020672586,78446496,1020,24,-0.15966796875,-0.10430908203125,0.89544677734375
1760020672586,78446496,1020,25,-0.16259765625,-0.10235595703125,0.91741943359375
1760020672586,78446496,1020,26,-0.14501953125,-0.10284423828125,0.91082763671875
1760020672586,78446496,1020,27,-0.1396484375,-0.10162353515625,0.90667724609375
1760020672586,78446496,1020,28,-0.1435546875,-0.09991455078125,0.89276123046875
1760020672586,78446496,1020,29,-0.142822265625,-0.10845947265625,0.89715576171875
1760020672586,78446496,1020,30,-0.1728515625,-0.08306884765625,0.92401123046875
1760020672586,78446496,1020,31,-0.167236328125,-0.10821533203125,0.93792724609375
1760020675136,78449069,1021,0,-0.158935546875,-0.15093994140625,0.91375732421875
1760020675136,78449069,1021,1,-0.1630859375,-0.09625244140625,0.90057373046875
1760020675136,78449069,1021,2,-0.16162109375,-0.05865478515625,0.89813232421875
1760020675136,78449069,1021,3,-0.200927734375,-0.09991455078125,0.89349365234375
1760020675136,78449069,1021,4,-0.17578125,-0.14923095703125,0.93524169921875
1760020675136,78449069,1021,5,-0.178955078125,-0.11431884765625,0.93304443359375
1760020675136,78449069,1021,6,-0.16064453125,-0.10162353515625,0.92083740234375
1760020675136,78449069,1021,7,-0.1787109375,-0.08868408203125,0.90203857421875
1760020675136,78449069,1021,8,-0.152099609375,-0.13311767578125,0.90570068359375
1760020675136,78449069,1021,9,-0.138916015625,-0.11065673828125,0.91180419921875
1760020675136,78449069,1021,10,-0.14013671875,-0.10552978515625,0.90496826171875
1760020675136,78449069,1021,11,-0.14208984375,-0.12359619140625,0.90399169921875
1760020675136,78449069,1021,12,-0.13525390625,-0.12286376953125,0.90277099609375
1760020675136,78449069,1021,13,-0.140869140625,-0.10186767578125,0.91644287109375
1760020675136,78449069,1021,14,-0.176513671875,-0.08184814453125,0.87786865234375
1760020675136,78449069,1021,15,-0.171875,-0.12457275390625,0.93475341796875
1760020675136,78449069,1021,16,-0.169677734375,-0.16583251953125,0.96136474609375
1760020675136,78449069,1021,17,-0.146728515625,-0.08477783203125,0.89788818359375
1760020675136,78449069,1021,18,-0.14892578125,-0.08258056640625,0.89349365234375
1760020675136,78449069,1021,19,-0.14599609375,-0.12359619140625,0.92059326171875
1760020675136,78449069,1021,20,-0.139892578125,-0.12872314453125,0.91595458984375
1760020675136,78449069,1021,21,-0.13134765625,-0.09283447265625,0.88934326171875
1760020675136,78449069,1021,22,-0.167724609375,-0.08160400390625,0.89520263671875
1760020675136,78449069,1021,23,-0.1669921875,-0.12603759765625,0.91790771484375
1760020675136,78449069,1021,24,-0.16943359375,-0.16265869140625,0.94793701171875
1760020675136,78449069,1021,25,-0.14697265625,-0.08746337890625,0.88909912109375
1760020675136,78449069,1021,26,-0.15478515625,-0.07525634765625,0.87713623046875
1760020675136,78449069,1021,27,-0.1689453125,-0.05865478515625,0.89056396484375
1760020675136,78449069,1021,28,-0.20263671875,-0.17291259765625,0.96966552734375
1760020675136,78449069,1021,29,-0.16259765625,-0.14263916015625,0.94061279296875
1760020675136,78449069,1021,30,-0.1611328125,-0.09185791015625,0.88958740234375
1760020675136,78449069,1021,31,-0.17333984375,-0.06427001953125,0.89691162109375
1760020677679,78451642,1022,0,-0.15869140625,-0.14215087890625,0.91424560546875
1760020677679,78451642,1022,1,-0.1357421875,-0.13018798828125,0.91497802734375
1760020677679,78451642,1022,2,-0.138916015625,-0.08966064453125,0.89056396484375
1760020677679,78451642,1022,3,-0.1455078125,-0.09796142578125,0.88592529296875
1760020677679,78451642,1022,4,-0.185791015625,-0.10528564453125,0.91204833984375
1760020677679,78451642,1022,5,-0.1572265625,-0.12384033203125,0.93792724609375
1760020677679,78451642,1022,6,-0.1630859375,-0.14727783203125,0.95037841796875
1760020677679,78451642,1022,7,-0.1630859375,-0.10430908203125,0.90252685546875
1760020677679,78451642,1022,8,-0.14306640625,-0.08038330078125,0.89202880859375
1760020677679,78451642,1022,9,-0.150634765625,-0.12261962890625,0.90472412109375
1760020677679,78451642,1022,10,-0.134765625,-0.13336181640625,0.90716552734375
1760020677679,78451642,1022,11,-0.1279296875,-0.11163330078125,0.87762451171875
1760020677679,78451642,1022,12,-0.170654296875,-0.10528564453125,0.92474365234375
1760020677679,78451642,1022,13,-0.176025390625,-0.08380126953125,0.88421630859375
1760020677679,78451642,1022,14,-0.169921875,-0.14581298828125,0.95477294921875
1760020677679,78451642,1022,15,-0.15478515625,-0.18365478515625,0.95697021484375
1760020677679,78451642,1022,16,-0.15673828125,-0.06988525390625,0.89569091796875
1760020677679,78451642,1022,17,-0.156982421875,-0.09722900390625,0.90203857421875
1760020677679,78451642,1022,18,-0.143798828125,-0.12823486328125,0.90887451171875
1760020677679,78451642,1022,19,-0.126953125,-0.12799072265625,0.91253662109375
1760020677679,78451642,1022,20,-0.137939453125,-0.09381103515625,0.88177490234375
1760020677679,78451642,1022,21,-0.15283203125,-0.10748291015625,0.91400146484375
1760020677679,78451642,1022,22,-0.17919921875,-0.10357666015625,0.90667724609375
1760020677679,78451642,1022,23,-0.15673828125,-0.09649658203125,0.90301513671875
1760020677679,78451642,1022,24,-0.183837890625,-0.11138916015625,0.94354248046875
1760020677679,78451642,1022,25,-0.173095703125,-0.12872314453125,0.96209716796875
1760020677679,78451642,1022,26,-0.1455078125,-0.07257080078125,0.87738037109375
1760020677679,78451642,1022,27,-0.158935546875,-0.09674072265625,0.89056396484375
1760020677679,78451642,1022,28,-0.15478515625,-0.10992431640625,0.90594482421875
1760020677679,78451642,1022,29,-0.1357421875,-0.09796142578125,0.89788818359375
1760020677679,78451642,1022,30,-0.13818359375,-0.09234619140625,0.89105224609375
1760020677679,78451642,1022,31,-0.17041015625,-0.09234619140625,0.90496826171875
