receivedPhoneTimestamp,respeckTimestamp,packetSeqNum,sampleSeqNum,accelX,accelY,accelZ
1759319574104,415000279,4845,18,-0.884765625,-0.01812744140625,-0.64093017578125
1759319574104,415000279,4845,19,-0.886474609375,-0.02154541015625,-0.62799072265625
1759319574104,415000279,4845,20,-0.949951171875,0.01947021484375,-0.54840087890625
1759319574104,415000279,4845,21,-0.98876953125,0.04486083984375,-0.27886962890625
1759319574104,415000279,4845,22,-0.8779296875,-0.04107666015625,-0.57379150390625
1759319574104,415000279,4845,23,-0.84033203125,-0.06646728515625,-0.67340087890625
1759319574104,415000279,4845,24,-0.845703125,-0.05938720703125,-0.66046142578125
1759319574104,415000279,4845,25,-0.8388671875,-0.03228759765625,-0.67486572265625
1759319574104,415000279,4845,26,-0.8095703125,-0.01470947265625,-0.69635009765625
1759319574104,415000279,4845,27,-0.790771484375,-0.00225830078125,-0.70196533203125
1759319574104,415000279,4845,28,-0.7646484375,-0.00323486328125,-0.72735595703125
1759319574104,415000279,4845,29,-0.73291015625,-0.02349853515625,-0.77008056640625
1759319574104,415000279,4845,30,-0.716796875,-0.03521728515625,-0.76910400390625
1759319574104,415000279,4845,31,-0.694580078125,-0.03057861328125,-0.79327392578125
1759319576054,415002822,4846,0,-0.67236328125,-0.02349853515625,-0.80255126953125
1759319576054,415002822,4846,1,-0.642333984375,-0.01202392578125,-0.84381103515625
1759319576054,415002822,4846,2,-0.63037109375,-0.00689697265625,-0.83282470703125
1759319576054,415002822,4846,3,-0.627685546875,-0.00909423828125,-0.86114501953125
1759319576054,415002822,4846,4,-0.656494140625,-0.01104736328125,-0.79449462890625
1759319576054,415002822,4846,5,-0.69140625,-0.01959228515625,-0.86016845703125
1759319576054,415002822,4846,6,-0.8203125,0.01141357421875,-0.63336181640625
1759319576054,415002822,4846,7,-0.859375,-0.02691650390625,-0.59161376953125
1759319576054,415002822,4846,8,-0.826171875,-0.03082275390625,-0.70172119140625
1759319576054,415002822,4846,9,-0.85107421875,-0.00787353515625,-0.61016845703125
1759319576054,415002822,4846,10,-0.823486328125,-0.00738525390625,-0.66851806640625
1759319576054,415002822,4846,11,-0.776611328125,-0.01959228515625,-0.73248291015625
1759319576054,415002822,4846,12,-0.753662109375,-0.01007080078125,-0.73687744140625
1759319576054,415002822,4846,13,-0.7421875,-0.02032470703125,-0.76373291015625
1759319576054,415002822,4846,14,-0.73876953125,-0.01715087890625,-0.75445556640625
1759319576054,415002822,4846,15,-0.73486328125,-0.02276611328125,-0.75714111328125
1759319576054,415002822,4846,16,-0.731201171875,-0.02301025390625,-0.75909423828125
1759319576054,415002822,4846,17,-0.72705078125,-0.02154541015625,-0.76251220703125
1759319576054,415002822,4846,18,-0.723876953125,-0.02349853515625,-0.76104736328125
1759319576054,415002822,4846,19,-0.722412109375,-0.01470947265625,-0.77008056640625
1759319576054,415002822,4846,20,-0.709716796875,-0.01788330078125,-0.78741455078125
1759319576054,415002822,4846,21,-0.712646484375,-0.01885986328125,-0.77398681640625
1759319576054,415002822,4846,22,-0.7109375,-0.02252197265625,-0.77471923828125
1759319576054,415002822,4846,23,-0.71630859375,-0.02154541015625,-0.77618408203125
1759319576054,415002822,4846,24,-0.743408203125,-0.01910400390625,-0.76348876953125
1759319576054,415002822,4846,25,-0.793701171875,-0.00885009765625,-0.69439697265625
1759319576054,415002822,4846,26,-0.81005859375,-0.01129150390625,-0.67901611328125
1759319576054,415002822,4846,27,-0.798583984375,-0.01641845703125,-0.70806884765625
1759319576054,415002822,4846,28,-0.80224609375,-0.00933837890625,-0.69830322265625
1759319576054,415002822,4846,29,-0.800537109375,-0.01275634765625,-0.68829345703125
1759319576054,415002822,4846,30,-0.787109375,-0.01226806640625,-0.70880126953125
1759319576054,415002822,4846,31,-0.7802734375,-0.02081298828125,-0.71759033203125
1759319578589,415005365,4847,0,-0.764892578125,-0.02471923828125,-0.72808837890625
1759319578589,415005365,4847,1,-0.75634765625,-0.02618408203125,-0.75128173828125
1759319578589,415005365,4847,2,-0.7685546875,-0.01861572265625,-0.73272705078125
1759319578589,415005365,4847,3,-0.786865234375,-0.02398681640625,-0.72222900390625
1759319578589,415005365,4847,4,-0.863037109375,-0.01275634765625,-0.60748291015625
1759319578589,415005365,4847,5,-0.875244140625,-0.01690673828125,-0.58184814453125
1759319578589,415005365,4847,6,-0.850341796875,-0.02886962890625,-0.65460205078125
1759319578589,415005365,4847,7,-0.839599609375,-0.01568603515625,-0.65045166015625
1759319578589,415005365,4847,8,-0.84423828125,-0.01861572265625,-0.65338134765625
1759319578589,415005365,4847,9,-0.88232421875,-0.01251220703125,-0.59796142578125
1759319578589,415005365,4847,10,-0.84765625,-0.02276611328125,-0.63043212890625
1759319578589,415005365,4847,11,-0.835205078125,-0.03497314453125,-0.65582275390625
1759319578589,415005365,4847,12,-0.800048828125,-0.02276611328125,-0.69097900390625
1759319578589,415005365,4847,13,-0.755859375,-0.02032470703125,-0.74444580078125
1759319578589,415005365,4847,14,-0.736083984375,-0.02178955078125,-0.75469970703125
1759319578589,415005365,4847,15,-0.71728515625,-0.02325439453125,-0.77154541015625
1759319578589,415005365,4847,16,-0.7021484375,-0.02471923828125,-0.78521728515625
1759319578589,415005365,4847,17,-0.68603515625,-0.02545166015625,-0.79986572265625
1759319578589,415005365,4847,18,-0.6767578125,-0.01861572265625,-0.80841064453125
1759319578589,415005365,4847,19,-0.67041015625,-0.00885009765625,-0.81451416015625
1759319578589,415005365,4847,20,-0.673095703125,-0.00347900390625,-0.81353759765625
1759319578589,415005365,4847,21,-0.6826171875,0.00018310546875,-0.80670166015625
1759319578589,415005365,4847,22,-0.69091796875,0.00701904296875,-0.79962158203125
1759319578589,415005365,4847,23,-0.70361328125,0.01995849609375,-0.78546142578125
1759319578589,415005365,4847,24,-0.72900390625,0.01702880859375,-0.76812744140625
1759319578589,415005365,4847,25,-0.73046875,0.02947998046875,-0.74957275390625
1759319578589,415005365,4847,26,-0.7578125,0.02581787109375,-0.70416259765625
1759319578589,415005365,4847,27,-0.781005859375,0.00506591796875,-0.73931884765625
1759319578589,415005365,4847,28,-0.81689453125,0.02557373046875,-0.68780517578125
1759319578589,415005365,4847,29,-0.84130859375,0.00140380859375,-0.66339111328125
1759319578589,415005365,4847,30,-0.864501953125,-0.00250244140625,-0.61236572265625
1759319578589,415005365,4847,31,-0.864990234375,0.00164794921875,-0.58599853515625
1759319581513,415007908,4848,0,-0.8671875,0.03460693359375,-0.63287353515625
1759319581513,415007908,4848,1,-0.900634765625,0.04388427734375,-0.56793212890625
1759319581513,415007908,4848,2,-0.91064453125,0.01361083984375,-0.54058837890625
1759319581513,415007908,4848,3,-0.90185546875,0.00653076171875,-0.58746337890625
1759319581513,415007908,4848,4,-0.926513671875,-0.01885986328125,-0.49786376953125
1759319581513,415007908,4848,5,-0.89697265625,0.00360107421875,-0.53936767578125
1759319581513,415007908,4848,6,-0.85400390625,-0.00885009765625,-0.68365478515625
1759319581513,415007908,4848,7,-0.827880859375,-0.00689697265625,-0.66168212890625
1759319581513,415007908,4848,8,-0.814208984375,-0.01275634765625,-0.68853759765625
1759319581513,415007908,4848,9,-0.802734375,-0.01763916015625,-0.70220947265625
1759319581513,415007908,4848,10,-0.796875,-0.02667236328125,-0.69854736328125
1759319581513,415007908,4848,11,-0.795654296875,-0.02935791015625,-0.70684814453125
1759319581513,415007908,4848,12,-0.798583984375,-0.02325439453125,-0.70245361328125
1759319581513,415007908,4848,13,-0.813720703125,-0.01959228515625,-0.68804931640625
1759319581513,415007908,4848,14,-0.8330078125,-0.01763916015625,-0.69122314453125
1759319581513,415007908,4848,15,-0.913818359375,-0.00347900390625,-0.66363525390625
1759319581513,415007908,4848,16,-0.925537109375,-0.01348876953125,-0.33282470703125
1759319581513,415007908,4848,17,-0.927490234375,-0.05914306640625,-0.46319580078125
1759319581513,415007908,4848,18,-0.82373046875,-0.04986572265625,-0.71417236328125
1759319581513,415007908,4848,19,-0.79736328125,-0.04156494140625,-0.74615478515625
1759319581513,415007908,4848,20,-0.875244140625,-0.02496337890625,-0.57403564453125
1759319581513,415007908,4848,21,-0.884765625,-0.05499267578125,-0.58404541015625
1759319581513,415007908,4848,22,-0.842041015625,-0.04058837890625,-0.64117431640625
1759319581513,415007908,4848,23,-0.798583984375,-0.03936767578125,-0.72662353515625
1759319581513,415007908,4848,24,-0.7900390625,-0.03472900390625,-0.70635986328125
1759319581513,415007908,4848,25,-0.768798828125,-0.03863525390625,-0.73590087890625
1759319581513,415007908,4848,26,-0.75634765625,-0.04791259765625,-0.73126220703125
1759319581513,415007908,4848,27,-0.748046875,-0.04473876953125,-0.73956298828125
1759319581513,415007908,4848,28,-0.739501953125,-0.04449462890625,-0.74713134765625
1759319581513,415007908,4848,29,-0.721435546875,-0.03350830078125,-0.77154541015625
1759319581513,415007908,4848,30,-0.705322265625,-0.02252197265625,-0.78521728515625
1759319581513,415007908,4848,31,-0.69189453125,-0.02178955078125,-0.79010009765625
1759319583658,415010451,4849,0,-0.6787109375,-0.02056884765625,-0.81597900390625
1759319583658,415010451,4849,1,-0.677490234375,-0.02642822265625,-0.81280517578125
1759319583658,415010451,4849,2,-0.705322265625,-0.02178955078125,-0.77862548828125
1759319583658,415010451,4849,3,-0.717529296875,-0.01837158203125,-0.77374267578125
1759319583658,415010451,4849,4,-0.7294921875,-0.01934814453125,-0.76348876953125
1759319583658,415010451,4849,5,-0.7158203125,-0.02667236328125,-0.76031494140625
1759319583658,415010451,4849,6,-0.80517578125,-0.01739501953125,-0.72833251953125
1759319583658,415010451,4849,7,-0.865234375,0.00433349609375,-0.58453369140625
1759319583658,415010451,4849,8,-0.81884765625,-0.04229736328125,-0.67584228515625
1759319583658,415010451,4849,9,-0.80322265625,-0.06353759765625,-0.68682861328125
1759319583658,415010451,4849,10,-0.765380859375,-0.04718017578125,-0.74127197265625
1759319583658,415010451,4849,11,-0.7578125,-0.03326416015625,-0.73614501953125
1759319583658,415010451,4849,12,-0.74853515625,-0.02032470703125,-0.74127197265625
1759319583658,415010451,4849,13,-0.738037109375,-0.02032470703125,-0.75640869140625
1759319583658,415010451,4849,14,-0.7236328125,-0.02960205078125,-0.76861572265625
1759319583658,415010451,4849,15,-0.703857421875,-0.02984619140625,-0.78033447265625
1759319583658,415010451,4849,16,-0.70751953125,-0.02447509765625,-0.77764892578125
1759319583658,415010451,4849,17,-0.700927734375,-0.02032470703125,-0.79010009765625
1759319583658,415010451,4849,18,-0.69775390625,-0.01739501953125,-0.77911376953125
1759319583658,415010451,4849,19,-0.68701171875,-0.02252197265625,-0.80157470703125
1759319583658,415010451,4849,20,-0.676025390625,-0.01544189453125,-0.80938720703125
1759319583658,415010451,4849,21,-0.671630859375,-0.01177978515625,-0.81060791015625
1759319583658,415010451,4849,22,-0.663818359375,-0.01910400390625,-0.82135009765625
1759319583658,415010451,4849,23,-0.658447265625,-0.01763916015625,-0.79962158203125
1759319583658,415010451,4849,24,-0.743896484375,-0.01348876953125,-0.78399658203125
1759319583658,415010451,4849,25,-0.780029296875,-0.01397705078125,-0.68853759765625
1759319583658,415010451,4849,26,-0.761962890625,-0.01373291015625,-0.73321533203125
1759319583658,415010451,4849,27,-0.814697265625,-0.01129150390625,-0.69390869140625
1759319583658,415010451,4849,28,-0.830322265625,-0.01397705078125,-0.60601806640625
1759319583658,415010451,4849,29,-0.760009765625,-0.02716064453125,-0.76715087890625
1759319583658,415010451,4849,30,-0.742431640625,-0.02056884765625,-0.74639892578125
1759319583658,415010451,4849,31,-0.734619140625,-0.02032470703125,-0.75372314453125
1759319586388,415012994,4850,0,-0.724609375,-0.02716064453125,-0.77398681640625
1759319586388,415012994,4850,1,-0.70654296875,-0.02838134765625,-0.77740478515625
1759319586388,415012994,4850,2,-0.697021484375,-0.03350830078125,-0.79058837890625
1759319586388,415012994,4850,3,-0.682861328125,-0.03057861328125,-0.80523681640625
1759319586388,415012994,4850,4,-0.688232421875,-0.03033447265625,-0.79815673828125
1759319586388,415012994,4850,5,-0.68359375,-0.02935791015625,-0.79864501953125
1759319586388,415012994,4850,6,-0.68017578125,-0.02911376953125,-0.80230712890625
1759319586388,415012994,4850,7,-0.67578125,-0.02789306640625,-0.80596923828125
1759319586388,415012994,4850,8,-0.674072265625,-0.03057861328125,-0.81475830078125
1759319586388,415012994,4850,9,-0.68994140625,-0.03009033203125,-0.79595947265625
1759319586388,415012994,4850,10,-0.709228515625,-0.02886962890625,-0.77276611328125
1759319586388,415012994,4850,11,-0.718994140625,-0.03009033203125,-0.78643798828125
1759319586388,415012994,4850,12,-0.77099609375,-0.02032470703125,-0.73004150390625
1759319586388,415012994,4850,13,-0.7607421875,-0.01959228515625,-0.69537353515625
1759319586388,415012994,4850,14,-0.723876953125,-0.04083251953125,-0.78887939453125
1759319586388,415012994,4850,15,-0.73779296875,-0.03326416015625,-0.75006103515625
1759319586388,415012994,4850,16,-0.737548828125,-0.03302001953125,-0.74322509765625
1759319586388,415012994,4850,17,-0.718505859375,-0.03961181640625,-0.77911376953125
1759319586388,415012994,4850,18,-0.708251953125,-0.03472900390625,-0.77569580078125
1759319586388,415012994,4850,19,-0.707275390625,-0.03863525390625,-0.78082275390625
1759319586388,415012994,4850,20,-0.70166015625,-0.03985595703125,-0.79010009765625
1759319586388,415012994,4850,21,-0.706298828125,-0.03619384765625,-0.77960205078125
1759319586388,415012994,4850,22,-0.703125,-0.03692626953125,-0.78155517578125
1759319586388,415012994,4850,23,-0.703125,-0.03399658203125,-0.78155517578125
1759319586388,415012994,4850,24,-0.702392578125,-0.03497314453125,-0.78155517578125
1759319586388,415012994,4850,25,-0.69775390625,-0.03741455078125,-0.79034423828125
1759319586388,415012994,4850,26,-0.692626953125,-0.03521728515625,-0.79425048828125
1759319586388,415012994,4850,27,-0.69091796875,-0.03643798828125,-0.79742431640625
1759319586388,415012994,4850,28,-0.705810546875,-0.03594970703125,-0.78350830078125
1759319586388,415012994,4850,29,-0.7314453125,-0.03179931640625,-0.76153564453125
1759319586388,415012994,4850,30,-0.759765625,-0.03448486328125,-0.73394775390625
1759319586388,415012994,4850,31,-0.77392578125,-0.03546142578125,-0.71710205078125
1759319588922,415015537,4851,0,-0.7763671875,-0.03277587890625,-0.72442626953125
1759319588922,415015537,4851,1,-0.76611328125,-0.03570556640625,-0.73175048828125
1759319588922,415015537,4851,2,-0.760498046875,-0.03741455078125,-0.72955322265625
1759319588922,415015537,4851,3,-0.750244140625,-0.03765869140625,-0.73687744140625
1759319588922,415015537,4851,4,-0.728271484375,-0.03863525390625,-0.76397705078125
1759319588922,415015537,4851,5,-0.71923828125,-0.04034423828125,-0.77130126953125
1759319588922,415015537,4851,6,-0.697998046875,-0.04058837890625,-0.79937744140625
1759319588922,415015537,4851,7,-0.7099609375,-0.03814697265625,-0.76910400390625
1759319588922,415015537,4851,8,-0.712890625,-0.03472900390625,-0.77301025390625
1759319588922,415015537,4851,9,-0.7099609375,-0.03399658203125,-0.77886962890625
1759319588922,415015537,4851,10,-0.711669921875,-0.03057861328125,-0.77349853515625
1759319588922,415015537,4851,11,-0.71240234375,-0.02764892578125,-0.77178955078125
1759319588922,415015537,4851,12,-0.709716796875,-0.02398681640625,-0.77301025390625
1759319588922,415015537,4851,13,-0.71630859375,-0.03619384765625,-0.79205322265625
1759319588922,415015537,4851,14,-0.771240234375,-0.02374267578125,-0.73419189453125
1759319588922,415015537,4851,15,-0.853759765625,-0.01080322265625,-0.62286376953125
1759319588922,415015537,4851,16,-0.8681640625,-0.03424072265625,-0.57916259765625
1759319588922,415015537,4851,17,-0.844482421875,-0.03033447265625,-0.68585205078125
1759319588922,415015537,4851,18,-0.871826171875,-0.02447509765625,-0.60797119140625
1759319588922,415015537,4851,19,-0.8740234375,-0.03106689453125,-0.58526611328125
1759319588922,415015537,4851,20,-0.85009765625,-0.03472900390625,-0.63360595703125
1759319588922,415015537,4851,21,-0.804931640625,-0.02569580078125,-0.69976806640625
1759319588922,415015537,4851,22,-0.7783203125,-0.02618408203125,-0.73516845703125
1759319588922,415015537,4851,23,-0.7744140625,-0.02813720703125,-0.72052001953125
1759319588922,415015537,4851,24,-0.763671875,-0.02301025390625,-0.73614501953125
1759319588922,415015537,4851,25,-0.759765625,-0.01959228515625,-0.72882080078125
1759319588922,415015537,4851,26,-0.754150390625,-0.02276611328125,-0.74542236328125
1759319588922,415015537,4851,27,-0.749267578125,-0.01812744140625,-0.74249267578125
1759319588922,415015537,4851,28,-0.744140625,-0.02056884765625,-0.74542236328125
1759319588922,415015537,4851,29,-0.744140625,-0.01495361328125,-0.74884033203125
1759319588922,415015537,4851,30,-0.743408203125,-0.01715087890625,-0.74566650390625
1759319588922,415015537,4851,31,-0.741943359375,-0.02081298828125,-0.75201416015625
1759319591459,415018080,4852,0,-0.7314453125,-0.02520751953125,-0.76861572265625
1759319591459,415018080,4852,1,-0.728759765625,-0.02471923828125,-0.75592041015625
1759319591459,415018080,4852,2,-0.727294921875,-0.02276611328125,-0.76690673828125
1759319591459,415018080,4852,3,-0.7197265625,-0.01788330078125,-0.76715087890625
1759319591459,415018080,4852,4,-0.714599609375,-0.01177978515625,-0.77716064453125
1759319591459,415018080,4852,5,-0.72314453125,-0.03302001953125,-0.78277587890625
1759319591459,415018080,4852,6,-0.781494140625,-0.02813720703125,-0.70562744140625
1759319591459,415018080,4852,7,-0.822265625,-0.01202392578125,-0.67828369140625
1759319591459,415018080,4852,8,-0.833740234375,-0.01593017578125,-0.65484619140625
1759319591459,415018080,4852,9,-0.84912109375,-0.03057861328125,-0.65777587890625
1759319591459,415018080,4852,10,-0.84375,-0.04522705078125,-0.71148681640625
1759319591459,415018080,4852,11,-0.903076171875,-0.00982666015625,-0.46099853515625
1759319591459,415018080,4852,12,-0.897216796875,-0.02008056640625,-0.50152587890625
1759319591459,415018080,4852,13,-0.784423828125,-0.05035400390625,-0.75885009765625
1759319591459,415018080,4852,14,-0.76806640625,-0.02960205078125,-0.74517822265625
1759319591459,415018080,4852,15,-0.8173828125,-0.02740478515625,-0.67974853515625
1759319591459,415018080,4852,16,-0.833251953125,-0.03350830078125,-0.63629150390625
1759319591459,415018080,4852,17,-0.7333984375,-0.04083251953125,-0.77618408203125
1759319591459,415018080,4852,18,-0.71826171875,-0.05108642578125,-0.78326416015625
1759319591459,415018080,4852,19,-0.716796875,-0.04278564453125,-0.76544189453125
1759319591459,415018080,4852,20,-0.71533203125,-0.04034423828125,-0.77374267578125
1759319591459,415018080,4852,21,-0.700439453125,-0.03424072265625,-0.78521728515625
1759319591459,415018080,4852,22,-0.684326171875,-0.03448486328125,-0.79864501953125
1759319591459,415018080,4852,23,-0.676025390625,-0.03277587890625,-0.80963134765625
1759319591459,415018080,4852,24,-0.673828125,-0.03497314453125,-0.79962158203125
1759319591459,415018080,4852,25,-0.6591796875,-0.02423095703125,-0.81988525390625
1759319591459,415018080,4852,26,-0.6435546875,-0.02325439453125,-0.82769775390625
1759319591459,415018080,4852,27,-0.63671875,-0.02301025390625,-0.83209228515625
1759319591459,415018080,4852,28,-0.636474609375,-0.02569580078125,-0.83795166015625
1759319591459,415018080,4852,29,-0.647216796875,-0.02667236328125,-0.82525634765625
1759319591459,415018080,4852,30,-0.658447265625,-0.01812744140625,-0.81158447265625
1759319591459,415018080,4852,31,-0.662841796875,-0.01690673828125,-0.81256103515625
1759319593799,415020623,4853,0,-0.64111328125,-0.01861572265625,-0.83306884765625
1759319593799,415020623,4853,1,-0.632568359375,-0.01617431640625,-0.83038330078125
1759319593799,415020623,4853,2,-0.623291015625,-0.01422119140625,-0.84552001953125
1759319593799,415020623,4853,3,-0.633056640625,-0.01177978515625,-0.83966064453125
1759319593799,415020623,4853,4,-0.64990234375,-0.00811767578125,-0.80743408203125
1759319593799,415020623,4853,5,-0.64794921875,-0.01446533203125,-0.83258056640625
1759319593799,415020623,4853,6,-0.665771484375,-0.01763916015625,-0.81231689453125
1759319593799,415020623,4853,7,-0.67822265625,-0.02081298828125,-0.80377197265625
1759319593799,415020623,4853,8,-0.6982421875,-0.01910400390625,-0.81939697265625
1759319593799,415020623,4853,9,-0.755615234375,-0.00250244140625,-0.77423095703125
1759319593799,415020623,4853,10,-0.856689453125,0.00091552734375,-0.53009033203125
1759319593799,415020623,4853,11,-0.95166015625,-0.02227783203125,-0.51324462890625
1759319593799,415020623,4853,12,-0.783935546875,-0.00714111328125,-0.69635009765625
1759319593799,415020623,4853,13,-0.798583984375,-0.01739501953125,-0.71978759765625
1759319593799,415020623,4853,14,-0.787109375,-0.01763916015625,-0.71685791015625
1759319593799,415020623,4853,15,-0.738525390625,-0.02325439453125,-0.74908447265625
1759319593799,415020623,4853,16,-0.720947265625,-0.02545166015625,-0.76885986328125
1759319593799,415020623,4853,17,-0.700439453125,-0.02471923828125,-0.79278564453125
1759319593799,415020623,4853,18,-0.698974609375,-0.02545166015625,-0.78692626953125
1759319593799,415020623,4853,19,-0.701171875,-0.02764892578125,-0.78521728515625
1759319593799,415020623,4853,20,-0.7001953125,-0.02569580078125,-0.78155517578125
1759319593799,415020623,4853,21,-0.69775390625,-0.02740478515625,-0.78765869140625
1759319593799,415020623,4853,22,-0.69482421875,-0.03033447265625,-0.79205322265625
1759319593799,415020623,4853,23,-0.6865234375,-0.02935791015625,-0.79351806640625
1759319593799,415020623,4853,24,-0.68896484375,-0.02838134765625,-0.79351806640625
1759319593799,415020623,4853,25,-0.687744140625,-0.02911376953125,-0.79107666015625
1759319593799,415020623,4853,26,-0.682373046875,-0.02593994140625,-0.79400634765625
1759319593799,415020623,4853,27,-0.676513671875,-0.02618408203125,-0.80987548828125
1759319593799,415020623,4853,28,-0.668212890625,-0.02935791015625,-0.81451416015625
1759319593799,415020623,4853,29,-0.67138671875,-0.02813720703125,-0.81280517578125
1759319593799,415020623,4853,30,-0.67041015625,-0.02740478515625,-0.80743408203125
1759319593799,415020623,4853,31,-0.673095703125,-0.02447509765625,-0.81280517578125
1759319596333,415023166,4854,0,-0.668212890625,-0.03204345703125,-0.77642822265625
1759319596333,415023166,4854,1,-0.66455078125,-0.02691650390625,-0.87994384765625
1759319596333,415023166,4854,2,-0.693603515625,-0.02471923828125,-0.78985595703125
1759319596333,415023166,4854,3,-0.740234375,-0.02984619140625,-0.74444580078125
1759319596333,415023166,4854,4,-0.781005859375,-0.02764892578125,-0.70050048828125
1759319596333,415023166,4854,5,-0.7509765625,-0.03277587890625,-0.72735595703125
1759319596333,415023166,4854,6,-0.72607421875,-0.03448486328125,-0.77252197265625
1759319596333,415023166,4854,7,-0.737548828125,-0.03521728515625,-0.76153564453125
1759319596333,415023166,4854,8,-0.7392578125,-0.02716064453125,-0.74957275390625
1759319596333,415023166,4854,9,-0.705810546875,-0.04473876953125,-0.77325439453125
1759319596333,415023166,4854,10,-0.69091796875,-0.05206298828125,-0.80718994140625
1759319596333,415023166,4854,11,-0.693603515625,-0.04449462890625,-0.78594970703125
1759319596333,415023166,4854,12,-0.69970703125,-0.04595947265625,-0.78961181640625
1759319596333,415023166,4854,13,-0.70263671875,-0.03741455078125,-0.78057861328125
1759319596333,415023166,4854,14,-0.704345703125,-0.03790283203125,-0.77862548828125
1759319596333,415023166,4854,15,-0.701171875,-0.03936767578125,-0.78350830078125
1759319596333,415023166,4854,16,-0.699462890625,-0.03497314453125,-0.78399658203125
1759319596333,415023166,4854,17,-0.70654296875,-0.03594970703125,-0.77276611328125
1759319596333,415023166,4854,18,-0.7080078125,-0.03497314453125,-0.78033447265625
1759319596333,415023166,4854,19,-0.71142578125,-0.03424072265625,-0.77642822265625
1759319596333,415023166,4854,20,-0.708984375,-0.03497314453125,-0.77667236328125
1759319596333,415023166,4854,21,-0.705322265625,-0.03204345703125,-0.78570556640625
1759319596333,415023166,4854,22,-0.71728515625,-0.03277587890625,-0.76641845703125
1759319596333,415023166,4854,23,-0.716552734375,-0.02813720703125,-0.76446533203125
1759319596333,415023166,4854,24,-0.7119140625,-0.02764892578125,-0.77764892578125
1759319596333,415023166,4854,25,-0.697265625,-0.02960205078125,-0.78717041015625
1759319596333,415023166,4854,26,-0.6904296875,-0.02886962890625,-0.79644775390625
1759319596333,415023166,4854,27,-0.682373046875,-0.02960205078125,-0.79888916015625
1759319596333,415023166,4854,28,-0.674072265625,-0.02252197265625,-0.80865478515625
1759319596333,415023166,4854,29,-0.669677734375,-0.02056884765625,-0.81500244140625
1759319596333,415023166,4854,30,-0.667236328125,-0.02862548828125,-0.79937744140625
1759319596333,415023166,4854,31,-0.658447265625,-0.03643798828125,-0.80499267578125
1759319598868,415025709,4855,0,-0.684326171875,-0.03179931640625,-0.86260986328125
1759319598868,415025709,4855,1,-0.75,-0.02764892578125,-0.70855712890625
1759319598868,415025709,4855,2,-0.783935546875,-0.02447509765625,-0.66168212890625
1759319598868,415025709,4855,3,-0.728271484375,-0.04840087890625,-0.77374267578125
1759319598868,415025709,4855,4,-0.706298828125,-0.04034423828125,-0.79888916015625
1759319598868,415025709,4855,5,-0.71484375,-0.03619384765625,-0.79791259765625
1759319598868,415025709,4855,6,-0.82080078125,-0.02886962890625,-0.65069580078125
1759319598868,415025709,4855,7,-0.802734375,-0.02520751953125,-0.65753173828125
1759319598868,415025709,4855,8,-0.724609375,-0.05255126953125,-0.78668212890625
1759319598868,415025709,4855,9,-0.779052734375,-0.04962158203125,-0.72784423828125
1759319598868,415025709,4855,10,-0.796875,-0.03082275390625,-0.65631103515625
1759319598868,415025709,4855,11,-0.76171875,-0.04962158203125,-0.76373291015625
1759319598868,415025709,4855,12,-0.76220703125,-0.03717041015625,-0.72369384765625
1759319598868,415025709,4855,13,-0.7509765625,-0.03814697265625,-0.73760986328125
1759319598868,415025709,4855,14,-0.73095703125,-0.04278564453125,-0.77081298828125
1759319598868,415025709,4855,15,-0.728271484375,-0.04107666015625,-0.76226806640625
1759319598868,415025709,4855,16,-0.72314453125,-0.03839111328125,-0.76373291015625
1759319598868,415025709,4855,17,-0.723388671875,-0.03863525390625,-0.76934814453125
1759319598868,415025709,4855,18,-0.7177734375,-0.04107666015625,-0.77520751953125
1759319598868,415025709,4855,19,-0.718017578125,-0.03936767578125,-0.76593017578125
1759319598868,415025709,4855,20,-0.714111328125,-0.03814697265625,-0.77349853515625
1759319598868,415025709,4855,21,-0.707275390625,-0.03692626953125,-0.78375244140625
1759319598868,415025709,4855,22,-0.70166015625,-0.03717041015625,-0.78546142578125
1759319598868,415025709,4855,23,-0.6982421875,-0.03619384765625,-0.81280517578125
1759319598868,415025709,4855,24,-0.7431640625,-0.03082275390625,-0.72906494140625
1759319598868,415025709,4855,25,-0.754638671875,-0.03692626953125,-0.72540283203125
1759319598868,415025709,4855,26,-0.7451171875,-0.03228759765625,-0.75421142578125
1759319598868,415025709,4855,27,-0.741943359375,-0.03033447265625,-0.75274658203125
1759319598868,415025709,4855,28,-0.736572265625,-0.03057861328125,-0.75250244140625
1759319598868,415025709,4855,29,-0.72998046875,-0.02716064453125,-0.76568603515625
1759319598868,415025709,4855,30,-0.724365234375,-0.01959228515625,-0.76470947265625
1759319598868,415025709,4855,31,-0.71923828125,-0.01837158203125,-0.77056884765625
1759319601403,415028253,4856,0,-0.7177734375,-0.01641845703125,-0.77056884765625
1759319601403,415028253,4856,1,-0.7138671875,-0.01519775390625,-0.77252197265625
1759319601403,415028253,4856,2,-0.70703125,-0.02130126953125,-0.78277587890625
1759319601403,415028253,4856,3,-0.703857421875,-0.04058837890625,-0.82525634765625
1759319601403,415028253,4856,4,-0.7822265625,-0.00054931640625,-0.69415283203125
1759319601403,415028253,4856,5,-0.81494140625,-0.01788330078125,-0.64971923828125
1759319601403,415028253,4856,6,-0.79248046875,-0.02691650390625,-0.71417236328125
1759319601403,415028253,4856,7,-0.751708984375,-0.03009033203125,-0.73199462890625
1759319601403,415028253,4856,8,-0.73486328125,-0.02911376953125,-0.76495361328125
1759319601403,415028253,4856,9,-0.722900390625,-0.02032470703125,-0.77105712890625
1759319601403,415028253,4856,10,-0.71533203125,-0.01812744140625,-0.77130126953125
1759319601403,415028253,4856,11,-0.704345703125,-0.01837158203125,-0.78497314453125
1759319601403,415028253,4856,12,-0.701171875,-0.02325439453125,-0.78472900390625
1759319601403,415028253,4856,13,-0.704345703125,-0.02423095703125,-0.78228759765625
1759319601403,415028253,4856,14,-0.708740234375,-0.02423095703125,-0.77764892578125
1759319601403,415028253,4856,15,-0.70751953125,-0.02593994140625,-0.77691650390625
1759319601403,415028253,4856,16,-0.70703125,-0.02178955078125,-0.78155517578125
1759319601403,415028253,4856,17,-0.71240234375,-0.02838134765625,-0.77886962890625
1759319601403,415028253,4856,18,-0.7109375,-0.02813720703125,-0.78033447265625
1759319601403,415028253,4856,19,-0.71240234375,-0.02618408203125,-0.77252197265625
1759319601403,415028253,4856,20,-0.711181640625,-0.02105712890625,-0.77398681640625
1759319601403,415028253,4856,21,-0.7041015625,-0.02667236328125,-0.78717041015625
1759319601403,415028253,4856,22,-0.701171875,-0.02862548828125,-0.78448486328125
1759319601403,415028253,4856,23,-0.70703125,-0.02642822265625,-0.78350830078125
1759319601403,415028253,4856,24,-0.711181640625,-0.02593994140625,-0.77496337890625
1759319601403,415028253,4856,25,-0.7197265625,-0.03228759765625,-0.77862548828125
1759319601403,415028253,4856,26,-0.744140625,-0.03472900390625,-0.74346923828125
1759319601403,415028253,4856,27,-0.778076171875,-0.03570556640625,-0.72247314453125
1759319601403,415028253,4856,28,-0.804443359375,-0.04156494140625,-0.73883056640625
1759319601403,415028253,4856,29,-0.87646484375,-0.02130126953125,-0.57110595703125
1759319601403,415028253,4856,30,-0.90478515625,-0.00445556640625,-0.46002197265625
1759319601403,415028253,4856,31,-0.812255859375,-0.04156494140625,-0.72735595703125
1759319603938,415030796,4857,0,-0.78564453125,-0.04522705078125,-0.72808837890625
1759319603938,415030796,4857,1,-0.820556640625,-0.02105712890625,-0.66387939453125
1759319603938,415030796,4857,2,-0.750244140625,-0.03985595703125,-0.73028564453125
1759319603938,415030796,4857,3,-0.718017578125,-0.04107666015625,-0.78643798828125
1759319603938,415030796,4857,4,-0.710693359375,-0.04180908203125,-0.77569580078125
1759319603938,415030796,4857,5,-0.708984375,-0.04595947265625,-0.77911376953125
1759319603938,415030796,4857,6,-0.7080078125,-0.04840087890625,-0.78033447265625
1759319603938,415030796,4857,7,-0.705322265625,-0.04473876953125,-0.78009033203125
1759319603938,415030796,4857,8,-0.70361328125,-0.04107666015625,-0.78228759765625
1759319603938,415030796,4857,9,-0.704833984375,-0.03912353515625,-0.78131103515625
1759319603938,415030796,4857,10,-0.704833984375,-0.03814697265625,-0.78155517578125
1759319603938,415030796,4857,11,-0.70849609375,-0.03326416015625,-0.77911376953125
1759319603938,415030796,4857,12,-0.711181640625,-0.03399658203125,-0.77593994140625
1759319603938,415030796,4857,13,-0.720458984375,-0.03302001953125,-0.76422119140625
1759319603938,415030796,4857,14,-0.71630859375,-0.03497314453125,-0.77203369140625
1759319603938,415030796,4857,15,-0.7109375,-0.03399658203125,-0.77764892578125
1759319603938,415030796,4857,16,-0.703125,-0.03033447265625,-0.78204345703125
1759319603938,415030796,4857,17,-0.69482421875,-0.03057861328125,-0.79254150390625
1759319603938,415030796,4857,18,-0.69189453125,-0.02130126953125,-0.79791259765625
1759319603938,415030796,4857,19,-0.68701171875,-0.02471923828125,-0.80816650390625
1759319603938,415030796,4857,20,-0.6943359375,-0.03179931640625,-0.77935791015625
1759319603938,415030796,4857,21,-0.70654296875,-0.03106689453125,-0.78839111328125
1759319603938,415030796,4857,22,-0.727783203125,-0.03009033203125,-0.77203369140625
1759319603938,415030796,4857,23,-0.748779296875,-0.03228759765625,-0.74932861328125
1759319603938,415030796,4857,24,-0.78173828125,-0.03961181640625,-0.74444580078125
1759319603938,415030796,4857,25,-0.84912109375,-0.02789306640625,-0.64898681640625
1759319603938,415030796,4857,26,-0.894287109375,-0.01177978515625,-0.46734619140625
1759319603938,415030796,4857,27,-0.812255859375,-0.03082275390625,-0.70294189453125
1759319603938,415030796,4857,28,-0.77099609375,-0.03741455078125,-0.73687744140625
1759319603938,415030796,4857,29,-0.787109375,-0.03155517578125,-0.72540283203125
1759319603938,415030796,4857,30,-0.852294921875,-0.02423095703125,-0.65386962890625
1759319603938,415030796,4857,31,-0.876708984375,-0.00958251953125,-0.53839111328125
1759319606473,415033339,4858,0,-0.7880859375,-0.05377197265625,-0.73468017578125
