receivedPhoneTimestamp,respeckTimestamp,packetSeqNum,sampleSeqNum,accelX,accelY,accelZ
1759920464264,1123246222,37099,0,-0.063720703125,-0.99932861328125,-0.03302001953125
1759920464264,1123246222,37099,1,-0.058349609375,-0.99908447265625,-0.03228759765625
1759920464264,1123246222,37099,2,-0.06689453125,-0.99957275390625,-0.03106689453125
1759920464264,1123246222,37099,3,-0.063232421875,-1.00347900390625,-0.02593994140625
1759920464264,1123246222,37099,4,-0.068603515625,-0.99786376953125,-0.02935791015625
1759920464264,1123246222,37099,5,-0.06884765625,-0.99249267578125,-0.02447509765625
1759920464264,1123246222,37099,6,-0.07177734375,-0.99493408203125,-0.01788330078125
1759920464264,1123246222,37099,7,-0.070068359375,-1.00372314453125,-0.02716064453125
1759920464264,1123246222,37099,8,-0.0654296875,-0.99981689453125,-0.03302001953125
1759920464264,1123246222,37099,9,-0.06982421875,-0.99810791015625,-0.02862548828125
1759920464264,1123246222,37099,10,-0.068359375,-0.99835205078125,-0.02301025390625
1759920464264,1123246222,37099,11,-0.065185546875,-0.99664306640625,-0.02593994140625
1759920464264,1123246222,37099,12,-0.068115234375,-0.99932861328125,-0.02813720703125
1759920464264,1123246222,37099,13,-0.063232421875,-1.00079345703125,-0.02301025390625
1759920464264,1123246222,37099,14,-0.067138671875,-0.99932861328125,-0.02593994140625
1759920464264,1123246222,37099,15,-0.064453125,-1.00299072265625,-0.02740478515625
1759920464264,1123246222,37099,16,-0.066650390625,-0.99786376953125,-0.02691650390625
1759920464264,1123246222,37099,17,-0.06396484375,-0.99493408203125,-0.03057861328125
1759920464264,1123246222,37099,18,-0.06591796875,-1.00006103515625,-0.02569580078125
1759920464264,1123246222,37099,19,-0.066650390625,-0.99957275390625,-0.02569580078125
1759920464264,1123246222,37099,20,-0.06494140625,-1.00030517578125,-0.02252197265625
1759920464264,1123246222,37099,21,-0.063720703125,-0.99664306640625,-0.02471923828125
1759920464264,1123246222,37099,22,-0.063720703125,-0.99859619140625,-0.02691650390625
1759920464264,1123246222,37099,23,-0.064208984375,-1.00054931640625,-0.02960205078125
1759920464264,1123246222,37099,24,-0.068115234375,-1.00054931640625,-0.02886962890625
1759920464264,1123246222,37099,25,-0.064697265625,-1.00152587890625,-0.02984619140625
1759920464264,1123246222,37099,26,-0.065185546875,-1.00128173828125,-0.02740478515625
1759920464264,1123246222,37099,27,-0.06494140625,-0.99957275390625,-0.02716064453125
1759920464264,1123246222,37099,28,-0.069091796875,-0.99420166015625,-0.02252197265625
1759920464264,1123246222,37099,29,-0.069091796875,-0.99761962890625,-0.02545166015625
1759920464264,1123246222,37099,30,-0.068603515625,-1.00054931640625,-0.01983642578125
1759920464264,1123246222,37099,31,-0.0771484375,-0.99932861328125,-0.02203369140625
1759920466787,1123248796,37100,0,-0.06982421875,-0.99493408203125,-0.01983642578125
1759920466787,1123248796,37100,1,-0.071533203125,-0.99664306640625,-0.02276611328125
1759920466787,1123248796,37100,2,-0.072021484375,-0.99713134765625,-0.02325439453125
1759920466787,1123248796,37100,3,-0.0693359375,-0.99688720703125,-0.02154541015625
1759920466787,1123248796,37100,4,-0.070068359375,-0.99932861328125,-0.02056884765625
1759920466787,1123248796,37100,5,-0.071533203125,-0.99591064453125,-0.02154541015625
1759920466787,1123248796,37100,6,-0.07080078125,-0.99835205078125,-0.02056884765625
1759920466787,1123248796,37100,7,-0.07421875,-1.00128173828125,-0.02301025390625
1759920466787,1123248796,37100,8,-0.079833984375,-0.99639892578125,-0.03033447265625
1759920466787,1123248796,37100,9,-0.071044921875,-0.99761962890625,-0.02520751953125
1759920466787,1123248796,37100,10,-0.073974609375,-0.99981689453125,-0.02301025390625
1759920466787,1123248796,37100,11,-0.069580078125,-1.00079345703125,-0.02276611328125
1759920466787,1123248796,37100,12,-0.07177734375,-0.99615478515625,-0.02642822265625
1759920466787,1123248796,37100,13,-0.071044921875,-0.99395751953125,-0.02789306640625
1759920466787,1123248796,37100,14,-0.07666015625,-0.99639892578125,-0.02301025390625
1759920466787,1123248796,37100,15,-0.068603515625,-0.99884033203125,-0.02520751953125
1759920466787,1123248796,37100,16,-0.072021484375,-1.00201416015625,-0.02520751953125
1759920466787,1123248796,37100,17,-0.07080078125,-1.00103759765625,-0.02618408203125
1759920466787,1123248796,37100,18,-0.072509765625,-0.99493408203125,-0.02325439453125
1759920466787,1123248796,37100,19,-0.07763671875,-1.00054931640625,-0.02740478515625
1759920466787,1123248796,37100,20,-0.072265625,-0.99908447265625,-0.02227783203125
1759920466787,1123248796,37100,21,-0.072509765625,-0.99566650390625,-0.02325439453125
1759920466787,1123248796,37100,22,-0.072509765625,-1.00128173828125,-0.02154541015625
1759920466787,1123248796,37100,23,-0.0712890625,-1.00079345703125,-0.02545166015625
1759920466787,1123248796,37100,24,-0.0751953125,-0.99786376953125,-0.02130126953125
1759920466787,1123248796,37100,25,-0.07421875,-0.99810791015625,-0.02227783203125
1759920466787,1123248796,37100,26,-0.076171875,-0.99542236328125,-0.01959228515625
1759920466787,1123248796,37100,27,-0.07177734375,-1.00177001953125,-0.02374267578125
1759920466787,1123248796,37100,28,-0.071044921875,-1.00225830078125,-0.01666259765625
1759920466787,1123248796,37100,29,-0.0703125,-1.00030517578125,-0.01373291015625
1759920466787,1123248796,37100,30,-0.068115234375,-0.99688720703125,-0.02056884765625
1759920466787,1123248796,37100,31,-0.068115234375,-1.00177001953125,-0.01544189453125
1759920469307,1123251369,37101,0,-0.06591796875,-0.99713134765625,-0.01666259765625
1759920469307,1123251369,37101,1,-0.07470703125,-0.99908447265625,-0.01861572265625
1759920469307,1123251369,37101,2,-0.07275390625,-0.99468994140625,-0.01593017578125
1759920469307,1123251369,37101,3,-0.072021484375,-0.99615478515625,-0.01129150390625
1759920469307,1123251369,37101,4,-0.073974609375,-0.99737548828125,-0.01617431640625
1759920469307,1123251369,37101,5,-0.069091796875,-0.99957275390625,-0.01593017578125
1759920469307,1123251369,37101,6,-0.069580078125,-0.99859619140625,-0.02130126953125
1759920469307,1123251369,37101,7,-0.06884765625,-1.00030517578125,-0.02130126953125
1759920469307,1123251369,37101,8,-0.071044921875,-1.00006103515625,-0.02227783203125
1759920469307,1123251369,37101,9,-0.07080078125,-0.99884033203125,-0.01641845703125
1759920469307,1123251369,37101,10,-0.0673828125,-0.99981689453125,-0.01617431640625
1759920469307,1123251369,37101,11,-0.06982421875,-1.00054931640625,-0.01373291015625
1759920469307,1123251369,37101,12,-0.07421875,-1.00543212890625,-0.00518798828125
1759920469307,1123251369,37101,13,-0.06689453125,-0.99639892578125,-0.02569580078125
1759920469307,1123251369,37101,14,-0.0703125,-1.00103759765625,-0.02520751953125
1759920469307,1123251369,37101,15,-0.069091796875,-1.00054931640625,-0.02691650390625
1759920469307,1123251369,37101,16,-0.0703125,-0.99639892578125,-0.03106689453125
1759920469307,1123251369,37101,17,-0.068603515625,-0.99395751953125,-0.03765869140625
1759920469307,1123251369,37101,18,-0.07275390625,-1.00006103515625,-0.02496337890625
1759920469307,1123251369,37101,19,-0.069580078125,-0.99835205078125,-0.03692626953125
1759920469307,1123251369,37101,20,-0.06884765625,-1.00518798828125,-0.04254150390625
1759920469307,1123251369,37101,21,-0.070556640625,-0.99713134765625,-0.03155517578125
1759920469307,1123251369,37101,22,-0.0693359375,-1.00201416015625,-0.03668212890625
1759920469307,1123251369,37101,23,-0.07275390625,-0.99591064453125,-0.03424072265625
1759920469307,1123251369,37101,24,-0.069091796875,-1.00054931640625,-0.03472900390625
1759920469307,1123251369,37101,25,-0.070556640625,-0.99713134765625,-0.03594970703125
1759920469307,1123251369,37101,26,-0.071044921875,-1.00079345703125,-0.03741455078125
1759920469307,1123251369,37101,27,-0.072021484375,-1.00006103515625,-0.03106689453125
1759920469307,1123251369,37101,28,-0.072509765625,-1.00054931640625,-0.03082275390625
1759920469307,1123251369,37101,29,-0.072509765625,-1.00006103515625,-0.02911376953125
1759920469307,1123251369,37101,30,-0.0712890625,-1.00225830078125,-0.03302001953125
1759920469307,1123251369,37101,31,-0.0703125,-0.99859619140625,-0.03131103515625
1759920472007,1123253942,37102,0,-0.069580078125,-1.00006103515625,-0.02886962890625
1759920472007,1123253942,37102,1,-0.0703125,-0.99932861328125,-0.03399658203125
1759920472007,1123253942,37102,2,-0.073486328125,-0.99957275390625,-0.02911376953125
1759920472007,1123253942,37102,3,-0.073486328125,-1.00201416015625,-0.02862548828125
1759920472007,1123253942,37102,4,-0.075927734375,-0.99786376953125,-0.03009033203125
1759920472007,1123253942,37102,5,-0.07177734375,-0.99835205078125,-0.03131103515625
1759920472007,1123253942,37102,6,-0.072021484375,-0.99786376953125,-0.02740478515625
1759920472007,1123253942,37102,7,-0.070068359375,-0.99688720703125,-0.02935791015625
1759920472007,1123253942,37102,8,-0.072509765625,-1.00225830078125,-0.02960205078125
1759920472007,1123253942,37102,9,-0.071533203125,-0.99932861328125,-0.02960205078125
1759920472007,1123253942,37102,10,-0.0732421875,-0.99639892578125,-0.02740478515625
1759920472007,1123253942,37102,11,-0.074951171875,-0.99908447265625,-0.02545166015625
1759920472007,1123253942,37102,12,-0.072021484375,-1.00128173828125,-0.02886962890625
1759920472007,1123253942,37102,13,-0.0712890625,-0.99810791015625,-0.02032470703125
1759920472007,1123253942,37102,14,-0.070556640625,-0.99810791015625,-0.01983642578125
1759920472007,1123253942,37102,15,-0.07080078125,-0.99957275390625,-0.01983642578125
1759920472007,1123253942,37102,16,-0.0693359375,-0.99957275390625,-0.02203369140625
1759920472007,1123253942,37102,17,-0.073974609375,-0.99835205078125,-0.01690673828125
1759920472007,1123253942,37102,18,-0.073974609375,-1.00201416015625,-0.01837158203125
1759920472007,1123253942,37102,19,-0.073486328125,-0.99566650390625,-0.01690673828125
1759920472007,1123253942,37102,20,-0.06982421875,-1.00372314453125,-0.02227783203125
1759920472007,1123253942,37102,21,-0.07421875,-0.99713134765625,-0.02154541015625
1759920472007,1123253942,37102,22,-0.072509765625,-0.99444580078125,-0.01495361328125
1759920472007,1123253942,37102,23,-0.08056640625,-0.99615478515625,-0.01910400390625
1759920472007,1123253942,37102,24,-0.06494140625,-1.00274658203125,-0.01129150390625
1759920472007,1123253942,37102,25,-0.072998046875,-1.00225830078125,-0.01300048828125
1759920472007,1123253942,37102,26,-0.072021484375,-1.00030517578125,-0.01617431640625
1759920472007,1123253942,37102,27,-0.07080078125,-0.99542236328125,-0.02203369140625
1759920472007,1123253942,37102,28,-0.0693359375,-0.99957275390625,-0.02203369140625
1759920472007,1123253942,37102,29,-0.0693359375,-1.00201416015625,-0.02105712890625
1759920472007,1123253942,37102,30,-0.06689453125,-0.99810791015625,-0.01470947265625
1759920472007,1123253942,37102,31,-0.064208984375,-0.99981689453125,-0.01812744140625
1759920474515,1123256515,37103,0,-0.065673828125,-0.99517822265625,-0.01983642578125
1759920474515,1123256515,37103,1,-0.070556640625,-1.00006103515625,-0.01031494140625
1759920474515,1123256515,37103,2,-0.0673828125,-0.99859619140625,-0.00860595703125
1759920474515,1123256515,37103,3,-0.06884765625,-1.00030517578125,-0.00836181640625
1759920474515,1123256515,37103,4,-0.0693359375,-1.00030517578125,-0.01348876953125
1759920474515,1123256515,37103,5,-0.0673828125,-0.99859619140625,-0.00909423828125
1759920474515,1123256515,37103,6,-0.0703125,-0.99542236328125,-0.00592041015625
1759920474515,1123256515,37103,7,-0.07177734375,-0.99591064453125,-0.00201416015625
1759920474515,1123256515,37103,8,-0.075439453125,-0.99713134765625,-0.00469970703125
1759920474515,1123256515,37103,9,-0.072509765625,-0.99859619140625,-0.00640869140625
1759920474515,1123256515,37103,10,-0.07275390625,-0.99591064453125,-0.00811767578125
1759920474515,1123256515,37103,11,-0.071533203125,-0.99786376953125,-0.00225830078125
1759920474515,1123256515,37103,12,-0.070556640625,-0.99810791015625,-0.00518798828125
1759920474515,1123256515,37103,13,-0.067138671875,-0.99761962890625,-0.01007080078125
1759920474515,1123256515,37103,14,-0.066650390625,-0.99444580078125,-0.00909423828125
1759920474515,1123256515,37103,15,-0.0693359375,-0.99835205078125,-0.00396728515625
1759920474515,1123256515,37103,16,-0.0693359375,-0.99566650390625,-0.00201416015625
1759920474515,1123256515,37103,17,-0.0703125,-0.99566650390625,-0.00177001953125
1759920474515,1123256515,37103,18,-0.069580078125,-0.99810791015625,-0.01104736328125
1759920474515,1123256515,37103,19,-0.071044921875,-0.99615478515625,-0.00177001953125
1759920474515,1123256515,37103,20,-0.068359375,-0.99761962890625,-0.00518798828125
1759920474515,1123256515,37103,21,-0.0673828125,-1.00103759765625,-0.00372314453125
1759920474515,1123256515,37103,22,-0.072021484375,-0.99859619140625,-0.00445556640625
1759920474515,1123256515,37103,23,-0.06494140625,-1.00445556640625,-0.00103759765625
1759920474515,1123256515,37103,24,-0.07275390625,-0.99444580078125,-0.00396728515625
1759920474515,1123256515,37103,25,-0.065673828125,-0.99957275390625,-0.00909423828125
1759920474515,1123256515,37103,26,-0.078369140625,-1.00128173828125,-0.00445556640625
1759920474515,1123256515,37103,27,-0.0693359375,-0.99932861328125,-0.01885986328125
1759920474515,1123256515,37103,28,-0.06640625,-1.00225830078125,-0.02569580078125
1759920474515,1123256515,37103,29,-0.072021484375,-0.99639892578125,-0.02838134765625
1759920474515,1123256515,37103,30,-0.06396484375,-0.99859619140625,-0.03863525390625
1759920474515,1123256515,37103,31,-0.0693359375,-0.99810791015625,-0.04962158203125
1759920477048,1123259082,37104,0,-0.071533203125,-0.99078369140625,-0.04278564453125
1759920477048,1123259082,37104,1,-0.07177734375,-1.00714111328125,-0.05474853515625
1759920477048,1123259082,37104,2,-0.075927734375,-0.99639892578125,-0.04400634765625
1759920477048,1123259082,37104,3,-0.07275390625,-1.00347900390625,-0.04449462890625
1759920477048,1123259082,37104,4,-0.07275390625,-1.00299072265625,-0.04449462890625
1759920477048,1123259082,37104,5,-0.072021484375,-0.99932861328125,-0.04400634765625
1759920477048,1123259082,37104,6,-0.073974609375,-0.99615478515625,-0.04254150390625
1759920477048,1123259082,37104,7,-0.073974609375,-1.00323486328125,-0.04132080078125
1759920477048,1123259082,37104,8,-0.07080078125,-1.00299072265625,-0.05181884765625
1759920477048,1123259082,37104,9,-0.073486328125,-1.00128173828125,-0.04156494140625
1759920477048,1123259082,37104,10,-0.072998046875,-1.00054931640625,-0.05181884765625
1759920477048,1123259082,37104,11,-0.072998046875,-1.00054931640625,-0.04522705078125
1759920477048,1123259082,37104,12,-0.072021484375,-1.00030517578125,-0.04742431640625
1759920477048,1123259082,37104,13,-0.072998046875,-0.99932861328125,-0.04815673828125
1759920477048,1123259082,37104,14,-0.07275390625,-0.99737548828125,-0.04620361328125
1759920477048,1123259082,37104,15,-0.070068359375,-0.99932861328125,-0.04986572265625
1759920477048,1123259082,37104,16,-0.072265625,-0.99786376953125,-0.04547119140625
1759920477048,1123259082,37104,17,-0.07373046875,-1.00177001953125,-0.04400634765625
1759920477048,1123259082,37104,18,-0.07177734375,-1.00177001953125,-0.05035400390625
1759920477048,1123259082,37104,19,-0.0771484375,-0.99688720703125,-0.03790283203125
1759920477048,1123259082,37104,20,-0.073974609375,-0.99786376953125,-0.04302978515625
1759920477048,1123259082,37104,21,-0.073486328125,-0.99981689453125,-0.03814697265625
1759920477048,1123259082,37104,22,-0.071533203125,-1.00128173828125,-0.04376220703125
1759920477048,1123259082,37104,23,-0.068603515625,-0.99517822265625,-0.04473876953125
1759920477048,1123259082,37104,24,-0.070068359375,-0.99932861328125,-0.04010009765625
1759920477048,1123259082,37104,25,-0.07421875,-1.00469970703125,-0.03863525390625
1759920477048,1123259082,37104,26,-0.0712890625,-1.00103759765625,-0.03839111328125
1759920477048,1123259082,37104,27,-0.072265625,-0.99786376953125,-0.03814697265625
1759920477048,1123259082,37104,28,-0.07080078125,-1.00054931640625,-0.04058837890625
1759920477048,1123259082,37104,29,-0.06982421875,-0.99932861328125,-0.03717041015625
1759920477048,1123259082,37104,30,-0.066650390625,-1.00030517578125,-0.03863525390625
1759920477048,1123259082,37104,31,-0.07177734375,-1.00225830078125,-0.03546142578125
1759920479748,1123261655,37105,0,-0.070068359375,-0.99835205078125,-0.03228759765625
1759920479748,1123261655,37105,1,-0.0712890625,-1.00030517578125,-0.03131103515625
1759920479748,1123261655,37105,2,-0.0703125,-0.99835205078125,-0.03717041015625
1759920479748,1123261655,37105,3,-0.0703125,-0.99932861328125,-0.03594970703125
1759920479748,1123261655,37105,4,-0.066650390625,-1.00592041015625,-0.03570556640625
1759920479748,1123261655,37105,5,-0.06494140625,-0.99444580078125,-0.02325439453125
1759920479748,1123261655,37105,6,-0.07568359375,-1.00494384765625,-0.03961181640625
1759920479748,1123261655,37105,7,-0.076171875,-1.00054931640625,-0.03350830078125
1759920479748,1123261655,37105,8,-0.0830078125,-1.00054931640625,-0.03033447265625
1759920479748,1123261655,37105,9,-0.054931640625,-0.98956298828125,-0.09039306640625
1759920479748,1123261655,37105,10,-0.061279296875,-0.99932861328125,-0.07476806640625
1759920479748,1123261655,37105,11,-0.0634765625,-1.00323486328125,-0.05279541015625
1759920479748,1123261655,37105,12,-0.06201171875,-1.00054931640625,-0.05426025390625
1759920479748,1123261655,37105,13,-0.06982421875,-1.00421142578125,-0.05181884765625
1759920479748,1123261655,37105,14,-0.0703125,-1.00177001953125,-0.05084228515625
1759920479748,1123261655,37105,15,-0.06982421875,-0.99493408203125,-0.05108642578125
1759920479748,1123261655,37105,16,-0.066650390625,-0.99566650390625,-0.05670166015625
1759920479748,1123261655,37105,17,-0.068115234375,-1.00054931640625,-0.04913330078125
1759920479748,1123261655,37105,18,-0.063720703125,-1.00152587890625,-0.04644775390625
1759920479748,1123261655,37105,19,-0.062255859375,-0.99957275390625,-0.05743408203125
1759920479748,1123261655,37105,20,-0.06201171875,-0.99786376953125,-0.04986572265625
1759920479748,1123261655,37105,21,-0.064208984375,-1.00079345703125,-0.05181884765625
1759920479748,1123261655,37105,22,-0.06201171875,-1.00323486328125,-0.05255126953125
1759920479748,1123261655,37105,23,-0.062744140625,-0.99957275390625,-0.04962158203125
1759920479748,1123261655,37105,24,-0.0625,-1.00054931640625,-0.05133056640625
1759920479748,1123261655,37105,25,-0.066162109375,-1.00177001953125,-0.05450439453125
1759920479748,1123261655,37105,26,-0.064453125,-0.99761962890625,-0.04962158203125
1759920479748,1123261655,37105,27,-0.06298828125,-1.00201416015625,-0.04815673828125
1759920479748,1123261655,37105,28,-0.06298828125,-1.00274658203125,-0.04595947265625
1759920479748,1123261655,37105,29,-0.0654296875,-0.99761962890625,-0.04962158203125
1759920479748,1123261655,37105,30,-0.06787109375,-0.99395751953125,-0.04376220703125
1759920479748,1123261655,37105,31,-0.0693359375,-1.00006103515625,-0.03912353515625
1759920482264,1123264228,37106,0,-0.070556640625,-1.00323486328125,-0.04278564453125
1759920482264,1123264228,37106,1,-0.066650390625,-0.99737548828125,-0.04498291015625
1759920482264,1123264228,37106,2,-0.064453125,-0.99566650390625,-0.04547119140625
1759920482264,1123264228,37106,3,-0.06689453125,-1.00030517578125,-0.04669189453125
1759920482264,1123264228,37106,4,-0.068603515625,-1.00152587890625,-0.04302978515625
1759920482264,1123264228,37106,5,-0.067138671875,-1.00128173828125,-0.04327392578125
1759920482264,1123264228,37106,6,-0.069091796875,-0.99810791015625,-0.04425048828125
1759920482264,1123264228,37106,7,-0.067626953125,-0.99761962890625,-0.04742431640625
1759920482264,1123264228,37106,8,-0.067138671875,-1.00201416015625,-0.04205322265625
1759920482264,1123264228,37106,9,-0.0673828125,-1.00347900390625,-0.04058837890625
1759920482264,1123264228,37106,10,-0.066650390625,-1.00592041015625,-0.04522705078125
1759920482264,1123264228,37106,11,-0.06494140625,-1.00372314453125,-0.04351806640625
1759920482264,1123264228,37106,12,-0.068115234375,-1.00006103515625,-0.04327392578125
1759920482264,1123264228,37106,13,-0.067138671875,-0.99884033203125,-0.04229736328125
1759920482264,1123264228,37106,14,-0.066650390625,-0.99786376953125,-0.04620361328125
1759920482264,1123264228,37106,15,-0.0712890625,-0.99908447265625,-0.03863525390625
1759920482264,1123264228,37106,16,-0.062255859375,-1.00177001953125,-0.04132080078125
1759920482264,1123264228,37106,17,-0.068603515625,-1.00250244140625,-0.03814697265625
1759920482264,1123264228,37106,18,-0.06689453125,-1.00152587890625,-0.03936767578125
1759920482264,1123264228,37106,19,-0.068603515625,-0.99957275390625,-0.03961181640625
1759920482264,1123264228,37106,20,-0.05859375,-1.00469970703125,-0.03790283203125
1759920482264,1123264228,37106,21,-0.066650390625,-0.99859619140625,-0.02813720703125
1759920482264,1123264228,37106,22,-0.064453125,-0.99981689453125,-0.03741455078125
1759920482264,1123264228,37106,23,-0.062744140625,-0.99981689453125,-0.03228759765625
1759920482264,1123264228,37106,24,-0.06640625,-0.99957275390625,-0.03350830078125
1759920482264,1123264228,37106,25,-0.066650390625,-0.99981689453125,-0.02569580078125
1759920482264,1123264228,37106,26,-0.066650390625,-1.00006103515625,-0.02984619140625
1759920482264,1123264228,37106,27,-0.064453125,-0.99810791015625,-0.02838134765625
1759920482264,1123264228,37106,28,-0.0673828125,-0.99957275390625,-0.02691650390625
1759920482264,1123264228,37106,29,-0.068359375,-0.99761962890625,-0.02740478515625
1759920482264,1123264228,37106,30,-0.0654296875,-1.00347900390625,-0.02838134765625
1759920482264,1123264228,37106,31,-0.068115234375,-1.00103759765625,-0.02349853515625
1759920484780,1123266801,37107,0,-0.0693359375,-0.99981689453125,-0.02276611328125
1759920484780,1123266801,37107,1,-0.067138671875,-0.99664306640625,-0.02545166015625
1759920484780,1123266801,37107,2,-0.067626953125,-1.00054931640625,-0.02935791015625
1759920484780,1123266801,37107,3,-0.066162109375,-0.99737548828125,-0.02886962890625
1759920484780,1123266801,37107,4,-0.07080078125,-1.00103759765625,-0.02838134765625
1759920484780,1123266801,37107,5,-0.065673828125,-0.99957275390625,-0.02886962890625
1759920484780,1123266801,37107,6,-0.066650390625,-1.00054931640625,-0.02886962890625
1759920484780,1123266801,37107,7,-0.069580078125,-0.99932861328125,-0.03179931640625
1759920484780,1123266801,37107,8,-0.0693359375,-0.99859619140625,-0.02349853515625
1759920484780,1123266801,37107,9,-0.067626953125,-1.00006103515625,-0.02056884765625
1759920484780,1123266801,37107,10,-0.066650390625,-0.99761962890625,-0.02032470703125
1759920484780,1123266801,37107,11,-0.06591796875,-0.99761962890625,-0.02276611328125
1759920484780,1123266801,37107,12,-0.0693359375,-0.99737548828125,-0.02447509765625
1759920484780,1123266801,37107,13,-0.0654296875,-0.99737548828125,-0.01861572265625
1759920484780,1123266801,37107,14,-0.069091796875,-1.00347900390625,-0.01690673828125
1759920484780,1123266801,37107,15,-0.065673828125,-1.00640869140625,-0.01885986328125
1759920484780,1123266801,37107,16,-0.067626953125,-0.99688720703125,-0.03009033203125
1759920484780,1123266801,37107,17,-0.069091796875,-1.00640869140625,-0.02447509765625
1759920484780,1123266801,37107,18,-0.070068359375,-0.99591064453125,-0.02423095703125
1759920484780,1123266801,37107,19,-0.073974609375,-1.00006103515625,-0.02203369140625
1759920484780,1123266801,37107,20,-0.05908203125,-0.99615478515625,-0.07086181640625
1759920484780,1123266801,37107,21,-0.061767578125,-0.98809814453125,-0.06036376953125
1759920484780,1123266801,37107,22,-0.071044921875,-0.98663330078125,-0.05596923828125
1759920484780,1123266801,37107,23,-0.070556640625,-1.00518798828125,-0.05938720703125
1759920484780,1123266801,37107,24,-0.066162109375,-0.99981689453125,-0.07232666015625
1759920484780,1123266801,37107,25,-0.06884765625,-1.00396728515625,-0.05133056640625
1759920484780,1123266801,37107,26,-0.064453125,-1.00347900390625,-0.06011962890625
1759920484780,1123266801,37107,27,-0.0732421875,-0.99810791015625,-0.05938720703125
1759920484780,1123266801,37107,28,-0.07177734375,-0.99615478515625,-0.05865478515625
1759920484780,1123266801,37107,29,-0.072265625,-1.00421142578125,-0.05816650390625
1759920484780,1123266801,37107,30,-0.073486328125,-1.00030517578125,-0.06011962890625
1759920484780,1123266801,37107,31,-0.070068359375,-1.00372314453125,-0.05792236328125
1759920487488,1123269375,37108,0,-0.066650390625,-0.99639892578125,-0.06011962890625
1759920487488,1123269375,37108,1,-0.068603515625,-1.00323486328125,-0.04937744140625
1759920487488,1123269375,37108,2,-0.06201171875,-1.00372314453125,-0.05767822265625
1759920487488,1123269375,37108,3,-0.067626953125,-0.99981689453125,-0.05743408203125
1759920487488,1123269375,37108,4,-0.06640625,-1.00054931640625,-0.05767822265625
1759920487488,1123269375,37108,5,-0.066162109375,-0.99908447265625,-0.05767822265625
1759920487488,1123269375,37108,6,-0.068115234375,-1.00396728515625,-0.05987548828125
1759920487488,1123269375,37108,7,-0.065673828125,-1.00030517578125,-0.05279541015625
1759920487488,1123269375,37108,8,-0.067626953125,-1.00274658203125,-0.05499267578125
1759920487488,1123269375,37108,9,-0.068603515625,-1.00054931640625,-0.05645751953125
1759920487488,1123269375,37108,10,-0.0693359375,-0.99884033203125,-0.05450439453125
1759920487488,1123269375,37108,11,-0.067626953125,-1.00054931640625,-0.05718994140625
1759920487488,1123269375,37108,12,-0.066162109375,-0.99981689453125,-0.05303955078125
1759920487488,1123269375,37108,13,-0.06591796875,-0.99981689453125,-0.05352783203125
1759920487488,1123269375,37108,14,-0.06787109375,-1.00006103515625,-0.05157470703125
1759920487488,1123269375,37108,15,-0.068359375,-1.00030517578125,-0.04937744140625
1759920487488,1123269375,37108,16,-0.06591796875,-1.00347900390625,-0.04913330078125
1759920487488,1123269375,37108,17,-0.062744140625,-1.00299072265625,-0.05377197265625
1759920487488,1123269375,37108,18,-0.066162109375,-0.99835205078125,-0.05230712890625
1759920487488,1123269375,37108,19,-0.06787109375,-1.00274658203125,-0.04547119140625
1759920487488,1123269375,37108,20,-0.070556640625,-1.00177001953125,-0.03839111328125
1759920487488,1123269375,37108,21,-0.072265625,-0.99786376953125,-0.04156494140625
1759920487488,1123269375,37108,22,-0.072509765625,-0.99884033203125,-0.04107666015625
1759920487488,1123269375,37108,23,-0.073974609375,-1.00372314453125,-0.04571533203125
1759920487488,1123269375,37108,24,-0.0751953125,-0.99664306640625,-0.03179931640625
1759920487488,1123269375,37108,25,-0.07568359375,-1.00079345703125,-0.03765869140625
1759920487488,1123269375,37108,26,-0.06982421875,-1.00274658203125,-0.03424072265625
1759920487488,1123269375,37108,27,-0.075927734375,-1.00006103515625,-0.03594970703125
1759920487488,1123269375,37108,28,-0.068359375,-0.99835205078125,-0.04742431640625
1759920487488,1123269375,37108,29,-0.06884765625,-0.99957275390625,-0.04107666015625
1759920487488,1123269375,37108,30,-0.06982421875,-0.99810791015625,-0.04840087890625
1759920487488,1123269375,37108,31,-0.069091796875,-0.99591064453125,-0.05133056640625
1759920490008,1123271948,37109,0,-0.065185546875,-0.99298095703125,-0.05572509765625
1759920490008,1123271948,37109,1,-0.07421875,-1.00421142578125,-0.04937744140625
1759920490008,1123271948,37109,2,-0.06884765625,-1.00152587890625,-0.05621337890625
1759920490008,1123271948,37109,3,-0.071044921875,-1.00250244140625,-0.05279541015625
1759920490008,1123271948,37109,4,-0.071044921875,-1.00054931640625,-0.05328369140625
1759920490008,1123271948,37109,5,-0.072265625,-0.99737548828125,-0.05621337890625
1759920490008,1123271948,37109,6,-0.06982421875,-0.99835205078125,-0.05548095703125
1759920490008,1123271948,37109,7,-0.072265625,-0.99859619140625,-0.05230712890625
1759920490008,1123271948,37109,8,-0.07080078125,-0.99884033203125,-0.04962158203125
1759920490008,1123271948,37109,9,-0.0703125,-1.00030517578125,-0.05255126953125
1759920490008,1123271948,37109,10,-0.072265625,-1.00299072265625,-0.05059814453125
1759920490008,1123271948,37109,11,-0.07080078125,-1.00152587890625,-0.05181884765625
1759920490008,1123271948,37109,12,-0.068603515625,-1.00006103515625,-0.05450439453125
1759920490008,1123271948,37109,13,-0.0712890625,-1.00030517578125,-0.05426025390625
1759920490008,1123271948,37109,14,-0.068603515625,-1.00201416015625,-0.05279541015625
1759920490008,1123271948,37109,15,-0.069091796875,-1.00152587890625,-0.04937744140625
1759920490008,1123271948,37109,16,-0.067138671875,-0.99908447265625,-0.05450439453125
1759920490008,1123271948,37109,17,-0.069580078125,-0.99835205078125,-0.05352783203125
1759920490008,1123271948,37109,18,-0.07177734375,-1.00128173828125,-0.05035400390625
1759920490008,1123271948,37109,19,-0.06884765625,-1.00006103515625,-0.05596923828125
1759920490008,1123271948,37109,20,-0.072265625,-1.00006103515625,-0.05450439453125
1759920490008,1123271948,37109,21,-0.0693359375,-1.00250244140625,-0.04962158203125
1759920490008,1123271948,37109,22,-0.067626953125,-1.00201416015625,-0.05279541015625
1759920490008,1123271948,37109,23,-0.0703125,-0.99615478515625,-0.04937744140625
1759920490008,1123271948,37109,24,-0.071533203125,-1.00103759765625,-0.05206298828125
1759920490008,1123271948,37109,25,-0.07177734375,-1.00054931640625,-0.04644775390625
1759920490008,1123271948,37109,26,-0.07275390625,-1.00030517578125,-0.04937744140625
1759920490008,1123271948,37109,27,-0.066650390625,-1.00250244140625,-0.05841064453125
1759920490008,1123271948,37109,28,-0.06494140625,-1.00030517578125,-0.05303955078125
1759920490008,1123271948,37109,29,-0.0673828125,-1.00640869140625,-0.05596923828125
1759920490008,1123271948,37109,30,-0.06884765625,-1.00274658203125,-0.05426025390625
1759920490008,1123271948,37109,31,-0.071044921875,-1.00054931640625,-0.05352783203125
1759920492515,1123274521,37110,0,-0.070556640625,-1.00152587890625,-0.05743408203125
1759920492515,1123274521,37110,1,-0.074462890625,-1.00152587890625,-0.05596923828125
1759920492515,1123274521,37110,2,-0.0703125,-1.00372314453125,-0.05694580078125
1759920492515,1123274521,37110,3,-0.07177734375,-1.00177001953125,-0.05352783203125
1759920492515,1123274521,37110,4,-0.074462890625,-1.00054931640625,-0.04742431640625
1759920492515,1123274521,37110,5,-0.074951171875,-0.99859619140625,-0.04229736328125
1759920492515,1123274521,37110,6,-0.0751953125,-1.00469970703125,-0.03668212890625
1759920492515,1123274521,37110,7,-0.082275390625,-1.00396728515625,-0.04107666015625
1759920492515,1123274521,37110,8,-0.079833984375,-0.99884033203125,-0.03717041015625
1759920492515,1123274521,37110,9,-0.07861328125,-0.99713134765625,-0.03863525390625
1759920492515,1123274521,37110,10,-0.08251953125,-0.99859619140625,-0.02716064453125
1759920492515,1123274521,37110,11,-0.08154296875,-1.00152587890625,-0.02398681640625
1759920492515,1123274521,37110,12,-0.083740234375,-0.99566650390625,-0.01007080078125
1759920492515,1123274521,37110,13,-0.08642578125,-0.99395751953125,-0.00738525390625
1759920492515,1123274521,37110,14,-0.092041015625,-0.99566650390625,0.00164794921875
1759920492515,1123274521,37110,15,-0.088134765625,-0.99395751953125,-0.00518798828125
1759920492515,1123274521,37110,16,-0.087890625,-0.99322509765625,-0.00372314453125
1759920492515,1123274521,37110,17,-0.091064453125,-0.99298095703125,-0.00787353515625
1759920492515,1123274521,37110,18,-0.092529296875,-0.99127197265625,-0.01519775390625
1759920492515,1123274521,37110,19,-0.0830078125,-1.00030517578125,-0.01910400390625
1759920492515,1123274521,37110,20,-0.08984375,-1.00567626953125,-0.02642822265625
1759920492515,1123274521,37110,21,-0.09423828125,-1.00274658203125,-0.02496337890625
1759920492515,1123274521,37110,22,-0.081787109375,-0.99932861328125,-0.03692626953125
