receivedPhoneTimestamp,respeckTimestamp,packetSeqNum,sampleSeqNum,accelX,accelY,accelZ
1759699152210,827164252,13198,11,-0.1279296875,-0.95709228515625,0.19305419921875
1759699152210,827164252,13198,12,-0.12939453125,-0.95953369140625,0.19451904296875
1759699152210,827164252,13198,13,-0.133056640625,-0.95880126953125,0.19696044921875
1759699152210,827164252,13198,14,-0.135009765625,-0.95831298828125,0.19500732421875
1759699152210,827164252,13198,15,-0.130859375,-0.95562744140625,0.20233154296875
1759699152210,827164252,13198,16,-0.124755859375,-0.95880126953125,0.19403076171875
1759699152210,827164252,13198,17,-0.126708984375,-0.96197509765625,0.19598388671875
1759699152210,827164252,13198,18,-0.12890625,-0.96002197265625,0.19842529296875
1759699152210,827164252,13198,19,-0.12353515625,-0.94757080078125,0.18817138671875
1759699152210,827164252,13198,20,-0.114990234375,-0.95709228515625,0.17816162109375
1759699152210,827164252,13198,21,-0.1162109375,-0.93878173828125,0.18157958984375
1759699152210,827164252,13198,22,-0.124755859375,-0.94586181640625,0.18157958984375
1759699152210,827164252,13198,23,-0.1162109375,-0.97296142578125,0.17840576171875
1759699152210,827164252,13198,24,-0.137451171875,-0.97857666015625,0.18914794921875
1759699152210,827164252,13198,25,-0.128662109375,-0.97247314453125,0.17962646484375
1759699152210,827164252,13198,26,-0.11865234375,-0.96319580078125,0.15643310546875
1759699152210,827164252,13198,27,-0.10498046875,-0.96856689453125,0.16058349609375
1759699152210,827164252,13198,28,-0.111328125,-0.95391845703125,0.16107177734375
1759699152210,827164252,13198,29,-0.105712890625,-0.97760009765625,0.15472412109375
1759699152210,827164252,13198,30,-0.102783203125,-0.95367431640625,0.16107177734375
1759699152210,827164252,13198,31,-0.13232421875,-0.95538330078125,0.20257568359375
1759699154761,827166832,13199,0,-0.142578125,-0.95733642578125,0.20257568359375
1759699154761,827166832,13199,1,-0.10498046875,-0.96368408203125,0.18011474609375
1759699154761,827166832,13199,2,-0.13720703125,-0.96368408203125,0.18499755859375
1759699154761,827166832,13199,3,-0.131103515625,-0.95758056640625,0.18328857421875
1759699154761,827166832,13199,4,-0.12255859375,-0.96539306640625,0.17938232421875
1759699154761,827166832,13199,5,-0.11669921875,-0.95587158203125,0.17840576171875
1759699154761,827166832,13199,6,-0.11376953125,-0.95294189453125,0.16400146484375
1759699154761,827166832,13199,7,-0.125732421875,-0.96881103515625,0.18280029296875
1759699154761,827166832,13199,8,-0.13525390625,-0.95611572265625,0.18035888671875
1759699154761,827166832,13199,9,-0.1240234375,-0.96295166015625,0.17352294921875
1759699154761,827166832,13199,10,-0.11376953125,-0.96246337890625,0.18157958984375
1759699154761,827166832,13199,11,-0.12646484375,-0.95904541015625,0.18524169921875
1759699154761,827166832,13199,12,-0.122314453125,-0.96295166015625,0.18133544921875
1759699154761,827166832,13199,13,-0.11328125,-0.96661376953125,0.18133544921875
1759699154761,827166832,13199,14,-0.1201171875,-0.93951416015625,0.19573974609375
1759699154761,827166832,13199,15,-0.134033203125,-0.95806884765625,0.20013427734375
1759699154761,827166832,13199,16,-0.1279296875,-0.95880126953125,0.18719482421875
1759699154761,827166832,13199,17,-0.119873046875,-0.96197509765625,0.18646240234375
1759699154761,827166832,13199,18,-0.141845703125,-0.95318603515625,0.18524169921875
1759699154761,827166832,13199,19,-0.136962890625,-0.96343994140625,0.17767333984375
1759699154761,827166832,13199,20,-0.12890625,-0.96270751953125,0.18426513671875
1759699154761,827166832,13199,21,-0.1201171875,-0.95904541015625,0.17279052734375
1759699154761,827166832,13199,22,-0.10107421875,-0.95343017578125,0.14788818359375
1759699154761,827166832,13199,23,-0.100830078125,-0.97540283203125,0.14593505859375
1759699154761,827166832,13199,24,-0.10498046875,-0.97296142578125,0.14910888671875
1759699154761,827166832,13199,25,-0.113525390625,-0.96954345703125,0.15350341796875
1759699154761,827166832,13199,26,-0.1025390625,-0.96978759765625,0.14495849609375
1759699154761,827166832,13199,27,-0.107421875,-0.97589111328125,0.14935302734375
1759699154761,827166832,13199,28,-0.0966796875,-0.96954345703125,0.14520263671875
1759699154761,827166832,13199,29,-0.100830078125,-0.96734619140625,0.14202880859375
1759699154761,827166832,13199,30,-0.09619140625,-0.97174072265625,0.14495849609375
1759699154761,827166832,13199,31,-0.097412109375,-0.96832275390625,0.13397216796875
1759699157308,827169411,13200,0,-0.09765625,-0.97271728515625,0.14178466796875
1759699157308,827169411,13200,1,-0.10693359375,-0.96783447265625,0.14642333984375
1759699157308,827169411,13200,2,-0.10205078125,-0.97247314453125,0.14276123046875
1759699157308,827169411,13200,3,-0.09423828125,-0.97735595703125,0.12713623046875
1759699157308,827169411,13200,4,-0.08935546875,-0.96978759765625,0.13861083984375
1759699157308,827169411,13200,5,-0.08447265625,-0.96954345703125,0.12738037109375
1759699157308,827169411,13200,6,-0.084228515625,-0.97442626953125,0.14349365234375
1759699157308,827169411,13200,7,-0.098876953125,-0.98248291015625,0.14202880859375
1759699157308,827169411,13200,8,-0.09716796875,-0.96905517578125,0.13983154296875
1759699157308,827169411,13200,9,-0.093017578125,-0.97393798828125,0.14007568359375
1759699157308,827169411,13200,10,-0.100341796875,-0.97393798828125,0.14617919921875
1759699157308,827169411,13200,11,-0.106689453125,-0.98590087890625,0.15838623046875
1759699157308,827169411,13200,12,-0.087646484375,-0.96075439453125,0.13714599609375
1759699157308,827169411,13200,13,-0.081787109375,-0.95318603515625,0.13153076171875
1759699157308,827169411,13200,14,-0.081787109375,-0.96734619140625,0.14447021484375
1759699157308,827169411,13200,15,-0.101806640625,-0.98126220703125,0.15399169921875
1759699157308,827169411,13200,16,-0.098388671875,-0.97906494140625,0.13690185546875
1759699157308,827169411,13200,17,-0.093505859375,-0.97857666015625,0.14544677734375
1759699157308,827169411,13200,18,-0.09619140625,-0.97296142578125,0.14300537109375
1759699157308,827169411,13200,19,-0.116943359375,-0.96783447265625,0.15716552734375
1759699157308,827169411,13200,20,-0.082275390625,-0.97320556640625,0.14715576171875
1759699157308,827169411,13200,21,-0.105224609375,-0.97222900390625,0.14422607421875
1759699157308,827169411,13200,22,-0.09326171875,-0.95928955078125,0.15692138671875
1759699157308,827169411,13200,23,-0.1025390625,-0.96685791015625,0.16204833984375
1759699157308,827169411,13200,24,-0.086181640625,-0.96588134765625,0.14324951171875
1759699157308,827169411,13200,25,-0.107177734375,-0.96783447265625,0.17449951171875
1759699157308,827169411,13200,26,-0.09033203125,-0.96832275390625,0.16204833984375
1759699157308,827169411,13200,27,-0.090576171875,-0.96929931640625,0.16693115234375
1759699157308,827169411,13200,28,-0.09814453125,-0.96466064453125,0.16766357421875
1759699157308,827169411,13200,29,-0.095947265625,-0.96368408203125,0.16888427734375
1759699157308,827169411,13200,30,-0.092529296875,-0.96563720703125,0.16595458984375
1759699157308,827169411,13200,31,-0.09619140625,-0.96270751953125,0.17425537109375
1759699159864,827171990,13201,0,-0.095703125,-0.96343994140625,0.17474365234375
1759699159864,827171990,13201,1,-0.09619140625,-0.96295166015625,0.17352294921875
1759699159864,827171990,13201,2,-0.093017578125,-0.96466064453125,0.17547607421875
1759699159864,827171990,13201,3,-0.10107421875,-0.96246337890625,0.17864990234375
1759699159864,827171990,13201,4,-0.1025390625,-0.96856689453125,0.18060302734375
1759699159864,827171990,13201,5,-0.1064453125,-0.96173095703125,0.18035888671875
1759699159864,827171990,13201,6,-0.117919921875,-0.96514892578125,0.17694091796875
1759699159864,827171990,13201,7,-0.103759765625,-0.97076416015625,0.17303466796875
1759699159864,827171990,13201,8,-0.1005859375,-0.96368408203125,0.15228271484375
1759699159864,827171990,13201,9,-0.087158203125,-0.94024658203125,0.13885498046875
1759699159864,827171990,13201,10,-0.09130859375,-0.97589111328125,0.14788818359375
1759699159864,827171990,13201,11,-0.08544921875,-0.97369384765625,0.14544677734375
1759699159864,827171990,13201,12,-0.097900390625,-0.97296142578125,0.15350341796875
1759699159864,827171990,13201,13,-0.113525390625,-0.96856689453125,0.15399169921875
1759699159864,827171990,13201,14,-0.118896484375,-0.96905517578125,0.16644287109375
1759699159864,827171990,13201,15,-0.118408203125,-0.96881103515625,0.16619873046875
1759699159864,827171990,13201,16,-0.1142578125,-0.96612548828125,0.15618896484375
1759699159864,827171990,13201,17,-0.10986328125,-0.96148681640625,0.15911865234375
1759699159864,827171990,13201,18,-0.10302734375,-0.96954345703125,0.15985107421875
1759699159864,827171990,13201,19,-0.101806640625,-0.96612548828125,0.15618896484375
1759699159864,827171990,13201,20,-0.105712890625,-0.96148681640625,0.16815185546875
1759699159864,827171990,13201,21,-0.12353515625,-0.96661376953125,0.16644287109375
1759699159864,827171990,13201,22,-0.112060546875,-0.96392822265625,0.16815185546875
1759699159864,827171990,13201,23,-0.112548828125,-0.96197509765625,0.16644287109375
1759699159864,827171990,13201,24,-0.107666015625,-0.96929931640625,0.15985107421875
1759699159864,827171990,13201,25,-0.110595703125,-0.96661376953125,0.14886474609375
1759699159864,827171990,13201,26,-0.088623046875,-0.96197509765625,0.13934326171875
1759699159864,827171990,13201,27,-0.0947265625,-0.95928955078125,0.14862060546875
1759699159864,827171990,13201,28,-0.09765625,-0.97515869140625,0.15301513671875
1759699159864,827171990,13201,29,-0.10400390625,-0.96368408203125,0.15521240234375
1759699159864,827171990,13201,30,-0.107666015625,-0.97198486328125,0.15716552734375
1759699159864,827171990,13201,31,-0.1044921875,-0.97344970703125,0.15374755859375
1759699162409,827174569,13202,0,-0.101806640625,-0.97027587890625,0.15472412109375
1759699162409,827174569,13202,1,-0.0986328125,-0.96807861328125,0.15496826171875
1759699162409,827174569,13202,2,-0.08642578125,-0.97247314453125,0.14349365234375
1759699162409,827174569,13202,3,-0.083251953125,-0.96441650390625,0.14080810546875
1759699162409,827174569,13202,4,-0.078125,-0.96002197265625,0.13348388671875
1759699162409,827174569,13202,5,-0.097412109375,-0.97125244140625,0.15032958984375
1759699162409,827174569,13202,6,-0.116943359375,-0.97784423828125,0.16717529296875
1759699162409,827174569,13202,7,-0.102294921875,-0.96221923828125,0.16351318359375
1759699162409,827174569,13202,8,-0.107177734375,-0.96636962890625,0.15863037109375
1759699162409,827174569,13202,9,-0.1181640625,-0.97369384765625,0.15618896484375
1759699162409,827174569,13202,10,-0.105224609375,-0.97393798828125,0.14764404296875
1759699162409,827174569,13202,11,-0.086181640625,-0.96319580078125,0.13763427734375
1759699162409,827174569,13202,12,-0.069091796875,-0.95977783203125,0.13031005859375
1759699162409,827174569,13202,13,-0.08203125,-0.98150634765625,0.13958740234375
1759699162409,827174569,13202,14,-0.09326171875,-0.96759033203125,0.14154052734375
1759699162409,827174569,13202,15,-0.100830078125,-0.97076416015625,0.14495849609375
1759699162409,827174569,13202,16,-0.095703125,-0.97613525390625,0.15130615234375
1759699162409,827174569,13202,17,-0.092041015625,-0.96856689453125,0.14739990234375
1759699162409,827174569,13202,18,-0.090087890625,-0.95953369140625,0.14813232421875
1759699162409,827174569,13202,19,-0.093505859375,-0.97711181640625,0.14569091796875
1759699162409,827174569,13202,20,-0.087158203125,-0.97247314453125,0.13787841796875
1759699162409,827174569,13202,21,-0.086669921875,-0.97320556640625,0.13861083984375
1759699162409,827174569,13202,22,-0.089111328125,-0.96759033203125,0.14495849609375
1759699162409,827174569,13202,23,-0.099365234375,-0.97418212890625,0.15277099609375
1759699162409,827174569,13202,24,-0.094970703125,-0.96905517578125,0.14764404296875
1759699162409,827174569,13202,25,-0.093505859375,-0.97393798828125,0.15008544921875
1759699162409,827174569,13202,26,-0.09912109375,-0.96734619140625,0.15155029296875
1759699162409,827174569,13202,27,-0.097900390625,-0.96173095703125,0.15179443359375
1759699162409,827174569,13202,28,-0.097900390625,-0.97174072265625,0.14739990234375
1759699162409,827174569,13202,29,-0.091064453125,-0.96856689453125,0.14373779296875
1759699162409,827174569,13202,30,-0.08740234375,-0.97198486328125,0.14910888671875
1759699162409,827174569,13202,31,-0.09423828125,-0.96588134765625,0.14910888671875
1759699164961,827177148,13203,0,-0.095458984375,-0.97320556640625,0.15179443359375
1759699164961,827177148,13203,1,-0.092529296875,-0.97735595703125,0.14837646484375
1759699164961,827177148,13203,2,-0.10009765625,-0.96343994140625,0.16473388671875
1759699164961,827177148,13203,3,-0.1064453125,-0.97247314453125,0.15960693359375
1759699164961,827177148,13203,4,-0.095947265625,-0.95831298828125,0.16351318359375
1759699164961,827177148,13203,5,-0.10498046875,-0.98126220703125,0.14080810546875
1759699164961,827177148,13203,6,-0.103759765625,-0.98394775390625,0.14105224609375
1759699164961,827177148,13203,7,-0.08349609375,-0.97613525390625,0.12567138671875
1759699164961,827177148,13203,8,-0.0849609375,-0.96661376953125,0.10760498046875
1759699164961,827177148,13203,9,-0.06884765625,-0.96392822265625,0.10198974609375
1759699164961,827177148,13203,10,-0.062255859375,-0.97760009765625,0.13201904296875
1759699164961,827177148,13203,11,-0.08984375,-0.97662353515625,0.11077880859375
1759699164961,827177148,13203,12,-0.068603515625,-0.96417236328125,0.13201904296875
1759699164961,827177148,13203,13,-0.07373046875,-0.97491455078125,0.12542724609375
1759699164961,827177148,13203,14,-0.0810546875,-0.97857666015625,0.12689208984375
1759699164961,827177148,13203,15,-0.081787109375,-0.98077392578125,0.12860107421875
1759699164961,827177148,13203,16,-0.08642578125,-0.98028564453125,0.13226318359375
1759699164961,827177148,13203,17,-0.09326171875,-0.98223876953125,0.12493896484375
1759699164961,827177148,13203,18,-0.09326171875,-0.97515869140625,0.13079833984375
1759699164961,827177148,13203,19,-0.093017578125,-0.97027587890625,0.13055419921875
1759699164961,827177148,13203,20,-0.088134765625,-0.96002197265625,0.12860107421875
1759699164961,827177148,13203,21,-0.080322265625,-0.96783447265625,0.13397216796875
1759699164961,827177148,13203,22,-0.107421875,-0.97027587890625,0.14276123046875
1759699164961,827177148,13203,23,-0.121337890625,-0.98345947265625,0.15179443359375
1759699164961,827177148,13203,24,-0.0927734375,-0.96539306640625,0.14520263671875
1759699164961,827177148,13203,25,-0.1005859375,-0.97564697265625,0.14642333984375
1759699164961,827177148,13203,26,-0.087890625,-0.96905517578125,0.12982177734375
1759699164961,827177148,13203,27,-0.082763671875,-0.96978759765625,0.13519287109375
1759699164961,827177148,13203,28,-0.0751953125,-0.96343994140625,0.12884521484375
1759699164961,827177148,13203,29,-0.088623046875,-0.97589111328125,0.13226318359375
1759699164961,827177148,13203,30,-0.096923828125,-0.98101806640625,0.13885498046875
1759699164961,827177148,13203,31,-0.1005859375,-0.97076416015625,0.14617919921875
1759699167662,827179727,13204,0,-0.097900390625,-0.96978759765625,0.13690185546875
1759699167662,827179727,13204,1,-0.09814453125,-0.98004150390625,0.13909912109375
1759699167662,827179727,13204,2,-0.09521484375,-0.97418212890625,0.13861083984375
1759699167662,827179727,13204,3,-0.08740234375,-0.97027587890625,0.12225341796875
1759699167662,827179727,13204,4,-0.066650390625,-0.96319580078125,0.13812255859375
1759699167662,827179727,13204,5,-0.087158203125,-0.96392822265625,0.14447021484375
1759699167662,827179727,13204,6,-0.10888671875,-0.97686767578125,0.15081787109375
1759699167662,827179727,13204,7,-0.120849609375,-0.96954345703125,0.15765380859375
1759699167662,827179727,13204,8,-0.113525390625,-0.97418212890625,0.15887451171875
1759699167662,827179727,13204,9,-0.111083984375,-0.97808837890625,0.15740966796875
1759699167662,827179727,13204,10,-0.101318359375,-0.96807861328125,0.15179443359375
1759699167662,827179727,13204,11,-0.074951171875,-0.94976806640625,0.14398193359375
1759699167662,827179727,13204,12,-0.087158203125,-0.97149658203125,0.13787841796875
1759699167662,827179727,13204,13,-0.115478515625,-0.98248291015625,0.15374755859375
1759699167662,827179727,13204,14,-0.09912109375,-0.97100830078125,0.14642333984375
1759699167662,827179727,13204,15,-0.0927734375,-0.96856689453125,0.14984130859375
1759699167662,827179727,13204,16,-0.09326171875,-0.96832275390625,0.14154052734375
1759699167662,827179727,13204,17,-0.095458984375,-0.96514892578125,0.14495849609375
1759699167662,827179727,13204,18,-0.090576171875,-0.96905517578125,0.14764404296875
1759699167662,827179727,13204,19,-0.085693359375,-0.95953369140625,0.15423583984375
1759699167662,827179727,13204,20,-0.139404296875,-0.96783447265625,0.18670654296875
1759699167662,827179727,13204,21,-0.09765625,-0.96563720703125,0.15911865234375
1759699167662,827179727,13204,22,-0.113037109375,-0.96734619140625,0.16790771484375
1759699167662,827179727,13204,23,-0.11572265625,-0.96002197265625,0.16839599609375
1759699167662,827179727,13204,24,-0.11376953125,-0.96173095703125,0.17279052734375
1759699167662,827179727,13204,25,-0.111328125,-0.96124267578125,0.17205810546875
1759699167662,827179727,13204,26,-0.114990234375,-0.96466064453125,0.17620849609375
1759699167662,827179727,13204,27,-0.110107421875,-0.95831298828125,0.17498779296875
1759699167662,827179727,13204,28,-0.10791015625,-0.96319580078125,0.17645263671875
1759699167662,827179727,13204,29,-0.120849609375,-0.95880126953125,0.17742919921875
1759699167662,827179727,13204,30,-0.117919921875,-0.96270751953125,0.18304443359375
1759699167662,827179727,13204,31,-0.11328125,-0.96270751953125,0.17718505859375
1759699170209,827182306,13205,0,-0.114990234375,-0.96685791015625,0.18109130859375
1759699170209,827182306,13205,1,-0.118408203125,-0.96173095703125,0.18109130859375
1759699170209,827182306,13205,2,-0.1142578125,-0.96759033203125,0.18548583984375
1759699170209,827182306,13205,3,-0.108154296875,-0.95831298828125,0.16815185546875
1759699170209,827182306,13205,4,-0.095458984375,-0.97760009765625,0.14813232421875
1759699170209,827182306,13205,5,-0.093505859375,-0.96197509765625,0.15106201171875
1759699170209,827182306,13205,6,-0.0810546875,-0.96710205078125,0.12274169921875
1759699170209,827182306,13205,7,-0.08740234375,-0.94537353515625,0.14031982421875
1759699170209,827182306,13205,8,-0.09521484375,-0.95709228515625,0.16302490234375
1759699170209,827182306,13205,9,-0.10009765625,-1.00836181640625,0.12469482421875
1759699170209,827182306,13205,10,-0.09912109375,-0.96539306640625,0.15814208984375
1759699170209,827182306,13205,11,-0.093017578125,-0.97174072265625,0.13958740234375
1759699170209,827182306,13205,12,-0.09521484375,-0.97027587890625,0.14398193359375
1759699170209,827182306,13205,13,-0.09228515625,-0.97784423828125,0.14178466796875
1759699170209,827182306,13205,14,-0.087890625,-0.96905517578125,0.13861083984375
1759699170209,827182306,13205,15,-0.09033203125,-0.96978759765625,0.13861083984375
1759699170209,827182306,13205,16,-0.091552734375,-0.96905517578125,0.14569091796875
1759699170209,827182306,13205,17,-0.099609375,-0.97198486328125,0.14544677734375
1759699170209,827182306,13205,18,-0.092041015625,-0.97222900390625,0.13836669921875
1759699170209,827182306,13205,19,-0.0888671875,-0.97491455078125,0.14056396484375
1759699170209,827182306,13205,20,-0.091064453125,-0.97833251953125,0.14105224609375
1759699170209,827182306,13205,21,-0.09375,-0.97760009765625,0.13153076171875
1759699170209,827182306,13205,22,-0.085205078125,-0.96734619140625,0.12860107421875
1759699170209,827182306,13205,23,-0.0849609375,-0.96954345703125,0.13201904296875
1759699170209,827182306,13205,24,-0.0869140625,-0.97589111328125,0.12811279296875
1759699170209,827182306,13205,25,-0.08447265625,-0.97760009765625,0.11932373046875
1759699170209,827182306,13205,26,-0.08837890625,-0.97271728515625,0.12786865234375
1759699170209,827182306,13205,27,-0.091552734375,-0.97784423828125,0.12689208984375
1759699170209,827182306,13205,28,-0.097412109375,-0.98101806640625,0.13128662109375
1759699170209,827182306,13205,29,-0.092041015625,-0.97296142578125,0.12469482421875
1759699170209,827182306,13205,30,-0.084228515625,-0.97198486328125,0.13128662109375
1759699170209,827182306,13205,31,-0.08642578125,-0.98272705078125,0.12176513671875
1759699172759,827184885,13206,0,-0.086669921875,-0.96221923828125,0.12811279296875
1759699172759,827184885,13206,1,-0.078369140625,-0.97564697265625,0.13128662109375
1759699172759,827184885,13206,2,-0.089599609375,-0.97662353515625,0.13299560546875
1759699172759,827184885,13206,3,-0.0859375,-0.97857666015625,0.12982177734375
1759699172759,827184885,13206,4,-0.0830078125,-0.98248291015625,0.12713623046875
1759699172759,827184885,13206,5,-0.08251953125,-0.98492431640625,0.13201904296875
1759699172759,827184885,13206,6,-0.083251953125,-0.97491455078125,0.12371826171875
1759699172759,827184885,13206,7,-0.070556640625,-0.96636962890625,0.12518310546875
1759699172759,827184885,13206,8,-0.06884765625,-0.96051025390625,0.11834716796875
1759699172759,827184885,13206,9,-0.0703125,-0.97174072265625,0.12054443359375
1759699172759,827184885,13206,10,-0.061279296875,-0.98150634765625,0.09295654296875
1759699172759,827184885,13206,11,-0.079345703125,-0.96734619140625,0.12933349609375
1759699172759,827184885,13206,12,-0.078857421875,-0.98516845703125,0.11370849609375
1759699172759,827184885,13206,13,-0.0888671875,-0.99273681640625,0.12274169921875
1759699172759,827184885,13206,14,-0.06982421875,-0.98223876953125,0.10418701171875
1759699172759,827184885,13206,15,-0.056640625,-0.98565673828125,0.10052490234375
1759699172759,827184885,13206,16,-0.056884765625,-0.98223876953125,0.10345458984375
1759699172759,827184885,13206,17,-0.044677734375,-0.96466064453125,0.09490966796875
1759699172759,827184885,13206,18,-0.052001953125,-0.97857666015625,0.09222412109375
1759699172759,827184885,13206,19,-0.05908203125,-0.98004150390625,0.10687255859375
1759699172759,827184885,13206,20,-0.078857421875,-0.97564697265625,0.12664794921875
1759699172759,827184885,13206,21,-0.084228515625,-0.98175048828125,0.12225341796875
1759699172759,827184885,13206,22,-0.0673828125,-0.98052978515625,0.11151123046875
1759699172759,827184885,13206,23,-0.062744140625,-0.98126220703125,0.10540771484375
1759699172759,827184885,13206,24,-0.057373046875,-0.98565673828125,0.10516357421875
1759699172759,827184885,13206,25,-0.061279296875,-0.98345947265625,0.10711669921875
1759699172759,827184885,13206,26,-0.060791015625,-0.96710205078125,0.09832763671875
1759699172759,827184885,13206,27,-0.056884765625,-0.97662353515625,0.10052490234375
1759699172759,827184885,13206,28,-0.06396484375,-0.97540283203125,0.11004638671875
1759699172759,827184885,13206,29,-0.082275390625,-0.98492431640625,0.12322998046875
1759699172759,827184885,13206,30,-0.075927734375,-0.97589111328125,0.11370849609375
1759699172759,827184885,13206,31,-0.06982421875,-0.98614501953125,0.11297607421875
1759699175311,827187465,13207,0,-0.066162109375,-0.98223876953125,0.11175537109375
1759699175311,827187465,13207,1,-0.064697265625,-0.97979736328125,0.10369873046875
1759699175311,827187465,13207,2,-0.048828125,-0.97637939453125,0.09710693359375
1759699175311,827187465,13207,3,-0.050537109375,-0.98223876953125,0.08905029296875
1759699175311,827187465,13207,4,-0.050048828125,-0.97467041015625,0.08538818359375
1759699175311,827187465,13207,5,-0.04931640625,-0.97344970703125,0.08026123046875
1759699175311,827187465,13207,6,-0.070556640625,-0.98126220703125,0.10418701171875
1759699175311,827187465,13207,7,-0.089599609375,-0.98419189453125,0.11737060546875
1759699175311,827187465,13207,8,-0.07470703125,-0.97564697265625,0.10321044921875
1759699175311,827187465,13207,9,-0.06640625,-0.98565673828125,0.09954833984375
1759699175311,827187465,13207,10,-0.0615234375,-0.98663330078125,0.08612060546875
1759699175311,827187465,13207,11,-0.0546875,-0.98736572265625,0.08367919921875
1759699175311,827187465,13207,12,-0.0478515625,-0.98516845703125,0.07977294921875
1759699175311,827187465,13207,13,-0.037109375,-0.97125244140625,0.07708740234375
1759699175311,827187465,13207,14,-0.045654296875,-0.98126220703125,0.08563232421875
1759699175311,827187465,13207,15,-0.059326171875,-0.97540283203125,0.09906005859375
1759699175311,827187465,13207,16,-0.071044921875,-0.98101806640625,0.09710693359375
1759699175311,827187465,13207,17,-0.068359375,-0.98175048828125,0.09954833984375
1759699175311,827187465,13207,18,-0.05615234375,-0.98541259765625,0.09442138671875
1759699175311,827187465,13207,19,-0.045166015625,-0.98101806640625,0.08831787109375
1759699175311,827187465,13207,20,-0.052978515625,-0.98565673828125,0.09173583984375
1759699175311,827187465,13207,21,-0.03759765625,-0.98297119140625,0.08319091796875
1759699175311,827187465,13207,22,-0.050537109375,-0.98150634765625,0.09027099609375
1759699175311,827187465,13207,23,-0.0537109375,-0.98052978515625,0.09808349609375
1759699175311,827187465,13207,24,-0.0537109375,-0.97540283203125,0.09881591796875
1759699175311,827187465,13207,25,-0.058349609375,-0.97979736328125,0.09857177734375
1759699175311,827187465,13207,26,-0.0537109375,-0.98077392578125,0.10833740234375
1759699175311,827187465,13207,27,-0.05224609375,-0.98004150390625,0.09857177734375
1759699175311,827187465,13207,28,-0.06689453125,-0.98223876953125,0.10345458984375
1759699175311,827187465,13207,29,-0.05908203125,-0.98077392578125,0.10418701171875
1759699175311,827187465,13207,30,-0.05859375,-0.98370361328125,0.10272216796875
1759699175311,827187465,13207,31,-0.0625,-0.97979736328125,0.10589599609375
1759699177859,827190044,13208,0,-0.065185546875,-0.97882080078125,0.10491943359375
1759699177859,827190044,13208,1,-0.0693359375,-0.98077392578125,0.11077880859375
1759699177859,827190044,13208,2,-0.071044921875,-0.97906494140625,0.10565185546875
1759699177859,827190044,13208,3,-0.067626953125,-0.97833251953125,0.11224365234375
1759699177859,827190044,13208,4,-0.07275390625,-0.97735595703125,0.11541748046875
1759699177859,827190044,13208,5,-0.078369140625,-0.98223876953125,0.10955810546875
1759699177859,827190044,13208,6,-0.07666015625,-0.98614501953125,0.11566162109375
1759699177859,827190044,13208,7,-0.08056640625,-0.98272705078125,0.11688232421875
1759699177859,827190044,13208,8,-0.066162109375,-0.98736572265625,0.11956787109375
1759699177859,827190044,13208,9,-0.060302734375,-0.97930908203125,0.10589599609375
1759699177859,827190044,13208,10,-0.058349609375,-0.96221923828125,0.08538818359375
1759699177859,827190044,13208,11,-0.05712890625,-0.95831298828125,0.08758544921875
1759699177859,827190044,13208,12,-0.06494140625,-0.97906494140625,0.09466552734375
1759699177859,827190044,13208,13,-0.066650390625,-0.98370361328125,0.09051513671875
1759699177859,827190044,13208,14,-0.068603515625,-0.99859619140625,0.09564208984375
1759699177859,827190044,13208,15,-0.0634765625,-0.98028564453125,0.08587646484375
1759699177859,827190044,13208,16,-0.0595703125,-0.96392822265625,0.10882568359375
1759699177859,827190044,13208,17,-0.04443359375,-0.95465087890625,0.06512451171875
1759699177859,827190044,13208,18,-0.094482421875,-1.00372314453125,0.10418701171875
1759699177859,827190044,13208,19,-0.08203125,-0.98345947265625,0.13153076171875
1759699177859,827190044,13208,20,-0.070556640625,-0.98468017578125,0.11468505859375
1759699177859,827190044,13208,21,-0.05859375,-0.98687744140625,0.10931396484375
1759699177859,827190044,13208,22,-0.039794921875,-0.96392822265625,0.08734130859375
1759699177859,827190044,13208,23,-0.0439453125,-0.96832275390625,0.07025146484375
1759699177859,827190044,13208,24,-0.089111328125,-0.98687744140625,0.13909912109375
1759699177859,827190044,13208,25,-0.076416015625,-0.97711181640625,0.12786865234375
1759699177859,827190044,13208,26,-0.057861328125,-0.97198486328125,0.12713623046875
1759699177859,827190044,13208,27,-0.091796875,-0.98223876953125,0.13909912109375
1759699177859,827190044,13208,28,-0.0849609375,-0.96905517578125,0.14544677734375
1759699177859,827190044,13208,29,-0.078125,-0.97149658203125,0.14520263671875
1759699177859,827190044,13208,30,-0.079833984375,-0.97711181640625,0.14617919921875
1759699177859,827190044,13208,31,-0.084228515625,-0.96832275390625,0.14373779296875
1759699180560,827192623,13209,0,-0.08544921875,-0.96856689453125,0.15252685546875
1759699180560,827192623,13209,1,-0.085205078125,-0.97760009765625,0.15228271484375
1759699180560,827192623,13209,2,-0.086181640625,-0.96929931640625,0.14837646484375
1759699180560,827192623,13209,3,-0.09228515625,-0.96759033203125,0.15325927734375
1759699180560,827192623,13209,4,-0.0986328125,-0.96734619140625,0.16033935546875
1759699180560,827192623,13209,5,-0.088134765625,-0.96783447265625,0.15472412109375
1759699180560,827192623,13209,6,-0.0986328125,-0.97100830078125,0.15911865234375
1759699180560,827192623,13209,7,-0.102783203125,-0.97271728515625,0.16790771484375
1759699180560,827192623,13209,8,-0.104248046875,-0.95562744140625,0.16912841796875
1759699180560,827192623,13209,9,-0.111328125,-0.95977783203125,0.17327880859375
1759699180560,827192623,13209,10,-0.116943359375,-0.95782470703125,0.17938232421875
1759699180560,827192623,13209,11,-0.11865234375,-0.96051025390625,0.17279052734375
1759699180560,827192623,13209,12,-0.11572265625,-0.96173095703125,0.17620849609375
1759699180560,827192623,13209,13,-0.116943359375,-0.96368408203125,0.17791748046875
1759699180560,827192623,13209,14,-0.117919921875,-0.96221923828125,0.18109130859375
1759699180560,827192623,13209,15,-0.120361328125,-0.96148681640625,0.17596435546875
1759699180560,827192623,13209,16,-0.11962890625,-0.95904541015625,0.17864990234375
1759699180560,827192623,13209,17,-0.121337890625,-0.96124267578125,0.17108154296875
1759699180560,827192623,13209,18,-0.118408203125,-0.96246337890625,0.17572021484375
1759699180560,827192623,13209,19,-0.11962890625,-0.96051025390625,0.17694091796875
1759699180560,827192623,13209,20,-0.119140625,-0.96270751953125,0.17327880859375
1759699180560,827192623,13209,21,-0.12646484375,-0.96173095703125,0.17376708984375
1759699180560,827192623,13209,22,-0.121337890625,-0.96490478515625,0.17816162109375
1759699180560,827192623,13209,23,-0.119873046875,-0.96246337890625,0.17718505859375
1759699180560,827192623,13209,24,-0.111083984375,-0.97418212890625,0.17254638671875
1759699180560,827192623,13209,25,-0.12109375,-0.97760009765625,0.18670654296875
1759699180560,827192623,13209,26,-0.10546875,-0.95977783203125,0.15814208984375
1759699180560,827192623,13209,27,-0.079833984375,-0.97174072265625,0.13641357421875
1759699180560,827192623,13209,28,-0.075439453125,-0.97564697265625,0.13739013671875
1759699180560,827192623,13209,29,-0.077392578125,-0.96661376953125,0.12982177734375
1759699180560,827192623,13209,30,-0.074462890625,-0.96954345703125,0.12274169921875
1759699180560,827192623,13209,31,-0.079833984375,-0.97662353515625,0.12347412109375
1759699183110,827195202,13210,0,-0.065673828125,-0.96612548828125,0.11175537109375
1759699183110,827195202,13210,1,-0.06201171875,-0.96710205078125,0.11224365234375
