receivedPhoneTimestamp,respeckTimestamp,packetSeqNum,sampleSeqNum,accelX,accelY,accelZ
1759606278766,707750293,14623,0,-0.157958984375,-0.97540283203125,0.11419677734375
1759606278766,707750293,14623,1,-0.1591796875,-0.97662353515625,0.12420654296875
1759606278766,707750293,14623,2,-0.1962890625,-0.98028564453125,0.11981201171875
1759606278766,707750293,14623,3,-0.21533203125,-0.96466064453125,0.11688232421875
1759606278766,707750293,14623,4,-0.230224609375,-0.96343994140625,0.13055419921875
1759606278766,707750293,14623,5,-0.234619140625,-0.96368408203125,0.14227294921875
1759606278766,707750293,14623,6,-0.2451171875,-0.96466064453125,0.13836669921875
1759606278766,707750293,14623,7,-0.231201171875,-0.96246337890625,0.14935302734375
1759606278766,707750293,14623,8,-0.23095703125,-0.95855712890625,0.17230224609375
1759606278766,707750293,14623,9,-0.247314453125,-0.95196533203125,0.16571044921875
1759606278766,707750293,14623,10,-0.24365234375,-0.95489501953125,0.17401123046875
1759606278766,707750293,14623,11,-0.248779296875,-0.95318603515625,0.17913818359375
1759606278766,707750293,14623,12,-0.249267578125,-0.95220947265625,0.17596435546875
1759606278766,707750293,14623,13,-0.24853515625,-0.95294189453125,0.18084716796875
1759606278766,707750293,14623,14,-0.248046875,-0.96148681640625,0.18133544921875
1759606278766,707750293,14623,15,-0.25634765625,-0.94317626953125,0.17913818359375
1759606278766,707750293,14623,16,-0.261962890625,-0.93780517578125,0.17254638671875
1759606278766,707750293,14623,17,-0.2255859375,-0.93536376953125,0.16400146484375
1759606278766,707750293,14623,18,-0.250732421875,-0.95660400390625,0.18035888671875
1759606278766,707750293,14623,19,-0.22705078125,-0.96246337890625,0.17034912109375
1759606278766,707750293,14623,20,-0.225341796875,-0.96490478515625,0.16839599609375
1759606278766,707750293,14623,21,-0.249267578125,-0.96319580078125,0.16937255859375
1759606278766,707750293,14623,22,-0.242431640625,-0.94879150390625,0.15618896484375
1759606278766,707750293,14623,23,-0.20751953125,-0.95343017578125,0.13568115234375
1759606278766,707750293,14623,24,-0.205322265625,-0.97052001953125,0.11761474609375
1759606278766,707750293,14623,25,-0.205078125,-0.98492431640625,0.12664794921875
1759606278766,707750293,14623,26,-0.19580078125,-0.96295166015625,0.10955810546875
1759606278766,707750293,14623,27,-0.194091796875,-0.97003173828125,0.11126708984375
1759606278766,707750293,14623,28,-0.1923828125,-0.99566650390625,0.11566162109375
1759606278766,707750293,14623,29,-0.16943359375,-0.99957275390625,0.09661865234375
1759606278766,707750293,14623,30,-0.162841796875,-0.97247314453125,0.10272216796875
1759606278766,707750293,14623,31,-0.179931640625,-0.98712158203125,0.08001708984375
1759606281347,707752860,14624,0,-0.208984375,-0.97613525390625,0.09661865234375
1759606281347,707752860,14624,1,-0.197509765625,-0.97808837890625,0.10296630859375
1759606281347,707752860,14624,2,-0.1845703125,-0.97198486328125,0.11199951171875
1759606281347,707752860,14624,3,-0.18994140625,-0.96929931640625,0.10003662109375
1759606281347,707752860,14624,4,-0.191162109375,-0.97686767578125,0.10882568359375
1759606281347,707752860,14624,5,-0.194580078125,-0.97589111328125,0.10809326171875
1759606281347,707752860,14624,6,-0.201171875,-0.97076416015625,0.10980224609375
1759606281347,707752860,14624,7,-0.195556640625,-0.97979736328125,0.10614013671875
1759606281347,707752860,14624,8,-0.185546875,-0.97637939453125,0.11151123046875
1759606281347,707752860,14624,9,-0.182373046875,-0.97808837890625,0.11004638671875
1759606281347,707752860,14624,10,-0.188232421875,-0.97198486328125,0.11468505859375
1759606281347,707752860,14624,11,-0.187255859375,-0.97540283203125,0.10955810546875
1759606281347,707752860,14624,12,-0.1865234375,-0.97808837890625,0.11175537109375
1759606281347,707752860,14624,13,-0.18994140625,-0.97076416015625,0.11004638671875
1759606281347,707752860,14624,14,-0.192626953125,-0.97369384765625,0.11151123046875
1759606281347,707752860,14624,15,-0.198974609375,-0.97296142578125,0.10833740234375
1759606281347,707752860,14624,16,-0.198486328125,-0.96954345703125,0.10882568359375
1759606281347,707752860,14624,17,-0.19580078125,-0.97686767578125,0.10589599609375
1759606281347,707752860,14624,18,-0.19287109375,-0.97174072265625,0.11639404296875
1759606281347,707752860,14624,19,-0.205078125,-0.97222900390625,0.12176513671875
1759606281347,707752860,14624,20,-0.197021484375,-0.97149658203125,0.11273193359375
1759606281347,707752860,14624,21,-0.1953125,-0.97955322265625,0.12176513671875
1759606281347,707752860,14624,22,-0.191650390625,-0.96490478515625,0.11883544921875
1759606281347,707752860,14624,23,-0.1923828125,-0.98565673828125,0.12835693359375
1759606281347,707752860,14624,24,-0.190185546875,-0.97735595703125,0.11981201171875
1759606281347,707752860,14624,25,-0.20166015625,-0.97540283203125,0.11102294921875
1759606281347,707752860,14624,26,-0.19873046875,-0.98321533203125,0.11151123046875
1759606281347,707752860,14624,27,-0.202392578125,-0.97393798828125,0.12225341796875
1759606281347,707752860,14624,28,-0.19140625,-0.95440673828125,0.14959716796875
1759606281347,707752860,14624,29,-0.238525390625,-0.93780517578125,0.21014404296875
1759606281347,707752860,14624,30,-0.227294921875,-0.96197509765625,0.19793701171875
1759606281347,707752860,14624,31,-0.200439453125,-0.94781494140625,0.21380615234375
1759606283735,707755427,14625,0,-0.20166015625,-0.93365478515625,0.19354248046875
1759606283735,707755427,14625,1,-0.25390625,-0.95025634765625,0.21990966796875
1759606283735,707755427,14625,2,-0.2109375,-0.94708251953125,0.19500732421875
1759606283735,707755427,14625,3,-0.23291015625,-0.94244384765625,0.19451904296875
1759606283735,707755427,14625,4,-0.223876953125,-0.95880126953125,0.18572998046875
1759606283735,707755427,14625,5,-0.22119140625,-0.96002197265625,0.19012451171875
1759606283735,707755427,14625,6,-0.2158203125,-0.95635986328125,0.18914794921875
1759606283735,707755427,14625,7,-0.2216796875,-0.95025634765625,0.18450927734375
1759606283735,707755427,14625,8,-0.224609375,-0.95196533203125,0.19036865234375
1759606283735,707755427,14625,9,-0.22412109375,-0.95611572265625,0.18402099609375
1759606283735,707755427,14625,10,-0.2294921875,-0.95538330078125,0.18011474609375
1759606283735,707755427,14625,11,-0.22216796875,-0.96099853515625,0.17425537109375
1759606283735,707755427,14625,12,-0.231689453125,-0.95367431640625,0.18328857421875
1759606283735,707755427,14625,13,-0.234375,-0.95050048828125,0.18328857421875
1759606283735,707755427,14625,14,-0.226806640625,-0.95635986328125,0.16717529296875
1759606283735,707755427,14625,15,-0.242919921875,-0.95318603515625,0.18695068359375
1759606283735,707755427,14625,16,-0.22705078125,-0.95758056640625,0.17498779296875
1759606283735,707755427,14625,17,-0.21728515625,-0.95318603515625,0.17767333984375
1759606283735,707755427,14625,18,-0.22705078125,-0.94781494140625,0.17620849609375
1759606283735,707755427,14625,19,-0.23779296875,-0.96929931640625,0.16033935546875
1759606283735,707755427,14625,20,-0.240234375,-0.96026611328125,0.17352294921875
1759606283735,707755427,14625,21,-0.235595703125,-0.94903564453125,0.18109130859375
1759606283735,707755427,14625,22,-0.197509765625,-0.98175048828125,0.15985107421875
1759606283735,707755427,14625,23,-0.161865234375,-0.94781494140625,0.19256591796875
1759606283735,707755427,14625,24,-0.21533203125,-0.96392822265625,0.17059326171875
1759606283735,707755427,14625,25,-0.200927734375,-0.95709228515625,0.20257568359375
1759606283735,707755427,14625,26,-0.21533203125,-0.95953369140625,0.19818115234375
1759606283735,707755427,14625,27,-0.200439453125,-0.94561767578125,0.20501708984375
1759606283735,707755427,14625,28,-0.20166015625,-0.95074462890625,0.20404052734375
1759606283735,707755427,14625,29,-0.2041015625,-0.95343017578125,0.19647216796875
1759606283735,707755427,14625,30,-0.20263671875,-0.95489501953125,0.19036865234375
1759606283735,707755427,14625,31,-0.200927734375,-0.95831298828125,0.20159912109375
1759606286316,707757994,14626,0,-0.19287109375,-0.95831298828125,0.19476318359375
1759606286316,707757994,14626,1,-0.193359375,-0.94708251953125,0.18670654296875
1759606286316,707757994,14626,2,-0.19091796875,-0.97174072265625,0.20257568359375
1759606286316,707757994,14626,3,-0.202880859375,-0.95440673828125,0.19573974609375
1759606286316,707757994,14626,4,-0.202880859375,-0.94561767578125,0.18792724609375
1759606286316,707757994,14626,5,-0.1884765625,-0.95660400390625,0.18231201171875
1759606286316,707757994,14626,6,-0.190185546875,-0.96978759765625,0.17742919921875
1759606286316,707757994,14626,7,-0.186767578125,-0.96661376953125,0.17059326171875
1759606286316,707757994,14626,8,-0.197509765625,-0.96612548828125,0.18304443359375
1759606286316,707757994,14626,9,-0.2119140625,-0.96173095703125,0.18841552734375
1759606286316,707757994,14626,10,-0.20068359375,-0.95220947265625,0.20404052734375
1759606286316,707757994,14626,11,-0.194580078125,-0.94927978515625,0.19842529296875
1759606286316,707757994,14626,12,-0.19482421875,-0.96124267578125,0.20941162109375
1759606286316,707757994,14626,13,-0.204833984375,-0.95538330078125,0.21112060546875
1759606286316,707757994,14626,14,-0.203125,-0.94561767578125,0.21234130859375
1759606286316,707757994,14626,15,-0.209716796875,-0.94586181640625,0.20574951171875
1759606286316,707757994,14626,16,-0.20361328125,-0.94879150390625,0.21429443359375
1759606286316,707757994,14626,17,-0.214111328125,-0.94488525390625,0.21844482421875
1759606286316,707757994,14626,18,-0.209716796875,-0.94635009765625,0.22430419921875
1759606286316,707757994,14626,19,-0.209716796875,-0.94488525390625,0.22039794921875
1759606286316,707757994,14626,20,-0.1728515625,-0.95489501953125,0.21063232421875
1759606286316,707757994,14626,21,-0.189208984375,-0.95196533203125,0.21527099609375
1759606286316,707757994,14626,22,-0.19970703125,-0.94830322265625,0.21795654296875
1759606286316,707757994,14626,23,-0.19384765625,-0.95269775390625,0.21112060546875
1759606286316,707757994,14626,24,-0.19091796875,-0.95806884765625,0.20599365234375
1759606286316,707757994,14626,25,-0.185546875,-0.97491455078125,0.19989013671875
1759606286316,707757994,14626,26,-0.228271484375,-0.95098876953125,0.19793701171875
1759606286316,707757994,14626,27,-0.216796875,-0.92706298828125,0.17230224609375
1759606286316,707757994,14626,28,-0.2060546875,-0.95758056640625,0.17425537109375
1759606286316,707757994,14626,29,-0.177001953125,-0.97271728515625,0.18988037109375
1759606286316,707757994,14626,30,-0.178466796875,-0.98199462890625,0.17010498046875
1759606286316,707757994,14626,31,-0.201171875,-0.96588134765625,0.16131591796875
1759606288902,707760561,14627,0,-0.192626953125,-0.95465087890625,0.15032958984375
1759606288902,707760561,14627,1,-0.182861328125,-0.97247314453125,0.16375732421875
1759606288902,707760561,14627,2,-0.18994140625,-0.96954345703125,0.17132568359375
1759606288902,707760561,14627,3,-0.205810546875,-0.97052001953125,0.19061279296875
1759606288902,707760561,14627,4,-0.208984375,-0.97296142578125,0.19036865234375
1759606288902,707760561,14627,5,-0.213134765625,-0.93438720703125,0.17156982421875
1759606288902,707760561,14627,6,-0.235595703125,-0.93463134765625,0.16497802734375
1759606288902,707760561,14627,7,-0.21435546875,-0.95635986328125,0.18206787109375
1759606288902,707760561,14627,8,-0.21435546875,-0.96856689453125,0.18988037109375
1759606288902,707760561,14627,9,-0.19873046875,-0.96392822265625,0.19671630859375
1759606288902,707760561,14627,10,-0.193603515625,-0.94317626953125,0.19134521484375
1759606288902,707760561,14627,11,-0.172607421875,-0.94268798828125,0.19842529296875
1759606288902,707760561,14627,12,-0.142578125,-0.97442626953125,0.23114013671875
1759606288902,707760561,14627,13,-0.14013671875,-0.99835205078125,0.20770263671875
1759606288902,707760561,14627,14,-0.17919921875,-0.91998291015625,0.21136474609375
1759606288902,707760561,14627,15,-0.189697265625,-0.95440673828125,0.20794677734375
1759606288902,707760561,14627,16,-0.217529296875,-0.96954345703125,0.22845458984375
1759606288902,707760561,14627,17,-0.181396484375,-0.93414306640625,0.19964599609375
1759606288902,707760561,14627,18,-0.156494140625,-0.95733642578125,0.19451904296875
1759606288902,707760561,14627,19,-0.18603515625,-0.95758056640625,0.21502685546875
1759606288902,707760561,14627,20,-0.182861328125,-0.96319580078125,0.21844482421875
1759606288902,707760561,14627,21,-0.174072265625,-0.95855712890625,0.21136474609375
1759606288902,707760561,14627,22,-0.169921875,-0.95343017578125,0.20843505859375
1759606288902,707760561,14627,23,-0.16015625,-0.95758056640625,0.20452880859375
1759606288902,707760561,14627,24,-0.159912109375,-0.95416259765625,0.20404052734375
1759606288902,707760561,14627,25,-0.170654296875,-0.94683837890625,0.21112060546875
1759606288902,707760561,14627,26,-0.184814453125,-0.96514892578125,0.22064208984375
1759606288902,707760561,14627,27,-0.2021484375,-0.96661376953125,0.22943115234375
1759606288902,707760561,14627,28,-0.18359375,-0.93634033203125,0.17791748046875
1759606288902,707760561,14627,29,-0.150634765625,-1.00421142578125,0.10955810546875
1759606288902,707760561,14627,30,-0.184814453125,-0.97442626953125,0.07562255859375
1759606288902,707760561,14627,31,-0.17138671875,-0.95172119140625,0.12249755859375
1759606291486,707763128,14628,0,-0.194580078125,-0.97882080078125,0.15936279296875
1759606291486,707763128,14628,1,-0.18994140625,-0.97833251953125,0.13372802734375
1759606291486,707763128,14628,2,-0.176025390625,-0.97344970703125,0.14154052734375
1759606291486,707763128,14628,3,-0.172119140625,-0.98004150390625,0.14105224609375
1759606291486,707763128,14628,4,-0.161865234375,-0.97515869140625,0.13690185546875
1759606291486,707763128,14628,5,-0.16943359375,-0.97442626953125,0.15399169921875
1759606291486,707763128,14628,6,-0.185302734375,-0.96246337890625,0.15472412109375
1759606291486,707763128,14628,7,-0.1845703125,-0.96051025390625,0.14520263671875
1759606291486,707763128,14628,8,-0.181396484375,-0.96563720703125,0.16009521484375
1759606291486,707763128,14628,9,-0.1728515625,-0.97052001953125,0.15106201171875
1759606291486,707763128,14628,10,-0.1982421875,-0.98785400390625,0.16424560546875
1759606291486,707763128,14628,11,-0.19873046875,-0.96124267578125,0.14910888671875
1759606291486,707763128,14628,12,-0.207275390625,-0.95928955078125,0.15936279296875
1759606291486,707763128,14628,13,-0.183349609375,-0.95953369140625,0.17498779296875
1759606291486,707763128,14628,14,-0.189208984375,-0.95953369140625,0.16082763671875
1759606291486,707763128,14628,15,-0.16748046875,-0.98687744140625,0.17083740234375
1759606291486,707763128,14628,16,-0.18212890625,-0.96539306640625,0.17352294921875
1759606291486,707763128,14628,17,-0.20263671875,-0.96905517578125,0.16741943359375
1759606291486,707763128,14628,18,-0.214111328125,-0.94927978515625,0.17181396484375
1759606291486,707763128,14628,19,-0.16943359375,-0.93780517578125,0.17547607421875
1759606291486,707763128,14628,20,-0.13671875,-0.99200439453125,0.19281005859375
1759606291486,707763128,14628,21,-0.18603515625,-0.96685791015625,0.19647216796875
1759606291486,707763128,14628,22,-0.192138671875,-0.94561767578125,0.18768310546875
1759606291486,707763128,14628,23,-0.1904296875,-0.95172119140625,0.19403076171875
1759606291486,707763128,14628,24,-0.159423828125,-0.97149658203125,0.19598388671875
1759606291486,707763128,14628,25,-0.18212890625,-0.95953369140625,0.19281005859375
1759606291486,707763128,14628,26,-0.181640625,-0.94586181640625,0.19012451171875
1759606291486,707763128,14628,27,-0.184814453125,-0.96783447265625,0.20281982421875
1759606291486,707763128,14628,28,-0.187744140625,-0.95880126953125,0.20330810546875
1759606291486,707763128,14628,29,-0.16357421875,-0.96636962890625,0.19134521484375
1759606291486,707763128,14628,30,-0.17578125,-0.95098876953125,0.19036865234375
1759606291486,707763128,14628,31,-0.1689453125,-0.97369384765625,0.19622802734375
1759606294069,707765695,14629,0,-0.1826171875,-0.95855712890625,0.19476318359375
1759606294069,707765695,14629,1,-0.1748046875,-0.95416259765625,0.20257568359375
1759606294069,707765695,14629,2,-0.16552734375,-0.96441650390625,0.19281005859375
1759606294069,707765695,14629,3,-0.15234375,-0.95880126953125,0.18890380859375
1759606294069,707765695,14629,4,-0.1650390625,-0.94903564453125,0.20477294921875
1759606294069,707765695,14629,5,-0.178466796875,-0.96124267578125,0.20697021484375
1759606294069,707765695,14629,6,-0.17919921875,-0.96148681640625,0.21087646484375
1759606294069,707765695,14629,7,-0.177001953125,-0.95367431640625,0.20501708984375
1759606294069,707765695,14629,8,-0.173095703125,-0.95880126953125,0.19549560546875
1759606294069,707765695,14629,9,-0.172119140625,-0.97467041015625,0.18695068359375
1759606294069,707765695,14629,10,-0.197021484375,-0.95953369140625,0.15936279296875
1759606294069,707765695,14629,11,-0.198974609375,-0.98199462890625,0.17401123046875
1759606294069,707765695,14629,12,-0.18359375,-0.97222900390625,0.12371826171875
1759606294069,707765695,14629,13,-0.18359375,-0.96075439453125,0.13397216796875
1759606294069,707765695,14629,14,-0.176025390625,-0.96148681640625,0.15032958984375
1759606294069,707765695,14629,15,-0.1728515625,-0.96466064453125,0.16400146484375
1759606294069,707765695,14629,16,-0.172607421875,-0.96685791015625,0.15252685546875
1759606294069,707765695,14629,17,-0.172607421875,-0.97125244140625,0.18499755859375
1759606294069,707765695,14629,18,-0.180908203125,-0.97247314453125,0.18109130859375
1759606294069,707765695,14629,19,-0.196044921875,-0.95928955078125,0.18450927734375
1759606294069,707765695,14629,20,-0.185302734375,-0.95880126953125,0.18060302734375
1759606294069,707765695,14629,21,-0.160400390625,-0.97174072265625,0.18572998046875
1759606294069,707765695,14629,22,-0.157958984375,-0.95635986328125,0.18670654296875
1759606294069,707765695,14629,23,-0.1748046875,-0.96051025390625,0.19256591796875
1759606294069,707765695,14629,24,-0.19091796875,-0.96563720703125,0.17840576171875
1759606294069,707765695,14629,25,-0.1904296875,-0.96173095703125,0.19085693359375
1759606294069,707765695,14629,26,-0.175048828125,-0.96343994140625,0.19891357421875
1759606294069,707765695,14629,27,-0.15625,-0.96514892578125,0.18060302734375
1759606294069,707765695,14629,28,-0.158447265625,-0.95880126953125,0.18817138671875
1759606294069,707765695,14629,29,-0.1767578125,-0.96026611328125,0.20062255859375
1759606294069,707765695,14629,30,-0.216064453125,-0.96343994140625,0.20111083984375
1759606294069,707765695,14629,31,-0.174560546875,-0.94903564453125,0.19403076171875
1759606296653,707768263,14630,0,-0.171875,-0.96978759765625,0.19671630859375
1759606296653,707768263,14630,1,-0.164794921875,-0.95440673828125,0.18182373046875
1759606296653,707768263,14630,2,-0.185302734375,-0.95977783203125,0.20697021484375
1759606296653,707768263,14630,3,-0.184814453125,-0.96221923828125,0.19036865234375
1759606296653,707768263,14630,4,-0.190673828125,-0.96783447265625,0.20794677734375
1759606296653,707768263,14630,5,-0.189697265625,-0.94073486328125,0.20330810546875
1759606296653,707768263,14630,6,-0.17333984375,-0.97857666015625,0.16302490234375
1759606296653,707768263,14630,7,-0.190185546875,-0.96685791015625,0.15618896484375
1759606296653,707768263,14630,8,-0.1845703125,-0.96905517578125,0.09368896484375
1759606296653,707768263,14630,9,-0.181396484375,-0.96490478515625,0.17059326171875
1759606296653,707768263,14630,10,-0.1982421875,-0.95782470703125,0.16986083984375
1759606296653,707768263,14630,11,-0.17333984375,-0.97491455078125,0.15447998046875
1759606296653,707768263,14630,12,-0.1796875,-0.96905517578125,0.17156982421875
1759606296653,707768263,14630,13,-0.177001953125,-0.96807861328125,0.15814208984375
1759606296653,707768263,14630,14,-0.16943359375,-0.97808837890625,0.16473388671875
1759606296653,707768263,14630,15,-0.171142578125,-0.96026611328125,0.16351318359375
1759606296653,707768263,14630,16,-0.1611328125,-0.96466064453125,0.17547607421875
1759606296653,707768263,14630,17,-0.1640625,-0.96490478515625,0.18499755859375
1759606296653,707768263,14630,18,-0.170654296875,-0.96759033203125,0.18792724609375
1759606296653,707768263,14630,19,-0.156494140625,-0.96636962890625,0.18084716796875
1759606296653,707768263,14630,20,-0.142333984375,-0.97003173828125,0.18719482421875
1759606296653,707768263,14630,21,-0.177001953125,-0.94952392578125,0.18988037109375
1759606296653,707768263,14630,22,-0.1962890625,-0.97174072265625,0.18524169921875
1759606296653,707768263,14630,23,-0.19384765625,-0.95001220703125,0.18646240234375
1759606296653,707768263,14630,24,-0.154296875,-0.96929931640625,0.19012451171875
1759606296653,707768263,14630,25,-0.14501953125,-0.95977783203125,0.18109130859375
1759606296653,707768263,14630,26,-0.169189453125,-0.97711181640625,0.19549560546875
1759606296653,707768263,14630,27,-0.16650390625,-0.96002197265625,0.18988037109375
1759606296653,707768263,14630,28,-0.1669921875,-0.95562744140625,0.19378662109375
1759606296653,707768263,14630,29,-0.184814453125,-0.97344970703125,0.19451904296875
1759606296653,707768263,14630,30,-0.164306640625,-0.95611572265625,0.19012451171875
1759606296653,707768263,14630,31,-0.1591796875,-0.95123291015625,0.22821044921875
1759606299238,707770830,14631,0,-0.161865234375,-0.98687744140625,0.13397216796875
1759606299238,707770830,14631,1,-0.1787109375,-0.99761962890625,0.12786865234375
1759606299238,707770830,14631,2,-0.172607421875,-0.96026611328125,0.12176513671875
1759606299238,707770830,14631,3,-0.20458984375,-0.94268798828125,0.15350341796875
1759606299238,707770830,14631,4,-0.2021484375,-0.97320556640625,0.17718505859375
1759606299238,707770830,14631,5,-0.17236328125,-0.97711181640625,0.14739990234375
1759606299238,707770830,14631,6,-0.1826171875,-0.96783447265625,0.15594482421875
1759606299238,707770830,14631,7,-0.182373046875,-0.96343994140625,0.14593505859375
1759606299238,707770830,14631,8,-0.194091796875,-0.98419189453125,0.13836669921875
1759606299238,707770830,14631,9,-0.190673828125,-0.96441650390625,0.15130615234375
1759606299238,707770830,14631,10,-0.19189453125,-0.96881103515625,0.16448974609375
1759606299238,707770830,14631,11,-0.14990234375,-0.97955322265625,0.14520263671875
1759606299238,707770830,14631,12,-0.183349609375,-0.95220947265625,0.14422607421875
1759606299238,707770830,14631,13,-0.19970703125,-0.97760009765625,0.16375732421875
1759606299238,707770830,14631,14,-0.198486328125,-0.96881103515625,0.15277099609375
1759606299238,707770830,14631,15,-0.197509765625,-0.96173095703125,0.16888427734375
1759606299238,707770830,14631,16,-0.185546875,-0.96197509765625,0.17498779296875
1759606299238,707770830,14631,17,-0.155029296875,-0.97857666015625,0.17303466796875
1759606299238,707770830,14631,18,-0.19140625,-0.94610595703125,0.17962646484375
1759606299238,707770830,14631,19,-0.192626953125,-0.97247314453125,0.18719482421875
1759606299238,707770830,14631,20,-0.210205078125,-0.97003173828125,0.18109130859375
1759606299238,707770830,14631,21,-0.169677734375,-0.96124267578125,0.16302490234375
1759606299238,707770830,14631,22,-0.152099609375,-0.95611572265625,0.21942138671875
1759606299238,707770830,14631,23,-0.1806640625,-0.94635009765625,0.20233154296875
1759606299238,707770830,14631,24,-0.182861328125,-0.95391845703125,0.20452880859375
1759606299238,707770830,14631,25,-0.187744140625,-0.95855712890625,0.19378662109375
1759606299238,707770830,14631,26,-0.177734375,-0.95855712890625,0.19866943359375
1759606299238,707770830,14631,27,-0.171142578125,-0.96978759765625,0.20355224609375
1759606299238,707770830,14631,28,-0.1767578125,-0.95465087890625,0.18988037109375
1759606299238,707770830,14631,29,-0.202392578125,-0.96319580078125,0.18719482421875
1759606299238,707770830,14631,30,-0.20166015625,-0.95074462890625,0.18157958984375
1759606299238,707770830,14631,31,-0.202880859375,-0.95587158203125,0.17376708984375
1759606301823,707773397,14632,0,-0.192626953125,-0.95587158203125,0.19476318359375
1759606301823,707773397,14632,1,-0.195068359375,-0.96197509765625,0.18182373046875
1759606301823,707773397,14632,2,-0.16845703125,-0.99053955078125,0.20330810546875
1759606301823,707773397,14632,3,-0.182373046875,-0.95977783203125,0.20330810546875
1759606301823,707773397,14632,4,-0.164794921875,-0.95489501953125,0.19696044921875
1759606301823,707773397,14632,5,-0.154541015625,-0.95660400390625,0.19549560546875
1759606301823,707773397,14632,6,-0.170654296875,-0.94708251953125,0.22503662109375
1759606301823,707773397,14632,7,-0.17138671875,-0.94854736328125,0.22894287109375
1759606301823,707773397,14632,8,-0.134033203125,-0.96807861328125,0.20404052734375
1759606301823,707773397,14632,9,-0.142333984375,-0.97369384765625,0.18450927734375
1759606301823,707773397,14632,10,-0.177734375,-0.96905517578125,0.12225341796875
1759606301823,707773397,14632,11,-0.2021484375,-0.98931884765625,0.11737060546875
1759606301823,707773397,14632,12,-0.170166015625,-0.95953369140625,0.15911865234375
1759606301823,707773397,14632,13,-0.18603515625,-0.95611572265625,0.17205810546875
1759606301823,707773397,14632,14,-0.197265625,-0.94805908203125,0.16668701171875
1759606301823,707773397,14632,15,-0.174560546875,-0.98126220703125,0.17083740234375
1759606301823,707773397,14632,16,-0.16943359375,-0.97979736328125,0.15618896484375
1759606301823,707773397,14632,17,-0.178955078125,-0.95733642578125,0.18597412109375
1759606301823,707773397,14632,18,-0.19140625,-0.95611572265625,0.17083740234375
1759606301823,707773397,14632,19,-0.16259765625,-0.97857666015625,0.17010498046875
1759606301823,707773397,14632,20,-0.181396484375,-0.96685791015625,0.17352294921875
1759606301823,707773397,14632,21,-0.176513671875,-0.96075439453125,0.16693115234375
1759606301823,707773397,14632,22,-0.19580078125,-0.96612548828125,0.17767333984375
1759606301823,707773397,14632,23,-0.179931640625,-0.96441650390625,0.17279052734375
1759606301823,707773397,14632,24,-0.178466796875,-0.96197509765625,0.17791748046875
1759606301823,707773397,14632,25,-0.161865234375,-0.96661376953125,0.18621826171875
1759606301823,707773397,14632,26,-0.16650390625,-0.96246337890625,0.17376708984375
1759606301823,707773397,14632,27,-0.177490234375,-0.96807861328125,0.18597412109375
1759606301823,707773397,14632,28,-0.18310546875,-0.96221923828125,0.18988037109375
1759606301823,707773397,14632,29,-0.193359375,-0.95880126953125,0.20037841796875
1759606301823,707773397,14632,30,-0.188232421875,-0.95465087890625,0.19158935546875
1759606301823,707773397,14632,31,-0.170166015625,-0.96270751953125,0.19012451171875
1759606304406,707775964,14633,0,-0.164794921875,-0.95147705078125,0.18914794921875
1759606304406,707775964,14633,1,-0.175537109375,-0.95928955078125,0.20550537109375
1759606304406,707775964,14633,2,-0.192626953125,-0.96783447265625,0.20550537109375
1759606304406,707775964,14633,3,-0.1875,-0.95831298828125,0.18597412109375
1759606304406,707775964,14633,4,-0.1875,-0.95904541015625,0.20355224609375
1759606304406,707775964,14633,5,-0.167236328125,-0.95611572265625,0.19500732421875
1759606304406,707775964,14633,6,-0.18359375,-0.94512939453125,0.20281982421875
1759606304406,707775964,14633,7,-0.170166015625,-0.96710205078125,0.20208740234375
1759606304406,707775964,14633,8,-0.188720703125,-0.95196533203125,0.20159912109375
1759606304406,707775964,14633,9,-0.191650390625,-0.95928955078125,0.20867919921875
1759606304406,707775964,14633,10,-0.18310546875,-0.95635986328125,0.21185302734375
1759606304406,707775964,14633,11,-0.17041015625,-0.95733642578125,0.20672607421875
1759606304406,707775964,14633,12,-0.164794921875,-0.96319580078125,0.20697021484375
1759606304406,707775964,14633,13,-0.169921875,-0.94537353515625,0.19793701171875
1759606304406,707775964,14633,14,-0.178955078125,-0.97003173828125,0.21185302734375
1759606304406,707775964,14633,15,-0.1865234375,-0.95782470703125,0.20330810546875
1759606304406,707775964,14633,16,-0.18505859375,-0.95123291015625,0.20062255859375
1759606304406,707775964,14633,17,-0.171142578125,-0.96368408203125,0.20648193359375
1759606304406,707775964,14633,18,-0.168212890625,-0.94732666015625,0.20501708984375
1759606304406,707775964,14633,19,-0.171630859375,-0.94610595703125,0.21038818359375
1759606304406,707775964,14633,20,-0.185546875,-0.96246337890625,0.21331787109375
1759606304406,707775964,14633,21,-0.180908203125,-0.95855712890625,0.20892333984375
1759606304406,707775964,14633,22,-0.186767578125,-0.94659423828125,0.20697021484375
1759606304406,707775964,14633,23,-0.166015625,-0.96246337890625,0.20672607421875
1759606304406,707775964,14633,24,-0.17626953125,-0.95220947265625,0.20916748046875
1759606304406,707775964,14633,25,-0.17919921875,-0.95758056640625,0.22088623046875
1759606304406,707775964,14633,26,-0.1826171875,-0.95489501953125,0.21282958984375
1759606304406,707775964,14633,27,-0.181640625,-0.94830322265625,0.22723388671875
1759606304406,707775964,14633,28,-0.170166015625,-0.95440673828125,0.21990966796875
1759606304406,707775964,14633,29,-0.161376953125,-0.95611572265625,0.21380615234375
1759606304406,707775964,14633,30,-0.18505859375,-0.95758056640625,0.20233154296875
1759606304406,707775964,14633,31,-0.197265625,-0.99395751953125,0.15057373046875
1759606306988,707778531,14634,0,-0.204345703125,-0.96636962890625,0.15447998046875
1759606306988,707778531,14634,1,-0.200927734375,-0.93927001953125,0.14617919921875
1759606306988,707778531,14634,2,-0.1796875,-0.96197509765625,0.15985107421875
1759606306988,707778531,14634,3,-0.182373046875,-0.96295166015625,0.18402099609375
1759606306988,707778531,14634,4,-0.169677734375,-0.97198486328125,0.15643310546875
1759606306988,707778531,14634,5,-0.1796875,-0.95733642578125,0.17694091796875
1759606306988,707778531,14634,6,-0.184814453125,-0.97515869140625,0.17938232421875
1759606306988,707778531,14634,7,-0.191650390625,-0.96441650390625,0.16033935546875
1759606306988,707778531,14634,8,-0.18310546875,-0.95684814453125,0.18768310546875
1759606306988,707778531,14634,9,-0.159423828125,-0.96759033203125,0.17913818359375
1759606306988,707778531,14634,10,-0.17529296875,-0.95635986328125,0.18011474609375
1759606306988,707778531,14634,11,-0.181640625,-0.97174072265625,0.18621826171875
1759606306988,707778531,14634,12,-0.188720703125,-0.96148681640625,0.18280029296875
1759606306988,707778531,14634,13,-0.19287109375,-0.95147705078125,0.19891357421875
1759606306988,707778531,14634,14,-0.191162109375,-0.96685791015625,0.18499755859375
1759606306988,707778531,14634,15,-0.166015625,-0.95904541015625,0.19940185546875
1759606306988,707778531,14634,16,-0.180419921875,-0.94244384765625,0.19622802734375
1759606306988,707778531,14634,17,-0.198486328125,-0.96392822265625,0.20965576171875
1759606306988,707778531,14634,18,-0.19873046875,-0.95391845703125,0.18328857421875
1759606306988,707778531,14634,19,-0.20361328125,-0.96221923828125,0.20208740234375
1759606306988,707778531,14634,20,-0.183837890625,-0.95831298828125,0.20330810546875
1759606306988,707778531,14634,21,-0.17578125,-0.94635009765625,0.20574951171875
1759606306988,707778531,14634,22,-0.169189453125,-0.95050048828125,0.21575927734375
