receivedPhoneTimestamp,respeckTimestamp,packetSeqNum,sampleSeqNum,accelX,accelY,accelZ
1759330331365,518113745,7832,20,0.175048828125,0.23162841796875,-0.98712158203125
1759330331365,518113745,7832,21,0.169921875,0.22723388671875,-0.98004150390625
1759330331365,518113745,7832,22,0.165283203125,0.22283935546875,-0.98101806640625
1759330331365,518113745,7832,23,0.174072265625,0.23309326171875,-0.98907470703125
1759330331365,518113745,7832,24,0.17236328125,0.23382568359375,-0.98101806640625
1759330331365,518113745,7832,25,0.169921875,0.22747802734375,-0.98370361328125
1759330331365,518113745,7832,26,0.167236328125,0.22796630859375,-0.98199462890625
1759330331365,518113745,7832,27,0.174560546875,0.23431396484375,-0.99029541015625
1759330331365,518113745,7832,28,0.172119140625,0.23260498046875,-0.98565673828125
1759330331365,518113745,7832,29,0.165771484375,0.23016357421875,-0.97784423828125
1759330331365,518113745,7832,30,0.167724609375,0.23333740234375,-0.98541259765625
1759330331365,518113745,7832,31,0.168701171875,0.23455810546875,-0.99078369140625
1759330333900,518116288,7833,0,0.1708984375,0.23284912109375,-0.98223876953125
1759330333900,518116288,7833,1,0.172119140625,0.23309326171875,-0.98175048828125
1759330333900,518116288,7833,2,0.170654296875,0.23553466796875,-0.98345947265625
1759330333900,518116288,7833,3,0.171630859375,0.23236083984375,-0.98834228515625
1759330333900,518116288,7833,4,0.171875,0.23284912109375,-0.98760986328125
1759330333900,518116288,7833,5,0.1669921875,0.23504638671875,-0.97930908203125
1759330333900,518116288,7833,6,0.1650390625,0.23333740234375,-0.98272705078125
1759330333900,518116288,7833,7,0.160400390625,0.23382568359375,-0.98541259765625
1759330333900,518116288,7833,8,0.1552734375,0.23382568359375,-0.98638916015625
1759330333900,518116288,7833,9,0.153076171875,0.23577880859375,-0.98590087890625
1759330333900,518116288,7833,10,0.15087890625,0.23699951171875,-0.98565673828125
1759330333900,518116288,7833,11,0.15625,0.23748779296875,-0.98883056640625
1759330333900,518116288,7833,12,0.1513671875,0.23773193359375,-0.98687744140625
1759330333900,518116288,7833,13,0.151611328125,0.23675537109375,-0.98345947265625
1759330333900,518116288,7833,14,0.153076171875,0.24090576171875,-0.98443603515625
1759330333900,518116288,7833,15,0.1533203125,0.23773193359375,-0.98492431640625
1759330333900,518116288,7833,16,0.14697265625,0.23724365234375,-0.98248291015625
1759330333900,518116288,7833,17,0.148193359375,0.23822021484375,-0.98443603515625
1759330333900,518116288,7833,18,0.146728515625,0.23699951171875,-0.98492431640625
1759330333900,518116288,7833,19,0.1484375,0.23773193359375,-0.98809814453125
1759330333900,518116288,7833,20,0.14501953125,0.23138427734375,-0.98150634765625
1759330333900,518116288,7833,21,0.154296875,0.23651123046875,-0.99005126953125
1759330333900,518116288,7833,22,0.159423828125,0.23675537109375,-0.99200439453125
1759330333900,518116288,7833,23,0.15380859375,0.23651123046875,-0.98248291015625
1759330333900,518116288,7833,24,0.152099609375,0.23577880859375,-0.98712158203125
1759330333900,518116288,7833,25,0.154296875,0.24017333984375,-0.99224853515625
1759330333900,518116288,7833,26,0.15478515625,0.23626708984375,-0.98687744140625
1759330333900,518116288,7833,27,0.154296875,0.23480224609375,-0.98272705078125
1759330333900,518116288,7833,28,0.158447265625,0.23651123046875,-0.98663330078125
1759330333900,518116288,7833,29,0.15380859375,0.23626708984375,-0.98272705078125
1759330333900,518116288,7833,30,0.156005859375,0.23724365234375,-0.98834228515625
1759330333900,518116288,7833,31,0.154296875,0.23626708984375,-0.98126220703125
1759330336433,518118831,7834,0,0.15380859375,0.24066162109375,-0.98712158203125
1759330336433,518118831,7834,1,0.153564453125,0.23699951171875,-0.98492431640625
1759330336433,518118831,7834,2,0.155517578125,0.23553466796875,-0.98663330078125
1759330336433,518118831,7834,3,0.15869140625,0.23846435546875,-0.99151611328125
1759330336433,518118831,7834,4,0.156982421875,0.23675537109375,-0.98736572265625
1759330336433,518118831,7834,5,0.1484375,0.22772216796875,-0.97613525390625
1759330336433,518118831,7834,6,0.146484375,0.22918701171875,-0.98297119140625
1759330336433,518118831,7834,7,0.145751953125,0.22894287109375,-0.98858642578125
1759330336433,518118831,7834,8,0.149169921875,0.23162841796875,-0.98712158203125
1759330336433,518118831,7834,9,0.14599609375,0.22991943359375,-0.98370361328125
1759330336433,518118831,7834,10,0.150146484375,0.23162841796875,-0.98858642578125
1759330336433,518118831,7834,11,0.15234375,0.23553466796875,-0.99273681640625
1759330336433,518118831,7834,12,0.153564453125,0.23333740234375,-0.98443603515625
1759330336433,518118831,7834,13,0.1474609375,0.23260498046875,-0.98419189453125
1759330336433,518118831,7834,14,0.1513671875,0.23504638671875,-0.99127197265625
1759330336433,518118831,7834,15,0.152099609375,0.23455810546875,-0.98883056640625
1759330336433,518118831,7834,16,0.151123046875,0.23504638671875,-0.98370361328125
1759330336433,518118831,7834,17,0.15283203125,0.23480224609375,-0.98736572265625
1759330336433,518118831,7834,18,0.155517578125,0.23651123046875,-0.98590087890625
1759330336433,518118831,7834,19,0.154541015625,0.23480224609375,-0.98345947265625
1759330336433,518118831,7834,20,0.153076171875,0.23480224609375,-0.98492431640625
1759330336433,518118831,7834,21,0.154541015625,0.23553466796875,-0.98785400390625
1759330336433,518118831,7834,22,0.15576171875,0.23480224609375,-0.98590087890625
1759330336433,518118831,7834,23,0.154052734375,0.23529052734375,-0.98614501953125
1759330336433,518118831,7834,24,0.15087890625,0.23504638671875,-0.98931884765625
1759330336433,518118831,7834,25,0.150634765625,0.23675537109375,-0.99249267578125
1759330336433,518118831,7834,26,0.14453125,0.23529052734375,-0.98345947265625
1759330336433,518118831,7834,27,0.14453125,0.23724365234375,-0.98614501953125
1759330336433,518118831,7834,28,0.150634765625,0.23748779296875,-0.98712158203125
1759330336433,518118831,7834,29,0.14990234375,0.23260498046875,-0.98028564453125
1759330336433,518118831,7834,30,0.145751953125,0.23431396484375,-0.98468017578125
1759330336433,518118831,7834,31,0.14404296875,0.23480224609375,-0.98199462890625
1759330338969,518121374,7835,0,0.14892578125,0.23651123046875,-0.99639892578125
1759330338969,518121374,7835,1,0.14306640625,0.23553466796875,-0.98565673828125
1759330338969,518121374,7835,2,0.1435546875,0.23797607421875,-0.98175048828125
1759330338969,518121374,7835,3,0.144287109375,0.23480224609375,-0.98760986328125
1759330338969,518121374,7835,4,0.14599609375,0.23773193359375,-0.99542236328125
1759330338969,518121374,7835,5,0.144287109375,0.23577880859375,-0.98614501953125
1759330338969,518121374,7835,6,0.143798828125,0.23480224609375,-0.98419189453125
1759330338969,518121374,7835,7,0.14306640625,0.23358154296875,-0.98468017578125
1759330338969,518121374,7835,8,0.145263671875,0.23431396484375,-0.99078369140625
1759330338969,518121374,7835,9,0.144287109375,0.23553466796875,-0.99053955078125
1759330338969,518121374,7835,10,0.14306640625,0.23675537109375,-0.98394775390625
1759330338969,518121374,7835,11,0.14404296875,0.23577880859375,-0.98565673828125
1759330338969,518121374,7835,12,0.14501953125,0.23577880859375,-0.98785400390625
1759330338969,518121374,7835,13,0.145263671875,0.23699951171875,-0.98687744140625
1759330338969,518121374,7835,14,0.1484375,0.23895263671875,-0.98687744140625
1759330338969,518121374,7835,15,0.1474609375,0.23602294921875,-0.98590087890625
1759330338969,518121374,7835,16,0.1494140625,0.23797607421875,-0.98809814453125
1759330338969,518121374,7835,17,0.150634765625,0.23529052734375,-0.98248291015625
1759330338969,518121374,7835,18,0.151123046875,0.23553466796875,-0.98443603515625
1759330338969,518121374,7835,19,0.152587890625,0.23406982421875,-0.99029541015625
1759330338969,518121374,7835,20,0.146240234375,0.23480224609375,-0.98248291015625
1759330338969,518121374,7835,21,0.14697265625,0.23089599609375,-0.97833251953125
1759330338969,518121374,7835,22,0.151611328125,0.23504638671875,-0.98663330078125
1759330338969,518121374,7835,23,0.158447265625,0.23406982421875,-0.98956298828125
1759330338969,518121374,7835,24,0.161865234375,0.23455810546875,-0.99591064453125
1759330338969,518121374,7835,25,0.162109375,0.23431396484375,-0.99761962890625
1759330338969,518121374,7835,26,0.150634765625,0.22723388671875,-0.96881103515625
1759330338969,518121374,7835,27,0.15771484375,0.23162841796875,-0.99517822265625
1759330338969,518121374,7835,28,0.156005859375,0.21600341796875,-0.96929931640625
1759330338969,518121374,7835,29,0.161376953125,0.20989990234375,-0.98785400390625
1759330338969,518121374,7835,30,0.15869140625,0.21917724609375,-1.02691650390625
1759330338969,518121374,7835,31,0.135986328125,0.20794677734375,-0.97930908203125
1759330341562,518123917,7836,0,0.128662109375,0.21160888671875,-0.98638916015625
1759330341562,518123917,7836,1,0.141357421875,0.22259521484375,-1.00347900390625
1759330341562,518123917,7836,2,0.1484375,0.22943115234375,-0.99224853515625
1759330341562,518123917,7836,3,0.15234375,0.23065185546875,-0.98809814453125
1759330341562,518123917,7836,4,0.1552734375,0.22625732421875,-0.97955322265625
1759330341562,518123917,7836,5,0.15673828125,0.22357177734375,-0.98297119140625
1759330341562,518123917,7836,6,0.158935546875,0.22869873046875,-0.98907470703125
1759330341562,518123917,7836,7,0.162841796875,0.23138427734375,-0.98980712890625
1759330341562,518123917,7836,8,0.1572265625,0.22186279296875,-0.97882080078125
1759330341562,518123917,7836,9,0.158203125,0.22503662109375,-0.98492431640625
1759330341562,518123917,7836,10,0.156982421875,0.22723388671875,-0.98980712890625
1759330341562,518123917,7836,11,0.1533203125,0.22552490234375,-0.98760986328125
1759330341562,518123917,7836,12,0.15625,0.22381591796875,-0.98834228515625
1759330341562,518123917,7836,13,0.15576171875,0.22357177734375,-0.99468994140625
1759330341562,518123917,7836,14,0.15673828125,0.22430419921875,-0.98663330078125
1759330341562,518123917,7836,15,0.153076171875,0.22137451171875,-0.98809814453125
1759330341562,518123917,7836,16,0.156494140625,0.22650146484375,-0.98785400390625
1759330341562,518123917,7836,17,0.15625,0.22088623046875,-0.98687744140625
1759330341562,518123917,7836,18,0.15625,0.22454833984375,-0.99200439453125
1759330341562,518123917,7836,19,0.157958984375,0.22430419921875,-0.98516845703125
1759330341562,518123917,7836,20,0.157470703125,0.22650146484375,-0.98687744140625
1759330341562,518123917,7836,21,0.160400390625,0.22503662109375,-0.98663330078125
1759330341562,518123917,7836,22,0.1630859375,0.22601318359375,-0.98516845703125
1759330341562,518123917,7836,23,0.158935546875,0.22747802734375,-0.98468017578125
1759330341562,518123917,7836,24,0.15869140625,0.22479248046875,-0.98736572265625
1759330341562,518123917,7836,25,0.1611328125,0.22552490234375,-0.98785400390625
1759330341562,518123917,7836,26,0.1591796875,0.22528076171875,-0.99005126953125
1759330341562,518123917,7836,27,0.157470703125,0.22381591796875,-0.98834228515625
1759330341562,518123917,7836,28,0.159423828125,0.22503662109375,-0.98858642578125
1759330341562,518123917,7836,29,0.1611328125,0.22772216796875,-0.98931884765625
1759330341562,518123917,7836,30,0.1591796875,0.22796630859375,-0.98516845703125
1759330341562,518123917,7836,31,0.156982421875,0.22430419921875,-0.98223876953125
1759330344040,518126460,7837,0,0.158203125,0.22528076171875,-0.98760986328125
1759330344040,518126460,7837,1,0.162353515625,0.22430419921875,-0.98272705078125
1759330344040,518126460,7837,2,0.168701171875,0.23138427734375,-0.99102783203125
1759330344040,518126460,7837,3,0.16650390625,0.22747802734375,-0.98663330078125
1759330344040,518126460,7837,4,0.164306640625,0.22601318359375,-0.98272705078125
1759330344040,518126460,7837,5,0.16650390625,0.22650146484375,-0.98736572265625
1759330344040,518126460,7837,6,0.16943359375,0.22796630859375,-0.98883056640625
1759330344040,518126460,7837,7,0.1689453125,0.22186279296875,-0.98101806640625
1759330344040,518126460,7837,8,0.169677734375,0.22894287109375,-0.98272705078125
1759330344040,518126460,7837,9,0.168701171875,0.22772216796875,-0.98419189453125
1759330344040,518126460,7837,10,0.17041015625,0.22894287109375,-0.98980712890625
1759330344040,518126460,7837,11,0.1708984375,0.22796630859375,-0.98614501953125
1759330344040,518126460,7837,12,0.174072265625,0.22772216796875,-0.98443603515625
1759330344040,518126460,7837,13,0.174072265625,0.22552490234375,-0.99029541015625
1759330344040,518126460,7837,14,0.178466796875,0.22552490234375,-0.98760986328125
1759330344040,518126460,7837,15,0.174072265625,0.22601318359375,-0.98541259765625
1759330344040,518126460,7837,16,0.166748046875,0.22625732421875,-0.97735595703125
1759330344040,518126460,7837,17,0.16796875,0.23138427734375,-0.98980712890625
1759330344040,518126460,7837,18,0.1611328125,0.22698974609375,-0.97906494140625
1759330344040,518126460,7837,19,0.162841796875,0.23236083984375,-0.98126220703125
1759330344040,518126460,7837,20,0.162841796875,0.23309326171875,-0.98760986328125
1759330344040,518126460,7837,21,0.1611328125,0.22698974609375,-0.98492431640625
1759330344040,518126460,7837,22,0.16162109375,0.22747802734375,-0.98858642578125
1759330344040,518126460,7837,23,0.158935546875,0.22552490234375,-0.98419189453125
1759330344040,518126460,7837,24,0.1611328125,0.22943115234375,-0.98809814453125
1759330344040,518126460,7837,25,0.1640625,0.23236083984375,-0.99053955078125
1759330344040,518126460,7837,26,0.162841796875,0.22747802734375,-0.98541259765625
1759330344040,518126460,7837,27,0.16162109375,0.22528076171875,-0.98223876953125
1759330344040,518126460,7837,28,0.1669921875,0.23016357421875,-0.98760986328125
1759330344040,518126460,7837,29,0.166015625,0.23114013671875,-0.98907470703125
1759330344040,518126460,7837,30,0.165283203125,0.22918701171875,-0.98614501953125
1759330344040,518126460,7837,31,0.1650390625,0.22869873046875,-0.98541259765625
1759330346577,518129003,7838,0,0.164306640625,0.22747802734375,-0.98370361328125
1759330346577,518129003,7838,1,0.1650390625,0.23114013671875,-0.98394775390625
1759330346577,518129003,7838,2,0.16748046875,0.23114013671875,-0.98712158203125
1759330346577,518129003,7838,3,0.16748046875,0.22674560546875,-0.98468017578125
1759330346577,518129003,7838,4,0.164794921875,0.22821044921875,-0.98077392578125
1759330346577,518129003,7838,5,0.16650390625,0.23065185546875,-0.99053955078125
1759330346577,518129003,7838,6,0.16455078125,0.22845458984375,-0.98907470703125
1759330346577,518129003,7838,7,0.164794921875,0.22991943359375,-0.98443603515625
1759330346577,518129003,7838,8,0.166748046875,0.22796630859375,-0.98175048828125
1759330346577,518129003,7838,9,0.169921875,0.23699951171875,-0.99371337890625
1759330346577,518129003,7838,10,0.164306640625,0.22210693359375,-0.98150634765625
1759330346577,518129003,7838,11,0.162841796875,0.22869873046875,-0.98321533203125
1759330346577,518129003,7838,12,0.16796875,0.23016357421875,-0.98516845703125
1759330346577,518129003,7838,13,0.166259765625,0.22625732421875,-0.98199462890625
1759330346577,518129003,7838,14,0.166748046875,0.22821044921875,-0.98419189453125
1759330346577,518129003,7838,15,0.166015625,0.23016357421875,-0.98858642578125
1759330346577,518129003,7838,16,0.1611328125,0.22918701171875,-0.98272705078125
1759330346577,518129003,7838,17,0.162109375,0.23162841796875,-0.98565673828125
1759330346577,518129003,7838,18,0.1611328125,0.23211669921875,-0.98565673828125
1759330346577,518129003,7838,19,0.162841796875,0.22796630859375,-0.98175048828125
1759330346577,518129003,7838,20,0.162353515625,0.23236083984375,-0.98834228515625
1759330346577,518129003,7838,21,0.1611328125,0.23260498046875,-0.99029541015625
1759330346577,518129003,7838,22,0.16259765625,0.23480224609375,-0.98297119140625
1759330346577,518129003,7838,23,0.15966796875,0.23162841796875,-0.98321533203125
1759330346577,518129003,7838,24,0.150634765625,0.23162841796875,-0.98931884765625
1759330346577,518129003,7838,25,0.147216796875,0.23382568359375,-0.99029541015625
1759330346577,518129003,7838,26,0.1455078125,0.23406982421875,-0.98223876953125
1759330346577,518129003,7838,27,0.154052734375,0.23260498046875,-0.98028564453125
1759330346577,518129003,7838,28,0.15869140625,0.23577880859375,-0.99029541015625
1759330346577,518129003,7838,29,0.15625,0.23016357421875,-0.98443603515625
1759330346577,518129003,7838,30,0.150146484375,0.22869873046875,-0.98297119140625
1759330346577,518129003,7838,31,0.14794921875,0.22943115234375,-0.98980712890625
1759330349305,518131546,7839,0,0.14599609375,0.22894287109375,-0.99200439453125
1759330349305,518131546,7839,1,0.149169921875,0.22576904296875,-0.99200439453125
1759330349305,518131546,7839,2,0.151611328125,0.22088623046875,-0.98785400390625
1759330349305,518131546,7839,3,0.151123046875,0.21990966796875,-0.99053955078125
1759330349305,518131546,7839,4,0.14697265625,0.21746826171875,-0.99151611328125
1759330349305,518131546,7839,5,0.157470703125,0.21868896484375,-0.99444580078125
1759330349305,518131546,7839,6,0.1494140625,0.21893310546875,-0.99127197265625
1759330349305,518131546,7839,7,0.144775390625,0.22479248046875,-0.99346923828125
1759330349305,518131546,7839,8,0.1396484375,0.22357177734375,-0.98931884765625
1759330349305,518131546,7839,9,0.14111328125,0.22113037109375,-0.98760986328125
1759330349305,518131546,7839,10,0.145751953125,0.22454833984375,-0.99737548828125
1759330349305,518131546,7839,11,0.142333984375,0.22357177734375,-0.99298095703125
1759330349305,518131546,7839,12,0.140380859375,0.22357177734375,-0.98809814453125
1759330349305,518131546,7839,13,0.138671875,0.22552490234375,-0.99249267578125
1759330349305,518131546,7839,14,0.14306640625,0.22772216796875,-0.99591064453125
1759330349305,518131546,7839,15,0.144287109375,0.22601318359375,-0.98834228515625
1759330349305,518131546,7839,16,0.143310546875,0.22479248046875,-0.98516845703125
1759330349305,518131546,7839,17,0.143310546875,0.22991943359375,-0.99395751953125
1759330349305,518131546,7839,18,0.140625,0.22698974609375,-0.99322509765625
1759330349305,518131546,7839,19,0.1396484375,0.22747802734375,-0.98931884765625
1759330349305,518131546,7839,20,0.140625,0.22357177734375,-0.98809814453125
1759330349305,518131546,7839,21,0.142578125,0.22674560546875,-0.99053955078125
1759330349305,518131546,7839,22,0.142822265625,0.22821044921875,-0.98687744140625
1759330349305,518131546,7839,23,0.142822265625,0.23162841796875,-0.99029541015625
1759330349305,518131546,7839,24,0.14453125,0.22967529296875,-0.98736572265625
1759330349305,518131546,7839,25,0.14404296875,0.22991943359375,-0.98931884765625
1759330349305,518131546,7839,26,0.14208984375,0.22430419921875,-0.98760986328125
1759330349305,518131546,7839,27,0.142822265625,0.22650146484375,-0.99053955078125
1759330349305,518131546,7839,28,0.145751953125,0.23040771484375,-0.98614501953125
1759330349305,518131546,7839,29,0.149169921875,0.23016357421875,-0.99078369140625
1759330349305,518131546,7839,30,0.1474609375,0.22747802734375,-0.98858642578125
1759330349305,518131546,7839,31,0.14697265625,0.22869873046875,-0.98785400390625
1759330351838,518134089,7840,0,0.14404296875,0.22552490234375,-0.98516845703125
1759330351838,518134089,7840,1,0.14794921875,0.22576904296875,-0.98541259765625
1759330351838,518134089,7840,2,0.14990234375,0.22894287109375,-0.99127197265625
1759330351838,518134089,7840,3,0.14599609375,0.22747802734375,-0.98956298828125
1759330351838,518134089,7840,4,0.148193359375,0.22772216796875,-0.98638916015625
1759330351838,518134089,7840,5,0.149169921875,0.23187255859375,-0.99322509765625
1759330351838,518134089,7840,6,0.147705078125,0.22772216796875,-0.98883056640625
1759330351838,518134089,7840,7,0.14501953125,0.22381591796875,-0.98712158203125
1759330351838,518134089,7840,8,0.1455078125,0.22821044921875,-0.98541259765625
1759330351838,518134089,7840,9,0.1474609375,0.23162841796875,-0.98907470703125
1759330351838,518134089,7840,10,0.142822265625,0.22796630859375,-0.98468017578125
1759330351838,518134089,7840,11,0.13818359375,0.23016357421875,-0.98834228515625
1759330351838,518134089,7840,12,0.135009765625,0.23040771484375,-0.99151611328125
1759330351838,518134089,7840,13,0.13671875,0.23431396484375,-0.99346923828125
1759330351838,518134089,7840,14,0.1318359375,0.23138427734375,-0.98834228515625
1759330351838,518134089,7840,15,0.1318359375,0.22991943359375,-0.98809814453125
1759330351838,518134089,7840,16,0.132568359375,0.22650146484375,-0.99200439453125
1759330351838,518134089,7840,17,0.136474609375,0.22894287109375,-0.99444580078125
1759330351838,518134089,7840,18,0.137451171875,0.23333740234375,-0.99029541015625
1759330351838,518134089,7840,19,0.1396484375,0.23040771484375,-0.98516845703125
1759330351838,518134089,7840,20,0.1396484375,0.23040771484375,-0.98980712890625
1759330351838,518134089,7840,21,0.137939453125,0.23162841796875,-0.98858642578125
1759330351838,518134089,7840,22,0.136474609375,0.22991943359375,-0.98858642578125
1759330351838,518134089,7840,23,0.1376953125,0.23089599609375,-0.98834228515625
1759330351838,518134089,7840,24,0.137939453125,0.22967529296875,-0.99420166015625
1759330351838,518134089,7840,25,0.1396484375,0.22796630859375,-0.98760986328125
1759330351838,518134089,7840,26,0.137939453125,0.23065185546875,-0.99053955078125
1759330351838,518134089,7840,27,0.13623046875,0.23187255859375,-0.98980712890625
1759330351838,518134089,7840,28,0.13623046875,0.23187255859375,-0.98907470703125
1759330351838,518134089,7840,29,0.132568359375,0.23040771484375,-0.99053955078125
1759330351838,518134089,7840,30,0.13818359375,0.22918701171875,-0.98541259765625
1759330351838,518134089,7840,31,0.139892578125,0.23089599609375,-0.98931884765625
1759330354367,518136632,7841,0,0.141845703125,0.23333740234375,-0.99053955078125
1759330354367,518136632,7841,1,0.1435546875,0.23016357421875,-0.98931884765625
1759330354367,518136632,7841,2,0.140380859375,0.22430419921875,-0.98931884765625
1759330354367,518136632,7841,3,0.14111328125,0.22991943359375,-1.00054931640625
1759330354367,518136632,7841,4,0.139404296875,0.22674560546875,-0.99273681640625
1759330354367,518136632,7841,5,0.139892578125,0.22381591796875,-0.98663330078125
1759330354367,518136632,7841,6,0.142822265625,0.23065185546875,-0.99322509765625
1759330354367,518136632,7841,7,0.141357421875,0.22894287109375,-0.99102783203125
1759330354367,518136632,7841,8,0.13818359375,0.22723388671875,-0.98419189453125
1759330354367,518136632,7841,9,0.1396484375,0.22283935546875,-0.99346923828125
1759330354367,518136632,7841,10,0.14306640625,0.23358154296875,-0.99664306640625
1759330354367,518136632,7841,11,0.14013671875,0.22747802734375,-0.98468017578125
1759330354367,518136632,7841,12,0.13720703125,0.22332763671875,-0.98150634765625
1759330354367,518136632,7841,13,0.140625,0.22869873046875,-0.98907470703125
1759330354367,518136632,7841,14,0.14501953125,0.23382568359375,-1.00006103515625
1759330354367,518136632,7841,15,0.14013671875,0.23211669921875,-0.98541259765625
1759330354367,518136632,7841,16,0.138916015625,0.22747802734375,-0.98004150390625
1759330354367,518136632,7841,17,0.14208984375,0.22943115234375,-0.99810791015625
1759330354367,518136632,7841,18,0.138427734375,0.22918701171875,-0.99298095703125
1759330354367,518136632,7841,19,0.132568359375,0.23236083984375,-0.98468017578125
1759330354367,518136632,7841,20,0.131103515625,0.23480224609375,-0.98712158203125
1759330354367,518136632,7841,21,0.1298828125,0.23236083984375,-0.98956298828125
1759330354367,518136632,7841,22,0.129638671875,0.23406982421875,-0.99224853515625
1759330354367,518136632,7841,23,0.13134765625,0.23358154296875,-0.99151611328125
1759330354367,518136632,7841,24,0.13427734375,0.23309326171875,-0.99102783203125
1759330354367,518136632,7841,25,0.12939453125,0.23309326171875,-0.98712158203125
1759330354367,518136632,7841,26,0.135009765625,0.23504638671875,-0.99639892578125
1759330354367,518136632,7841,27,0.141845703125,0.22747802734375,-0.98712158203125
1759330354367,518136632,7841,28,0.14404296875,0.22845458984375,-0.98931884765625
1759330354367,518136632,7841,29,0.142822265625,0.22747802734375,-0.98712158203125
1759330354367,518136632,7841,30,0.142578125,0.22845458984375,-0.99005126953125
1759330354367,518136632,7841,31,0.14306640625,0.23236083984375,-0.99371337890625
1759330356911,518139176,7842,0,0.140380859375,0.22894287109375,-0.99200439453125
1759330356911,518139176,7842,1,0.14013671875,0.22430419921875,-0.98370361328125
1759330356911,518139176,7842,2,0.146240234375,0.22967529296875,-0.98931884765625
1759330356911,518139176,7842,3,0.1435546875,0.23065185546875,-0.98858642578125
1759330356911,518139176,7842,4,0.146484375,0.22698974609375,-0.98712158203125
1759330356911,518139176,7842,5,0.14599609375,0.22625732421875,-0.98760986328125
1759330356911,518139176,7842,6,0.145263671875,0.22991943359375,-0.99224853515625
1759330356911,518139176,7842,7,0.1435546875,0.22723388671875,-0.99005126953125
1759330356911,518139176,7842,8,0.146240234375,0.22796630859375,-0.98614501953125
1759330356911,518139176,7842,9,0.146728515625,0.22723388671875,-0.98565673828125
1759330356911,518139176,7842,10,0.148681640625,0.22918701171875,-0.98907470703125
1759330356911,518139176,7842,11,0.146484375,0.22796630859375,-0.98468017578125
1759330356911,518139176,7842,12,0.14404296875,0.23065185546875,-0.98760986328125
1759330356911,518139176,7842,13,0.1484375,0.23529052734375,-0.99542236328125
1759330356911,518139176,7842,14,0.146484375,0.23773193359375,-0.98956298828125
1759330356911,518139176,7842,15,0.145263671875,0.23480224609375,-0.98907470703125
1759330356911,518139176,7842,16,0.145263671875,0.23138427734375,-0.98687744140625
1759330356911,518139176,7842,17,0.145751953125,0.23651123046875,-0.99200439453125
1759330356911,518139176,7842,18,0.14599609375,0.23382568359375,-0.98760986328125
1759330356911,518139176,7842,19,0.1435546875,0.22918701171875,-0.98150634765625
1759330356911,518139176,7842,20,0.1455078125,0.23577880859375,-0.99859619140625
1759330356911,518139176,7842,21,0.145263671875,0.23333740234375,-0.98541259765625
1759330356911,518139176,7842,22,0.141845703125,0.22308349609375,-0.97515869140625
1759330356911,518139176,7842,23,0.144287109375,0.23284912109375,-0.99249267578125
1759330356911,518139176,7842,24,0.13623046875,0.23480224609375,-0.99249267578125
1759330356911,518139176,7842,25,0.1328125,0.23748779296875,-0.99029541015625
1759330356911,518139176,7842,26,0.13427734375,0.23675537109375,-0.98663330078125
1759330356911,518139176,7842,27,0.1357421875,0.22991943359375,-0.98638916015625
1759330356911,518139176,7842,28,0.138427734375,0.23016357421875,-0.99810791015625
1759330356911,518139176,7842,29,0.140625,0.23480224609375,-0.98980712890625
1759330356911,518139176,7842,30,0.138671875,0.23284912109375,-0.98004150390625
1759330356911,518139176,7842,31,0.136962890625,0.23529052734375,-0.98712158203125
1759330359642,518141719,7843,0,0.13818359375,0.23626708984375,-0.99444580078125
1759330359642,518141719,7843,1,0.134033203125,0.23236083984375,-0.98492431640625
1759330359642,518141719,7843,2,0.1357421875,0.23406982421875,-0.98590087890625
1759330359642,518141719,7843,3,0.134765625,0.23553466796875,-0.98883056640625
1759330359642,518141719,7843,4,0.1376953125,0.23699951171875,-0.99371337890625
1759330359642,518141719,7843,5,0.13671875,0.23480224609375,-0.98712158203125
1759330359642,518141719,7843,6,0.13720703125,0.23455810546875,-0.98760986328125
1759330359642,518141719,7843,7,0.136962890625,0.23504638671875,-0.99420166015625
1759330359642,518141719,7843,8,0.134521484375,0.23358154296875,-0.98834228515625
1759330359642,518141719,7843,9,0.13671875,0.23187255859375,-0.98663330078125
1759330359642,518141719,7843,10,0.1376953125,0.23455810546875,-0.99151611328125
1759330359642,518141719,7843,11,0.134033203125,0.23431396484375,-0.99176025390625
1759330359642,518141719,7843,12,0.130859375,0.23431396484375,-0.99298095703125
1759330359642,518141719,7843,13,0.120849609375,0.23211669921875,-0.98297119140625
1759330359642,518141719,7843,14,0.120849609375,0.24017333984375,-0.99420166015625
1759330359642,518141719,7843,15,0.120361328125,0.23748779296875,-0.98956298828125
1759330359642,518141719,7843,16,0.121337890625,0.23675537109375,-0.98760986328125
1759330359642,518141719,7843,17,0.12255859375,0.23675537109375,-0.99298095703125
1759330359642,518141719,7843,18,0.12255859375,0.23675537109375,-0.99053955078125
1759330359642,518141719,7843,19,0.12353515625,0.23260498046875,-0.98614501953125
1759330359642,518141719,7843,20,0.12548828125,0.23480224609375,-0.99200439453125
1759330359642,518141719,7843,21,0.124267578125,0.23797607421875,-0.99078369140625
1759330359642,518141719,7843,22,0.12646484375,0.23699951171875,-0.98980712890625
1759330359642,518141719,7843,23,0.127685546875,0.23333740234375,-0.98809814453125
1759330359642,518141719,7843,24,0.12841796875,0.23504638671875,-0.99029541015625
1759330359642,518141719,7843,25,0.12451171875,0.23651123046875,-0.98712158203125
1759330359642,518141719,7843,26,0.1240234375,0.23626708984375,-0.98931884765625
1759330359642,518141719,7843,27,0.130615234375,0.23651123046875,-0.99102783203125
1759330359642,518141719,7843,28,0.130615234375,0.23724365234375,-0.99224853515625
1759330359642,518141719,7843,29,0.12744140625,0.23529052734375,-0.98883056640625
1759330359642,518141719,7843,30,0.13134765625,0.23651123046875,-0.98712158203125
1759330359642,518141719,7843,31,0.13037109375,0.23529052734375,-0.98638916015625
1759330361975,518144256,7844,0,0.130859375,0.23455810546875,-0.98785400390625
1759330361975,518144256,7844,1,0.132080078125,0.23358154296875,-0.98858642578125
1759330361975,518144256,7844,2,0.1337890625,0.23431396484375,-0.99005126953125
1759330361975,518144256,7844,3,0.135009765625,0.23529052734375,-0.99176025390625
1759330361975,518144256,7844,4,0.133056640625,0.23553466796875,-0.98931884765625
1759330361975,518144256,7844,5,0.130615234375,0.23626708984375,-0.98492431640625
1759330361975,518144256,7844,6,0.130859375,0.23455810546875,-0.99005126953125
1759330361975,518144256,7844,7,0.131591796875,0.23504638671875,-0.98931884765625
1759330361975,518144256,7844,8,0.130615234375,0.23504638671875,-0.99102783203125
1759330361975,518144256,7844,9,0.134765625,0.23455810546875,-0.99029541015625
1759330361975,518144256,7844,10,0.1396484375,0.23529052734375,-0.99151611328125
