receivedPhoneTimestamp,respeckTimestamp,packetSeqNum,sampleSeqNum,accelX,accelY,accelZ
1759922649073,1024153665,51508,12,0.011474609375,-0.93609619140625,0.27166748046875
1759922649073,1024153665,51508,13,0.025634765625,-0.94439697265625,0.26190185546875
1759922649073,1024153665,51508,14,0.029296875,-0.94049072265625,0.27532958984375
1759922649073,1024153665,51508,15,0.01318359375,-0.94073486328125,0.27606201171875
1759922649073,1024153665,51508,16,0.0185546875,-0.94512939453125,0.27972412109375
1759922649073,1024153665,51508,17,0.02099609375,-0.93145751953125,0.28436279296875
1759922649073,1024153665,51508,18,0.018798828125,-0.93804931640625,0.28973388671875
1759922649073,1024153665,51508,19,0.019287109375,-0.93682861328125,0.28656005859375
1759922649073,1024153665,51508,20,0.01416015625,-0.93365478515625,0.28485107421875
1759922649073,1024153665,51508,21,0.01318359375,-0.94439697265625,0.27728271484375
1759922649073,1024153665,51508,22,0.013427734375,-0.93780517578125,0.28411865234375
1759922649073,1024153665,51508,23,0.015625,-0.93023681640625,0.28265380859375
1759922649073,1024153665,51508,24,0.006591796875,-0.93878173828125,0.29437255859375
1759922649073,1024153665,51508,25,0.017333984375,-0.94830322265625,0.27117919921875
1759922649073,1024153665,51508,26,0.03564453125,-0.94952392578125,0.26043701171875
1759922649073,1024153665,51508,27,0.023193359375,-0.94805908203125,0.25848388671875
1759922649073,1024153665,51508,28,0.018798828125,-0.94879150390625,0.26751708984375
1759922649073,1024153665,51508,29,0.0166015625,-0.93780517578125,0.25238037109375
1759922649073,1024153665,51508,30,0.021240234375,-0.95294189453125,0.26507568359375
1759922649073,1024153665,51508,31,0.025634765625,-0.94805908203125,0.25799560546875
1759922651603,1024156196,51509,0,0.0185546875,-0.95587158203125,0.26409912109375
1759922651603,1024156196,51509,1,0.017333984375,-0.93707275390625,0.26385498046875
1759922651603,1024156196,51509,2,0.02294921875,-0.94097900390625,0.26702880859375
1759922651603,1024156196,51509,3,0.027587890625,-0.95269775390625,0.25091552734375
1759922651603,1024156196,51509,4,0.007568359375,-0.95245361328125,0.25604248046875
1759922651603,1024156196,51509,5,0.007080078125,-0.94122314453125,0.27044677734375
1759922651603,1024156196,51509,6,0.0166015625,-0.94561767578125,0.26727294921875
1759922651603,1024156196,51509,7,0.02294921875,-0.95684814453125,0.26141357421875
1759922651603,1024156196,51509,8,0.0078125,-0.94586181640625,0.26312255859375
1759922651603,1024156196,51509,9,0.0234375,-0.94415283203125,0.26849365234375
1759922651603,1024156196,51509,10,0.024169921875,-0.94561767578125,0.26263427734375
1759922651603,1024156196,51509,11,0.015625,-0.94268798828125,0.27508544921875
1759922651603,1024156196,51509,12,-0.0068359375,-0.94073486328125,0.27435302734375
1759922651603,1024156196,51509,13,-0.00732421875,-0.94171142578125,0.27191162109375
1759922651603,1024156196,51509,14,0.0205078125,-0.93878173828125,0.28338623046875
1759922651603,1024156196,51509,15,0.03076171875,-0.93316650390625,0.28631591796875
1759922651603,1024156196,51509,16,0.020751953125,-0.93658447265625,0.28607177734375
1759922651603,1024156196,51509,17,0.029052734375,-0.93951416015625,0.27972412109375
1759922651603,1024156196,51509,18,0.026611328125,-0.93658447265625,0.28411865234375
1759922651603,1024156196,51509,19,0.017578125,-0.93194580078125,0.28314208984375
1759922651603,1024156196,51509,20,0.024658203125,-0.93829345703125,0.28851318359375
1759922651603,1024156196,51509,21,0.02587890625,-0.93634033203125,0.28509521484375
1759922651603,1024156196,51509,22,0.0205078125,-0.94024658203125,0.29046630859375
1759922651603,1024156196,51509,23,0.010009765625,-0.94073486328125,0.28143310546875
1759922651603,1024156196,51509,24,0.01904296875,-0.93829345703125,0.28094482421875
1759922651603,1024156196,51509,25,0.0302734375,-0.93658447265625,0.27703857421875
1759922651603,1024156196,51509,26,0.0185546875,-0.94659423828125,0.27728271484375
1759922651603,1024156196,51509,27,0.0126953125,-0.94268798828125,0.28460693359375
1759922651603,1024156196,51509,28,0.01953125,-0.93707275390625,0.28167724609375
1759922651603,1024156196,51509,29,0.025390625,-0.93707275390625,0.28851318359375
1759922651603,1024156196,51509,30,0.026611328125,-0.93902587890625,0.28143310546875
1759922651603,1024156196,51509,31,0.032958984375,-0.93121337890625,0.28460693359375
1759922654128,1024158727,51510,0,0.021484375,-0.93853759765625,0.28558349609375
1759922654128,1024158727,51510,1,0.023681640625,-0.93682861328125,0.28314208984375
1759922654128,1024158727,51510,2,0.031982421875,-0.93756103515625,0.28607177734375
1759922654128,1024158727,51510,3,0.02587890625,-0.93756103515625,0.28485107421875
1759922654128,1024158727,51510,4,0.025634765625,-0.94293212890625,0.28387451171875
1759922654128,1024158727,51510,5,0.028076171875,-0.93707275390625,0.28289794921875
1759922654128,1024158727,51510,6,0.030517578125,-0.93756103515625,0.28338623046875
1759922654128,1024158727,51510,7,0.031005859375,-0.93878173828125,0.28143310546875
1759922654128,1024158727,51510,8,0.031494140625,-0.93682861328125,0.28802490234375
1759922654128,1024158727,51510,9,0.030517578125,-0.93096923828125,0.28485107421875
1759922654128,1024158727,51510,10,0.033935546875,-0.93511962890625,0.28021240234375
1759922654128,1024158727,51510,11,0.033935546875,-0.93292236328125,0.28778076171875
1759922654128,1024158727,51510,12,0.028564453125,-0.93463134765625,0.28729248046875
1759922654128,1024158727,51510,13,0.026123046875,-0.93829345703125,0.27899169921875
1759922654128,1024158727,51510,14,0.029541015625,-0.94000244140625,0.27679443359375
1759922654128,1024158727,51510,15,0.024169921875,-0.94097900390625,0.27947998046875
1759922654128,1024158727,51510,16,0.015869140625,-0.93804931640625,0.28143310546875
1759922654128,1024158727,51510,17,0.025634765625,-0.93951416015625,0.29608154296875
1759922654128,1024158727,51510,18,0.033935546875,-0.92633056640625,0.29827880859375
1759922654128,1024158727,51510,19,0.038330078125,-0.92266845703125,0.31439208984375
1759922654128,1024158727,51510,20,0.041015625,-0.93145751953125,0.31536865234375
1759922654128,1024158727,51510,21,0.075439453125,-0.92852783203125,0.29193115234375
1759922654128,1024158727,51510,22,0.072509765625,-0.93804931640625,0.31854248046875
1759922654128,1024158727,51510,23,0.101318359375,-0.92071533203125,0.30657958984375
1759922654128,1024158727,51510,24,0.019775390625,-0.93121337890625,0.23553466796875
1759922654128,1024158727,51510,25,0.076416015625,-0.93414306640625,0.30511474609375
1759922654128,1024158727,51510,26,0.047607421875,-0.96246337890625,0.27020263671875
1759922654128,1024158727,51510,27,0.0791015625,-0.91485595703125,0.30511474609375
1759922654128,1024158727,51510,28,0.02880859375,-0.92340087890625,0.31854248046875
1759922654128,1024158727,51510,29,0.02099609375,-0.94708251953125,0.28558349609375
1759922654128,1024158727,51510,30,0.076904296875,-0.95318603515625,0.31732177734375
1759922654128,1024158727,51510,31,0.0068359375,-0.91070556640625,0.23455810546875
1759922656648,1024161258,51511,0,-0.013427734375,-0.95123291015625,0.25897216796875
1759922656648,1024161258,51511,1,0.07666015625,-0.98126220703125,0.22406005859375
1759922656648,1024161258,51511,2,0.025390625,-0.96612548828125,0.18304443359375
1759922656648,1024161258,51511,3,-0.07568359375,-1.00177001953125,0.19281005859375
1759922656648,1024161258,51511,4,0.070068359375,-0.96807861328125,0.20819091796875
1759922656648,1024161258,51511,5,0.019775390625,-0.96343994140625,0.19622802734375
1759922656648,1024161258,51511,6,0.02197265625,-0.95928955078125,0.16107177734375
1759922656648,1024161258,51511,7,-0.068603515625,-0.95391845703125,0.20501708984375
1759922656648,1024161258,51511,8,0.0859375,-0.93780517578125,0.20989990234375
1759922656648,1024161258,51511,9,-0.0146484375,-0.96832275390625,0.19476318359375
1759922656648,1024161258,51511,10,-0.0234375,-0.98736572265625,0.14837646484375
1759922656648,1024161258,51511,11,0.052978515625,-0.96466064453125,0.18768310546875
1759922656648,1024161258,51511,12,0.05859375,-0.98492431640625,0.25067138671875
1759922656648,1024161258,51511,13,0.036376953125,-0.95172119140625,0.20233154296875
1759922656648,1024161258,51511,14,0.04345703125,-1.01080322265625,0.15203857421875
1759922656648,1024161258,51511,15,0.058349609375,-0.98223876953125,0.08416748046875
1759922656648,1024161258,51511,16,0.004638671875,-0.95660400390625,0.02142333984375
1759922656648,1024161258,51511,17,0.048095703125,-0.99224853515625,-0.02691650390625
1759922656648,1024161258,51511,18,0.0537109375,-1.03741455078125,-0.01470947265625
1759922656648,1024161258,51511,19,0.036376953125,-0.95269775390625,0.11859130859375
1759922656648,1024161258,51511,20,0.0400390625,-0.99273681640625,0.15936279296875
1759922656648,1024161258,51511,21,0.03857421875,-0.95318603515625,0.20452880859375
1759922656648,1024161258,51511,22,0.035888671875,-0.95391845703125,0.24114990234375
1759922656648,1024161258,51511,23,0.037109375,-0.94879150390625,0.25897216796875
1759922656648,1024161258,51511,24,0.0419921875,-0.95733642578125,0.25213623046875
1759922656648,1024161258,51511,25,0.041259765625,-0.94219970703125,0.25799560546875
1759922656648,1024161258,51511,26,0.038330078125,-0.94317626953125,0.26336669921875
1759922656648,1024161258,51511,27,0.04443359375,-0.94464111328125,0.26898193359375
1759922656648,1024161258,51511,28,0.0546875,-0.93023681640625,0.27679443359375
1759922656648,1024161258,51511,29,0.0380859375,-0.94000244140625,0.28753662109375
1759922656648,1024161258,51511,30,0.047119140625,-0.94049072265625,0.27752685546875
1759922656648,1024161258,51511,31,0.047119140625,-0.93243408203125,0.29290771484375
1759922659167,1024163789,51512,0,0.04248046875,-0.94244384765625,0.28387451171875
1759922659167,1024163789,51512,1,0.042724609375,-0.93121337890625,0.27679443359375
1759922659167,1024163789,51512,2,0.036376953125,-0.94073486328125,0.27435302734375
1759922659167,1024163789,51512,3,0.0341796875,-0.94732666015625,0.27044677734375
1759922659167,1024163789,51512,4,0.03515625,-0.93438720703125,0.27777099609375
1759922659167,1024163789,51512,5,0.036376953125,-0.94317626953125,0.27020263671875
1759922659167,1024163789,51512,6,0.033935546875,-0.94854736328125,0.27166748046875
1759922659167,1024163789,51512,7,0.0390625,-0.93585205078125,0.27484130859375
1759922659167,1024163789,51512,8,0.03857421875,-0.94488525390625,0.27142333984375
1759922659167,1024163789,51512,9,0.04931640625,-0.94317626953125,0.26141357421875
1759922659167,1024163789,51512,10,0.044677734375,-0.93731689453125,0.26776123046875
1759922659167,1024163789,51512,11,0.046630859375,-0.94317626953125,0.27069091796875
1759922659167,1024163789,51512,12,0.039306640625,-0.94219970703125,0.27093505859375
1759922659167,1024163789,51512,13,0.0400390625,-0.95123291015625,0.26190185546875
1759922659167,1024163789,51512,14,0.04931640625,-0.93731689453125,0.27142333984375
1759922659167,1024163789,51512,15,0.046875,-0.94268798828125,0.26776123046875
1759922659167,1024163789,51512,16,0.0498046875,-0.94000244140625,0.26727294921875
1759922659167,1024163789,51512,17,0.045166015625,-0.94122314453125,0.26556396484375
1759922659167,1024163789,51512,18,0.049072265625,-0.94610595703125,0.26751708984375
1759922659167,1024163789,51512,19,0.04931640625,-0.94195556640625,0.26727294921875
1759922659167,1024163789,51512,20,0.05126953125,-0.94097900390625,0.26727294921875
1759922659167,1024163789,51512,21,0.052978515625,-0.94219970703125,0.26751708984375
1759922659167,1024163789,51512,22,0.049560546875,-0.94097900390625,0.26873779296875
1759922659167,1024163789,51512,23,0.052978515625,-0.94122314453125,0.26947021484375
1759922659167,1024163789,51512,24,0.051025390625,-0.93853759765625,0.27825927734375
1759922659167,1024163789,51512,25,0.0439453125,-0.94415283203125,0.27410888671875
1759922659167,1024163789,51512,26,0.04345703125,-0.93487548828125,0.27923583984375
1759922659167,1024163789,51512,27,0.0419921875,-0.93975830078125,0.28314208984375
1759922659167,1024163789,51512,28,0.045654296875,-0.93609619140625,0.27703857421875
1759922659167,1024163789,51512,29,0.036376953125,-0.94293212890625,0.27508544921875
1759922659167,1024163789,51512,30,0.036865234375,-0.93365478515625,0.28460693359375
1759922659167,1024163789,51512,31,0.037353515625,-0.94268798828125,0.27362060546875
1759922661688,1024166321,51513,0,0.04638671875,-0.95343017578125,0.28387451171875
1759922661688,1024166321,51513,1,0.038818359375,-0.93316650390625,0.29071044921875
1759922661688,1024166321,51513,2,0.039306640625,-0.94659423828125,0.26287841796875
1759922661688,1024166321,51513,3,0.051025390625,-0.93145751953125,0.25115966796875
1759922661688,1024166321,51513,4,0.0537109375,-0.93365478515625,0.28167724609375
1759922661688,1024166321,51513,5,0.04443359375,-0.94366455078125,0.27801513671875
1759922661688,1024166321,51513,6,0.037841796875,-0.94512939453125,0.26800537109375
1759922661688,1024166321,51513,7,0.048095703125,-0.94342041015625,0.26556396484375
1759922661688,1024166321,51513,8,0.04833984375,-0.95050048828125,0.26141357421875
1759922661688,1024166321,51513,9,0.049560546875,-0.94146728515625,0.26214599609375
1759922661688,1024166321,51513,10,0.04296875,-0.93951416015625,0.26068115234375
1759922661688,1024166321,51513,11,0.04345703125,-0.94927978515625,0.27044677734375
1759922661688,1024166321,51513,12,0.04248046875,-0.94415283203125,0.26141357421875
1759922661688,1024166321,51513,13,0.042236328125,-0.94122314453125,0.26629638671875
1759922661688,1024166321,51513,14,0.038330078125,-0.94317626953125,0.26580810546875
1759922661688,1024166321,51513,15,0.037109375,-0.94195556640625,0.26678466796875
1759922661688,1024166321,51513,16,0.047119140625,-0.94805908203125,0.26776123046875
1759922661688,1024166321,51513,17,0.04736328125,-0.93927001953125,0.26629638671875
1759922661688,1024166321,51513,18,0.04296875,-0.94952392578125,0.27020263671875
1759922661688,1024166321,51513,19,0.04541015625,-0.93756103515625,0.27313232421875
1759922661688,1024166321,51513,20,0.046630859375,-0.93707275390625,0.27459716796875
1759922661688,1024166321,51513,21,0.05029296875,-0.94171142578125,0.27484130859375
1759922661688,1024166321,51513,22,0.05029296875,-0.94024658203125,0.27337646484375
1759922661688,1024166321,51513,23,0.052734375,-0.93341064453125,0.27288818359375
1759922661688,1024166321,51513,24,0.046875,-0.94219970703125,0.27093505859375
1759922661688,1024166321,51513,25,0.056396484375,-0.93902587890625,0.27386474609375
1759922661688,1024166321,51513,26,0.0546875,-0.93902587890625,0.27362060546875
1759922661688,1024166321,51513,27,0.05029296875,-0.93341064453125,0.28070068359375
1759922661688,1024166321,51513,28,0.049560546875,-0.93658447265625,0.27899169921875
1759922661688,1024166321,51513,29,0.04833984375,-0.93878173828125,0.27899169921875
1759922661688,1024166321,51513,30,0.056884765625,-0.94732666015625,0.27142333984375
1759922661688,1024166321,51513,31,0.05810546875,-0.94097900390625,0.27093505859375
1759922664200,1024168852,51514,0,0.057373046875,-0.93731689453125,0.27996826171875
1759922664200,1024168852,51514,1,0.05615234375,-0.93682861328125,0.28973388671875
1759922664200,1024168852,51514,2,0.045166015625,-0.94927978515625,0.23577880859375
1759922664200,1024168852,51514,3,0.03955078125,-0.92926025390625,0.23040771484375
1759922664200,1024168852,51514,4,0.054931640625,-0.93853759765625,0.26922607421875
1759922664200,1024168852,51514,5,0.040771484375,-0.98052978515625,0.23065185546875
1759922664200,1024168852,51514,6,0.042724609375,-0.95928955078125,0.21942138671875
1759922664200,1024168852,51514,7,0.0517578125,-0.95684814453125,0.22845458984375
1759922664200,1024168852,51514,8,0.05322265625,-0.95440673828125,0.21649169921875
1759922664200,1024168852,51514,9,0.048095703125,-0.96002197265625,0.22381591796875
1759922664200,1024168852,51514,10,0.039306640625,-0.95587158203125,0.22430419921875
1759922664200,1024168852,51514,11,0.047607421875,-0.96246337890625,0.21795654296875
1759922664200,1024168852,51514,12,0.046142578125,-0.96051025390625,0.22308349609375
1759922664200,1024168852,51514,13,0.04296875,-0.95806884765625,0.21820068359375
1759922664200,1024168852,51514,14,0.043701171875,-0.96441650390625,0.22039794921875
1759922664200,1024168852,51514,15,0.038330078125,-0.95465087890625,0.21990966796875
1759922664200,1024168852,51514,16,0.036376953125,-0.96075439453125,0.21722412109375
1759922664200,1024168852,51514,17,0.03369140625,-0.96441650390625,0.22113037109375
1759922664200,1024168852,51514,18,0.03173828125,-0.95831298828125,0.22381591796875
1759922664200,1024168852,51514,19,0.029541015625,-0.96417236328125,0.22552490234375
1759922664200,1024168852,51514,20,0.03125,-0.96173095703125,0.22454833984375
1759922664200,1024168852,51514,21,0.034423828125,-0.96246337890625,0.21746826171875
1759922664200,1024168852,51514,22,0.045166015625,-0.95733642578125,0.21136474609375
1759922664200,1024168852,51514,23,0.032958984375,-0.95831298828125,0.20989990234375
1759922664200,1024168852,51514,24,0.019287109375,-0.96563720703125,0.22430419921875
1759922664200,1024168852,51514,25,0.020263671875,-0.96807861328125,0.21624755859375
1759922664200,1024168852,51514,26,0.035400390625,-0.95391845703125,0.21868896484375
1759922664200,1024168852,51514,27,0.05517578125,-0.95025634765625,0.23333740234375
1759922664200,1024168852,51514,28,0.066650390625,-0.95294189453125,0.23773193359375
1759922664200,1024168852,51514,29,0.07080078125,-0.95245361328125,0.24383544921875
1759922664200,1024168852,51514,30,0.07275390625,-0.94854736328125,0.24334716796875
1759922664200,1024168852,51514,31,0.074462890625,-0.94512939453125,0.24627685546875
1759922666727,1024171383,51515,0,0.079833984375,-0.94097900390625,0.25067138671875
1759922666727,1024171383,51515,1,0.07763671875,-0.94830322265625,0.24627685546875
1759922666727,1024171383,51515,2,0.07958984375,-0.94293212890625,0.25238037109375
1759922666727,1024171383,51515,3,0.078369140625,-0.94415283203125,0.25628662109375
1759922666727,1024171383,51515,4,0.0732421875,-0.94854736328125,0.25286865234375
1759922666727,1024171383,51515,5,0.070068359375,-0.94537353515625,0.25531005859375
1759922666727,1024171383,51515,6,0.076416015625,-0.94049072265625,0.25701904296875
1759922666727,1024171383,51515,7,0.072509765625,-0.94439697265625,0.25506591796875
1759922666727,1024171383,51515,8,0.070068359375,-0.93731689453125,0.26019287109375
1759922666727,1024171383,51515,9,0.069580078125,-0.93780517578125,0.26776123046875
1759922666727,1024171383,51515,10,0.070556640625,-0.94097900390625,0.25946044921875
1759922666727,1024171383,51515,11,0.073974609375,-0.94244384765625,0.26507568359375
1759922666727,1024171383,51515,12,0.072021484375,-0.94024658203125,0.26824951171875
1759922666727,1024171383,51515,13,0.0712890625,-0.94097900390625,0.26824951171875
1759922666727,1024171383,51515,14,0.071044921875,-0.93780517578125,0.27093505859375
1759922666727,1024171383,51515,15,0.068603515625,-0.94342041015625,0.25970458984375
1759922666727,1024171383,51515,16,0.0703125,-0.94073486328125,0.26092529296875
1759922666727,1024171383,51515,17,0.0673828125,-0.94219970703125,0.26605224609375
1759922666727,1024171383,51515,18,0.063232421875,-0.93829345703125,0.26116943359375
1759922666727,1024171383,51515,19,0.064208984375,-0.94635009765625,0.25897216796875
1759922666727,1024171383,51515,20,0.070068359375,-0.93902587890625,0.26141357421875
1759922666727,1024171383,51515,21,0.06689453125,-0.94342041015625,0.26165771484375
1759922666727,1024171383,51515,22,0.056884765625,-0.94683837890625,0.25628662109375
1759922666727,1024171383,51515,23,0.056640625,-0.94537353515625,0.26336669921875
1759922666727,1024171383,51515,24,0.0634765625,-0.94244384765625,0.25823974609375
1759922666727,1024171383,51515,25,0.0654296875,-0.95025634765625,0.26190185546875
1759922666727,1024171383,51515,26,0.06787109375,-0.94171142578125,0.25604248046875
1759922666727,1024171383,51515,27,0.058349609375,-0.94561767578125,0.26629638671875
1759922666727,1024171383,51515,28,0.052978515625,-0.94097900390625,0.25750732421875
1759922666727,1024171383,51515,29,0.05078125,-0.94268798828125,0.25726318359375
1759922666727,1024171383,51515,30,0.05224609375,-0.94952392578125,0.25506591796875
1759922666727,1024171383,51515,31,0.05029296875,-0.94537353515625,0.25921630859375
1759922669237,1024173914,51516,0,0.042724609375,-0.94830322265625,0.25311279296875
1759922669237,1024173914,51516,1,0.040283203125,-0.94781494140625,0.25628662109375
1759922669237,1024173914,51516,2,0.03955078125,-0.94683837890625,0.25823974609375
1759922669237,1024173914,51516,3,0.0361328125,-0.94439697265625,0.26239013671875
1759922669237,1024173914,51516,4,0.04296875,-0.95538330078125,0.26385498046875
1759922669237,1024173914,51516,5,0.04052734375,-0.94293212890625,0.24896240234375
1759922669237,1024173914,51516,6,0.03125,-0.94952392578125,0.25946044921875
1759922669237,1024173914,51516,7,0.033203125,-0.94708251953125,0.26239013671875
1759922669237,1024173914,51516,8,0.0390625,-0.94708251953125,0.26312255859375
1759922669237,1024173914,51516,9,0.033447265625,-0.94732666015625,0.25726318359375
1759922669237,1024173914,51516,10,0.02880859375,-0.94635009765625,0.25799560546875
1759922669237,1024173914,51516,11,0.028076171875,-0.94683837890625,0.25970458984375
1759922669237,1024173914,51516,12,0.030029296875,-0.94537353515625,0.25872802734375
1759922669237,1024173914,51516,13,0.027099609375,-0.94683837890625,0.25946044921875
1759922669237,1024173914,51516,14,0.0205078125,-0.94757080078125,0.26068115234375
1759922669237,1024173914,51516,15,0.02099609375,-0.95196533203125,0.25872802734375
1759922669237,1024173914,51516,16,0.026123046875,-0.94537353515625,0.25653076171875
1759922669237,1024173914,51516,17,0.01513671875,-0.95050048828125,0.25701904296875
1759922669237,1024173914,51516,18,0.01806640625,-0.94927978515625,0.25091552734375
1759922669237,1024173914,51516,19,0.01953125,-0.94879150390625,0.26068115234375
1759922669237,1024173914,51516,20,0.015869140625,-0.94757080078125,0.25775146484375
1759922669237,1024173914,51516,21,0.017822265625,-0.95513916015625,0.25653076171875
1759922669237,1024173914,51516,22,0.023681640625,-0.94805908203125,0.25726318359375
1759922669237,1024173914,51516,23,0.024169921875,-0.95025634765625,0.25335693359375
1759922669237,1024173914,51516,24,0.022705078125,-0.95269775390625,0.25579833984375
1759922669237,1024173914,51516,25,0.029052734375,-0.94781494140625,0.25750732421875
1759922669237,1024173914,51516,26,0.03515625,-0.94586181640625,0.26043701171875
1759922669237,1024173914,51516,27,0.03515625,-0.95367431640625,0.25482177734375
1759922669237,1024173914,51516,28,0.037353515625,-0.94268798828125,0.25970458984375
1759922669237,1024173914,51516,29,0.0400390625,-0.94464111328125,0.26214599609375
1759922669237,1024173914,51516,30,0.0458984375,-0.94927978515625,0.26141357421875
1759922669237,1024173914,51516,31,0.0498046875,-0.94879150390625,0.26556396484375
1759922671766,1024176445,51517,0,0.049560546875,-0.94366455078125,0.27362060546875
1759922671766,1024176445,51517,1,0.0478515625,-0.94366455078125,0.27532958984375
1759922671766,1024176445,51517,2,0.05224609375,-0.93707275390625,0.25531005859375
1759922671766,1024176445,51517,3,0.0546875,-0.92755126953125,0.25067138671875
1759922671766,1024176445,51517,4,0.06103515625,-0.93927001953125,0.28289794921875
1759922671766,1024176445,51517,5,0.033935546875,-0.94683837890625,0.27142333984375
1759922671766,1024176445,51517,6,0.02099609375,-0.95635986328125,0.25921630859375
1759922671766,1024176445,51517,7,0.045166015625,-0.94781494140625,0.26483154296875
1759922671766,1024176445,51517,8,0.042724609375,-0.94122314453125,0.26141357421875
1759922671766,1024176445,51517,9,0.03369140625,-0.95074462890625,0.26165771484375
1759922671766,1024176445,51517,10,0.029052734375,-0.95001220703125,0.25677490234375
1759922671766,1024176445,51517,11,0.0322265625,-0.94659423828125,0.26287841796875
1759922671766,1024176445,51517,12,0.03564453125,-0.94293212890625,0.26458740234375
1759922671766,1024176445,51517,13,0.03662109375,-0.94464111328125,0.26458740234375
1759922671766,1024176445,51517,14,0.030029296875,-0.94415283203125,0.26580810546875
1759922671766,1024176445,51517,15,0.03271484375,-0.94293212890625,0.26507568359375
1759922671766,1024176445,51517,16,0.036865234375,-0.94659423828125,0.26214599609375
1759922671766,1024176445,51517,17,0.036376953125,-0.94537353515625,0.26531982421875
1759922671766,1024176445,51517,18,0.03515625,-0.94366455078125,0.26190185546875
1759922671766,1024176445,51517,19,0.0322265625,-0.94830322265625,0.26336669921875
1759922671766,1024176445,51517,20,0.03515625,-0.94415283203125,0.26190185546875
1759922671766,1024176445,51517,21,0.039306640625,-0.94512939453125,0.26702880859375
1759922671766,1024176445,51517,22,0.039794921875,-0.94537353515625,0.25946044921875
1759922671766,1024176445,51517,23,0.033447265625,-0.94757080078125,0.26507568359375
1759922671766,1024176445,51517,24,0.03466796875,-0.94537353515625,0.26336669921875
1759922671766,1024176445,51517,25,0.03857421875,-0.94390869140625,0.26434326171875
1759922671766,1024176445,51517,26,0.033935546875,-0.94635009765625,0.26239013671875
1759922671766,1024176445,51517,27,0.033203125,-0.94635009765625,0.26507568359375
1759922671766,1024176445,51517,28,0.031005859375,-0.94586181640625,0.26507568359375
1759922671766,1024176445,51517,29,0.03662109375,-0.94732666015625,0.26385498046875
1759922671766,1024176445,51517,30,0.03662109375,-0.94342041015625,0.26922607421875
1759922671766,1024176445,51517,31,0.032958984375,-0.94561767578125,0.26361083984375
1759922674448,1024178976,51518,0,0.037353515625,-0.94488525390625,0.27020263671875
1759922674448,1024178976,51518,1,0.044677734375,-0.94293212890625,0.26312255859375
1759922674448,1024178976,51518,2,0.03759765625,-0.94097900390625,0.27069091796875
1759922674448,1024178976,51518,3,0.03466796875,-0.94537353515625,0.26678466796875
1759922674448,1024178976,51518,4,0.04248046875,-0.94195556640625,0.26287841796875
1759922674448,1024178976,51518,5,0.045166015625,-0.94830322265625,0.26531982421875
1759922674448,1024178976,51518,6,0.044189453125,-0.94415283203125,0.26824951171875
1759922674448,1024178976,51518,7,0.04248046875,-0.94464111328125,0.26458740234375
1759922674448,1024178976,51518,8,0.047119140625,-0.94415283203125,0.26165771484375
1759922674448,1024178976,51518,9,0.045654296875,-0.94464111328125,0.26239013671875
1759922674448,1024178976,51518,10,0.04345703125,-0.94219970703125,0.26434326171875
1759922674448,1024178976,51518,11,0.04638671875,-0.94342041015625,0.26165771484375
1759922674448,1024178976,51518,12,0.050048828125,-0.94439697265625,0.26507568359375
1759922674448,1024178976,51518,13,0.044921875,-0.93975830078125,0.26336669921875
1759922674448,1024178976,51518,14,0.04296875,-0.94708251953125,0.26434326171875
1759922674448,1024178976,51518,15,0.04541015625,-0.94903564453125,0.26361083984375
1759922674448,1024178976,51518,16,0.049560546875,-0.93658447265625,0.26654052734375
1759922674448,1024178976,51518,17,0.047119140625,-0.94635009765625,0.26605224609375
1759922674448,1024178976,51518,18,0.042236328125,-0.94122314453125,0.26434326171875
1759922674448,1024178976,51518,19,0.041259765625,-0.94293212890625,0.26922607421875
1759922674448,1024178976,51518,20,0.050537109375,-0.94366455078125,0.26849365234375
1759922674448,1024178976,51518,21,0.04345703125,-0.94537353515625,0.26605224609375
1759922674448,1024178976,51518,22,0.041748046875,-0.94293212890625,0.26580810546875
1759922674448,1024178976,51518,23,0.04150390625,-0.94268798828125,0.26361083984375
1759922674448,1024178976,51518,24,0.046630859375,-0.94268798828125,0.26678466796875
1759922674448,1024178976,51518,25,0.053466796875,-0.93829345703125,0.26336669921875
1759922674448,1024178976,51518,26,0.044189453125,-0.94879150390625,0.26605224609375
1759922674448,1024178976,51518,27,0.03564453125,-0.94610595703125,0.25750732421875
1759922674448,1024178976,51518,28,0.046142578125,-0.94244384765625,0.26336669921875
1759922674448,1024178976,51518,29,0.048095703125,-0.94732666015625,0.26336669921875
1759922674448,1024178976,51518,30,0.0458984375,-0.94586181640625,0.26190185546875
1759922674448,1024178976,51518,31,0.047119140625,-0.94708251953125,0.26116943359375
1759922676985,1024181507,51519,0,0.043701171875,-0.95074462890625,0.25872802734375
1759922676985,1024181507,51519,1,0.04443359375,-0.94610595703125,0.25335693359375
1759922676985,1024181507,51519,2,0.044189453125,-0.94805908203125,0.25946044921875
1759922676985,1024181507,51519,3,0.04931640625,-0.94879150390625,0.25482177734375
1759922676985,1024181507,51519,4,0.0478515625,-0.94635009765625,0.25579833984375
1759922676985,1024181507,51519,5,0.0458984375,-0.94635009765625,0.25628662109375
1759922676985,1024181507,51519,6,0.050537109375,-0.94683837890625,0.25775146484375
1759922676985,1024181507,51519,7,0.047119140625,-0.95074462890625,0.25653076171875
1759922676985,1024181507,51519,8,0.046875,-0.94317626953125,0.25360107421875
1759922676985,1024181507,51519,9,0.047607421875,-0.94976806640625,0.25506591796875
1759922676985,1024181507,51519,10,0.0458984375,-0.95074462890625,0.25433349609375
1759922676985,1024181507,51519,11,0.05224609375,-0.94342041015625,0.25628662109375
1759922676985,1024181507,51519,12,0.05078125,-0.94879150390625,0.25457763671875
1759922676985,1024181507,51519,13,0.049072265625,-0.94805908203125,0.25091552734375
1759922676985,1024181507,51519,14,0.049072265625,-0.94586181640625,0.25823974609375
1759922676985,1024181507,51519,15,0.0498046875,-0.94879150390625,0.25604248046875
1759922676985,1024181507,51519,16,0.047607421875,-0.94952392578125,0.25555419921875
1759922676985,1024181507,51519,17,0.048095703125,-0.94488525390625,0.25335693359375
1759922676985,1024181507,51519,18,0.04638671875,-0.94561767578125,0.26092529296875
