receivedPhoneTimestamp,respeckTimestamp,packetSeqNum,sampleSeqNum,accelX,accelY,accelZ
1759958694998,1060170048,25493,8,0.138427734375,-1.00250244140625,-0.23785400390625
1759958694998,1060170048,25493,9,0.12646484375,-0.95880126953125,-0.23809814453125
1759958694998,1060170048,25493,10,0.123046875,-1.00616455078125,-0.19952392578125
1759958694998,1060170048,25493,11,0.137451171875,-1.01275634765625,-0.23272705078125
1759958694998,1060170048,25493,12,0.100341796875,-0.98150634765625,-0.23272705078125
1759958694998,1060170048,25493,13,0.185546875,-0.97052001953125,-0.18243408203125
1759958694998,1060170048,25493,14,0.146240234375,-1.02569580078125,-0.17803955078125
1759958694998,1060170048,25493,15,0.129150390625,-0.98590087890625,-0.19805908203125
1759958694998,1060170048,25493,16,0.152587890625,-0.98199462890625,-0.16314697265625
1759958694998,1060170048,25493,17,0.16259765625,-1.02545166015625,-0.13238525390625
1759958694998,1060170048,25493,18,0.1474609375,-0.99249267578125,-0.16339111328125
1759958694998,1060170048,25493,19,0.109130859375,-1.01055908203125,-0.08453369140625
1759958694998,1060170048,25493,20,0.109619140625,-1.00201416015625,-0.03106689453125
1759958694998,1060170048,25493,21,0.212890625,-0.96978759765625,-0.12115478515625
1759958694998,1060170048,25493,22,0.083251953125,-1.02764892578125,-0.15020751953125
1759958694998,1060170048,25493,23,0.105224609375,-1.01885986328125,-0.12725830078125
1759958694998,1060170048,25493,24,0.17822265625,-0.97467041015625,-0.17364501953125
1759958694998,1060170048,25493,25,0.129150390625,-1.01055908203125,-0.17242431640625
1759958694998,1060170048,25493,26,0.14404296875,-1.00933837890625,-0.17999267578125
1759958694998,1060170048,25493,27,0.169677734375,-0.99176025390625,-0.19097900390625
1759958694998,1060170048,25493,28,0.155517578125,-0.97052001953125,-0.21929931640625
1759958694998,1060170048,25493,29,0.128662109375,-0.99468994140625,-0.21905517578125
1759958694998,1060170048,25493,30,0.151611328125,-1.01593017578125,-0.20050048828125
1759958694998,1060170048,25493,31,0.181884765625,-0.95489501953125,-0.22833251953125
1759958697582,1060172616,25494,0,0.1181640625,-0.99322509765625,-0.21905517578125
1759958697582,1060172616,25494,1,0.127685546875,-1.01788330078125,-0.21148681640625
1759958697582,1060172616,25494,2,0.195556640625,-0.96051025390625,-0.24664306640625
1759958697582,1060172616,25494,3,0.140625,-0.97442626953125,-0.23541259765625
1759958697582,1060172616,25494,4,0.1181640625,-1.02398681640625,-0.22808837890625
1759958697582,1060172616,25494,5,0.18896484375,-0.95880126953125,-0.27740478515625
1759958697582,1060172616,25494,6,0.179443359375,-0.94659423828125,-0.26300048828125
1759958697582,1060172616,25494,7,0.11865234375,-1.02545166015625,-0.23931884765625
1759958697582,1060172616,25494,8,0.16015625,-0.97052001953125,-0.28082275390625
1759958697582,1060172616,25494,9,0.178466796875,-0.94219970703125,-0.27447509765625
1759958697582,1060172616,25494,10,0.13232421875,-1.00860595703125,-0.25152587890625
1759958697582,1060172616,25494,11,0.141845703125,-0.98565673828125,-0.28375244140625
1759958697582,1060172616,25494,12,0.15966796875,-0.95001220703125,-0.27813720703125
1759958697582,1060172616,25494,13,0.148681640625,-0.99395751953125,-0.25445556640625
1759958697582,1060172616,25494,14,0.150390625,-0.98541259765625,-0.27471923828125
1759958697582,1060172616,25494,15,0.13623046875,-0.96539306640625,-0.27789306640625
1759958697582,1060172616,25494,16,0.153076171875,-0.97955322265625,-0.25738525390625
1759958697582,1060172616,25494,17,0.159423828125,-0.98077392578125,-0.26373291015625
1759958697582,1060172616,25494,18,0.1396484375,-0.97686767578125,-0.27349853515625
1759958697582,1060172616,25494,19,0.14404296875,-0.97955322265625,-0.25347900390625
1759958697582,1060172616,25494,20,0.161376953125,-0.97662353515625,-0.25933837890625
1759958697582,1060172616,25494,21,0.150634765625,-0.98516845703125,-0.26812744140625
1759958697582,1060172616,25494,22,0.13427734375,-0.98419189453125,-0.26275634765625
1759958697582,1060172616,25494,23,0.176025390625,-0.98565673828125,-0.25958251953125
1759958697582,1060172616,25494,24,0.146484375,-0.96661376953125,-0.24468994140625
1759958697582,1060172616,25494,25,0.138671875,-0.99127197265625,-0.24713134765625
1759958697582,1060172616,25494,26,0.157470703125,-0.99981689453125,-0.24151611328125
1759958697582,1060172616,25494,27,0.16845703125,-0.98028564453125,-0.23199462890625
1759958697582,1060172616,25494,28,0.150390625,-0.96636962890625,-0.14483642578125
1759958697582,1060172616,25494,29,0.158447265625,-1.00054931640625,-0.20098876953125
1759958697582,1060172616,25494,30,0.15283203125,-0.99224853515625,-0.22491455078125
1759958697582,1060172616,25494,31,0.15576171875,-0.99444580078125,-0.23809814453125
1759958700165,1060175183,25495,0,0.123779296875,-0.98223876953125,-0.23687744140625
1759958700165,1060175183,25495,1,0.145751953125,-0.98785400390625,-0.23736572265625
1759958700165,1060175183,25495,2,0.177490234375,-0.98663330078125,-0.24468994140625
1759958700165,1060175183,25495,3,0.156005859375,-0.97711181640625,-0.23663330078125
1759958700165,1060175183,25495,4,0.134765625,-0.99249267578125,-0.24688720703125
1759958700165,1060175183,25495,5,0.155029296875,-0.98321533203125,-0.25787353515625
1759958700165,1060175183,25495,6,0.17529296875,-0.97857666015625,-0.24444580078125
1759958700165,1060175183,25495,7,0.148681640625,-0.97784423828125,-0.25640869140625
1759958700165,1060175183,25495,8,0.1455078125,-0.98883056640625,-0.25103759765625
1759958700165,1060175183,25495,9,0.167236328125,-0.97296142578125,-0.25103759765625
1759958700165,1060175183,25495,10,0.17529296875,-0.97979736328125,-0.24957275390625
1759958700165,1060175183,25495,11,0.15478515625,-0.97125244140625,-0.25616455078125
1759958700165,1060175183,25495,12,0.14208984375,-0.98785400390625,-0.27374267578125
1759958700165,1060175183,25495,13,0.19873046875,-0.96612548828125,-0.27349853515625
1759958700165,1060175183,25495,14,0.16015625,-0.97369384765625,-0.26202392578125
1759958700165,1060175183,25495,15,0.141845703125,-0.97930908203125,-0.27862548828125
1759958700165,1060175183,25495,16,0.177978515625,-0.97149658203125,-0.29522705078125
1759958700165,1060175183,25495,17,0.17578125,-0.97003173828125,-0.26617431640625
1759958700165,1060175183,25495,18,0.154541015625,-0.97125244140625,-0.28057861328125
1759958700165,1060175183,25495,19,0.14892578125,-0.98199462890625,-0.30352783203125
1759958700165,1060175183,25495,20,0.1630859375,-0.96490478515625,-0.28765869140625
1759958700165,1060175183,25495,21,0.18017578125,-0.96466064453125,-0.28839111328125
1759958700165,1060175183,25495,22,0.136962890625,-0.97808837890625,-0.28790283203125
1759958700165,1060175183,25495,23,0.169921875,-0.96759033203125,-0.29547119140625
1759958700165,1060175183,25495,24,0.178466796875,-0.97344970703125,-0.28497314453125
1759958700165,1060175183,25495,25,0.163818359375,-0.96246337890625,-0.27716064453125
1759958700165,1060175183,25495,26,0.15234375,-0.98004150390625,-0.28912353515625
1759958700165,1060175183,25495,27,0.169677734375,-0.97393798828125,-0.28936767578125
1759958700165,1060175183,25495,28,0.186767578125,-0.95928955078125,-0.27423095703125
1759958700165,1060175183,25495,29,0.16162109375,-0.97149658203125,-0.27789306640625
1759958700165,1060175183,25495,30,0.136474609375,-0.98834228515625,-0.28936767578125
1759958700165,1060175183,25495,31,0.203125,-0.95147705078125,-0.29425048828125
1759958702751,1060177750,25496,0,0.187255859375,-0.96807861328125,-0.28424072265625
1759958702751,1060177750,25496,1,0.15283203125,-0.97320556640625,-0.29010009765625
1759958702751,1060177750,25496,2,0.17822265625,-0.97149658203125,-0.28155517578125
1759958702751,1060177750,25496,3,0.18603515625,-0.96368408203125,-0.28009033203125
1759958702751,1060177750,25496,4,0.1689453125,-0.97003173828125,-0.28228759765625
1759958702751,1060177750,25496,5,0.1533203125,-0.98077392578125,-0.28497314453125
1759958702751,1060177750,25496,6,0.172119140625,-0.97003173828125,-0.28521728515625
1759958702751,1060177750,25496,7,0.19189453125,-0.96588134765625,-0.27423095703125
1759958702751,1060177750,25496,8,0.15625,-0.98223876953125,-0.27911376953125
1759958702751,1060177750,25496,9,0.158203125,-0.96807861328125,-0.27569580078125
1759958702751,1060177750,25496,10,0.210205078125,-0.97296142578125,-0.27203369140625
1759958702751,1060177750,25496,11,0.166015625,-0.96905517578125,-0.29302978515625
1759958702751,1060177750,25496,12,0.120849609375,-0.97442626953125,-0.29669189453125
1759958702751,1060177750,25496,13,0.18310546875,-0.96099853515625,-0.27618408203125
1759958702751,1060177750,25496,14,0.1748046875,-0.99786376953125,-0.27545166015625
1759958702751,1060177750,25496,15,0.141845703125,-0.96246337890625,-0.25982666015625
1759958702751,1060177750,25496,16,0.188232421875,-0.97393798828125,-0.24176025390625
1759958702751,1060177750,25496,17,0.143310546875,-0.99200439453125,-0.25152587890625
1759958702751,1060177750,25496,18,0.10400390625,-1.00079345703125,-0.26129150390625
1759958702751,1060177750,25496,19,0.080810546875,-0.97613525390625,-0.24737548828125
1759958702751,1060177750,25496,20,0.140380859375,-0.99468994140625,-0.21954345703125
1759958702751,1060177750,25496,21,0.137939453125,-0.99957275390625,-0.23199462890625
1759958702751,1060177750,25496,22,0.046630859375,-0.98101806640625,-0.21148681640625
1759958702751,1060177750,25496,23,-0.056884765625,-1.01324462890625,-0.18243408203125
1759958702751,1060177750,25496,24,0.031005859375,-1.00689697265625,-0.18096923828125
1759958702751,1060177750,25496,25,0.102783203125,-1.01422119140625,-0.16094970703125
1759958702751,1060177750,25496,26,0.03662109375,-1.00225830078125,-0.17022705078125
1759958702751,1060177750,25496,27,0.068359375,-1.01715087890625,-0.17413330078125
1759958702751,1060177750,25496,28,0.086181640625,-1.00323486328125,-0.18707275390625
1759958702751,1060177750,25496,29,0.04736328125,-1.00274658203125,-0.19659423828125
1759958702751,1060177750,25496,30,0.037841796875,-1.01739501953125,-0.19097900390625
1759958702751,1060177750,25496,31,0.08349609375,-1.00006103515625,-0.19244384765625
1759958705333,1060180317,25497,0,0.10205078125,-0.99493408203125,-0.19024658203125
1759958705333,1060180317,25497,1,0.04345703125,-1.01153564453125,-0.19342041015625
1759958705333,1060180317,25497,2,0.052490234375,-1.00494384765625,-0.20220947265625
1759958705333,1060180317,25497,3,0.09423828125,-1.00006103515625,-0.19537353515625
1759958705333,1060180317,25497,4,0.06201171875,-0.99761962890625,-0.19366455078125
1759958705333,1060180317,25497,5,0.069091796875,-1.01837158203125,-0.19366455078125
1759958705333,1060180317,25497,6,0.081787109375,-1.00006103515625,-0.20147705078125
1759958705333,1060180317,25497,7,0.092041015625,-0.99591064453125,-0.18487548828125
1759958705333,1060180317,25497,8,0.041259765625,-1.00958251953125,-0.19146728515625
1759958705333,1060180317,25497,9,0.06005859375,-1.00640869140625,-0.20050048828125
1759958705333,1060180317,25497,10,0.086669921875,-0.99761962890625,-0.19805908203125
1759958705333,1060180317,25497,11,0.062255859375,-1.00323486328125,-0.19219970703125
1759958705333,1060180317,25497,12,0.046630859375,-1.00445556640625,-0.19342041015625
1759958705333,1060180317,25497,13,0.086181640625,-1.00689697265625,-0.19610595703125
1759958705333,1060180317,25497,14,0.086669921875,-1.00225830078125,-0.19219970703125
1759958705333,1060180317,25497,15,0.0595703125,-1.00323486328125,-0.18511962890625
1759958705333,1060180317,25497,16,0.0771484375,-0.99981689453125,-0.19195556640625
1759958705333,1060180317,25497,17,0.082763671875,-1.01007080078125,-0.18048095703125
1759958705333,1060180317,25497,18,0.0634765625,-1.00787353515625,-0.17852783203125
1759958705333,1060180317,25497,19,0.060302734375,-0.99981689453125,-0.18609619140625
1759958705333,1060180317,25497,20,0.07421875,-1.00787353515625,-0.17169189453125
1759958705333,1060180317,25497,21,0.087646484375,-1.01226806640625,-0.17022705078125
1759958705333,1060180317,25497,22,0.0380859375,-1.00616455078125,-0.16998291015625
1759958705333,1060180317,25497,23,0.090087890625,-1.00152587890625,-0.13482666015625
1759958705333,1060180317,25497,24,0.093017578125,-0.99542236328125,-0.15972900390625
1759958705333,1060180317,25497,25,0.051025390625,-1.02398681640625,-0.18218994140625
1759958705333,1060180317,25497,26,0.026611328125,-1.00592041015625,-0.20001220703125
1759958705333,1060180317,25497,27,0.061767578125,-1.00396728515625,-0.20147705078125
1759958705333,1060180317,25497,28,0.072509765625,-0.99981689453125,-0.19805908203125
1759958705333,1060180317,25497,29,0.06494140625,-1.00518798828125,-0.21832275390625
1759958705333,1060180317,25497,30,0.052978515625,-1.01031494140625,-0.22540283203125
1759958705333,1060180317,25497,31,0.085693359375,-1.00006103515625,-0.22589111328125
1759958707919,1060182884,25498,0,0.085693359375,-0.99493408203125,-0.21710205078125
1759958707919,1060182884,25498,1,0.087646484375,-0.99298095703125,-0.21392822265625
1759958707919,1060182884,25498,2,0.083740234375,-1.00469970703125,-0.21417236328125
1759958707919,1060182884,25498,3,0.075927734375,-0.99249267578125,-0.21221923828125
1759958707919,1060182884,25498,4,0.085205078125,-1.00030517578125,-0.21270751953125
1759958707919,1060182884,25498,5,0.082275390625,-0.99639892578125,-0.22003173828125
1759958707919,1060182884,25498,6,0.072265625,-0.99615478515625,-0.22589111328125
1759958707919,1060182884,25498,7,0.07373046875,-0.99810791015625,-0.23736572265625
1759958707919,1060182884,25498,8,0.075927734375,-0.99249267578125,-0.23614501953125
1759958707919,1060182884,25498,9,0.093505859375,-1.00543212890625,-0.24053955078125
1759958707919,1060182884,25498,10,0.08154296875,-0.98175048828125,-0.25543212890625
1759958707919,1060182884,25498,11,0.1005859375,-0.98614501953125,-0.26788330078125
1759958707919,1060182884,25498,12,0.124267578125,-0.97979736328125,-0.27667236328125
1759958707919,1060182884,25498,13,0.103271484375,-0.98370361328125,-0.28765869140625
1759958707919,1060182884,25498,14,0.1083984375,-0.97222900390625,-0.28375244140625
1759958707919,1060182884,25498,15,0.12451171875,-0.99566650390625,-0.28521728515625
1759958707919,1060182884,25498,16,0.12939453125,-0.96221923828125,-0.28790283203125
1759958707919,1060182884,25498,17,0.15283203125,-0.98419189453125,-0.29083251953125
1759958707919,1060182884,25498,18,0.14892578125,-0.97515869140625,-0.28936767578125
1759958707919,1060182884,25498,19,0.141845703125,-0.98419189453125,-0.27960205078125
1759958707919,1060182884,25498,20,0.127197265625,-0.96905517578125,-0.18048095703125
1759958707919,1060182884,25498,21,0.17724609375,-0.98980712890625,-0.22418212890625
1759958707919,1060182884,25498,22,0.1748046875,-0.97808837890625,-0.25689697265625
1759958707919,1060182884,25498,23,0.135986328125,-0.99029541015625,-0.27545166015625
1759958707919,1060182884,25498,24,0.130859375,-0.97003173828125,-0.26617431640625
1759958707919,1060182884,25498,25,0.166748046875,-0.98345947265625,-0.26593017578125
1759958707919,1060182884,25498,26,0.165771484375,-0.97662353515625,-0.26666259765625
1759958707919,1060182884,25498,27,0.1455078125,-0.98858642578125,-0.25445556640625
1759958707919,1060182884,25498,28,0.144287109375,-0.98394775390625,-0.26397705078125
1759958707919,1060182884,25498,29,0.149169921875,-0.99249267578125,-0.25128173828125
1759958707919,1060182884,25498,30,0.1572265625,-1.02374267578125,-0.22808837890625
1759958707919,1060182884,25498,31,0.113525390625,-0.98101806640625,-0.18438720703125
1759958710501,1060185451,25499,0,0.11181640625,-0.97930908203125,-0.14459228515625
1759958710501,1060185451,25499,1,0.101318359375,-1.03643798828125,-0.10943603515625
1759958710501,1060185451,25499,2,0.06787109375,-1.00640869140625,-0.08087158203125
1759958710501,1060185451,25499,3,0.0556640625,-1.03204345703125,-0.04498291015625
1759958710501,1060185451,25499,4,0.01904296875,-1.04547119140625,0.02288818359375
1759958710501,1060185451,25499,5,-0.044189453125,-0.97760009765625,0.06707763671875
1759958710501,1060185451,25499,6,-0.125244140625,-0.95465087890625,0.09735107421875
1759958710501,1060185451,25499,7,-0.12255859375,-1.03570556640625,0.12908935546875
1759958710501,1060185451,25499,8,-0.138916015625,-1.03570556640625,0.11907958984375
1759958710501,1060185451,25499,9,-0.176025390625,-0.98468017578125,0.09930419921875
1759958710501,1060185451,25499,10,-0.197021484375,-0.99005126953125,0.09368896484375
1759958710501,1060185451,25499,11,-0.167236328125,-0.99859619140625,0.08416748046875
1759958710501,1060185451,25499,12,-0.132568359375,-0.98883056640625,0.11663818359375
1759958710501,1060185451,25499,13,-0.152099609375,-1.01129150390625,0.13519287109375
1759958710501,1060185451,25499,14,-0.081298828125,-1.01007080078125,0.07684326171875
1759958710501,1060185451,25499,15,-0.033935546875,-0.97442626953125,0.02386474609375
1759958710501,1060185451,25499,16,-0.065185546875,-1.07550048828125,-0.01934814453125
1759958710501,1060185451,25499,17,-0.076904296875,-1.05718994140625,-0.04571533203125
1759958710501,1060185451,25499,18,0.00390625,-0.95831298828125,0.00848388671875
1759958710501,1060185451,25499,19,0.16845703125,-1.04693603515625,-0.00469970703125
1759958710501,1060185451,25499,20,0.163818359375,-0.97613525390625,-0.03424072265625
1759958710501,1060185451,25499,21,0.1044921875,-1.04473876953125,-0.06988525390625
1759958710501,1060185451,25499,22,0.07666015625,-1.06256103515625,-0.09210205078125
1759958710501,1060185451,25499,23,0.068603515625,-0.92706298828125,0.07196044921875
1759958710501,1060185451,25499,24,0.115478515625,-1.02471923828125,0.03216552734375
1759958710501,1060185451,25499,25,0.088623046875,-1.05523681640625,-0.09674072265625
1759958710501,1060185451,25499,26,0.103515625,-0.97296142578125,-0.09014892578125
1759958710501,1060185451,25499,27,0.13623046875,-1.00982666015625,-0.12286376953125
1759958710501,1060185451,25499,28,0.126953125,-1.05401611328125,-0.13336181640625
1759958710501,1060185451,25499,29,0.156982421875,-0.94805908203125,-0.13677978515625
1759958710501,1060185451,25499,30,0.1630859375,-0.98101806640625,-0.15753173828125
1759958710501,1060185451,25499,31,0.1103515625,-1.07452392578125,-0.16973876953125
1759958713084,1060188018,25500,0,0.1279296875,-0.96417236328125,-0.15435791015625
1759958713084,1060188018,25500,1,0.187255859375,-0.96051025390625,-0.17608642578125
1759958713084,1060188018,25500,2,0.173583984375,-1.03106689453125,-0.21173095703125
1759958713084,1060188018,25500,3,0.132080078125,-1.00860595703125,-0.18121337890625
1759958713084,1060188018,25500,4,0.14501953125,-0.95831298828125,-0.15899658203125
1759958713084,1060188018,25500,5,0.184326171875,-1.00128173828125,-0.19952392578125
1759958713084,1060188018,25500,6,0.171875,-1.00543212890625,-0.22882080078125
1759958713084,1060188018,25500,7,0.116455078125,-0.97808837890625,-0.17926025390625
1759958713084,1060188018,25500,8,0.1552734375,-0.98516845703125,-0.18658447265625
1759958713084,1060188018,25500,9,0.20703125,-0.99517822265625,-0.25494384765625
1759958713084,1060188018,25500,10,0.14306640625,-0.99444580078125,-0.21734619140625
1759958713084,1060188018,25500,11,0.114990234375,-0.98883056640625,-0.16925048828125
1759958713084,1060188018,25500,12,0.2119140625,-0.97930908203125,-0.23468017578125
1759958713084,1060188018,25500,13,0.16845703125,-0.98516845703125,-0.23883056640625
1759958713084,1060188018,25500,14,0.136962890625,-0.99566650390625,-0.18414306640625
1759958713084,1060188018,25500,15,0.1748046875,-0.98858642578125,-0.21514892578125
1759958713084,1060188018,25500,16,0.189697265625,-0.97418212890625,-0.27081298828125
1759958713084,1060188018,25500,17,0.160888671875,-0.97637939453125,-0.22442626953125
1759958713084,1060188018,25500,18,0.14697265625,-0.99932861328125,-0.18853759765625
1759958713084,1060188018,25500,19,0.229248046875,-0.97589111328125,-0.26129150390625
1759958713084,1060188018,25500,20,0.208984375,-0.96246337890625,-0.26251220703125
1759958713084,1060188018,25500,21,0.161376953125,-0.97589111328125,-0.19195556640625
1759958713084,1060188018,25500,22,0.209716796875,-0.98736572265625,-0.24322509765625
1759958713084,1060188018,25500,23,0.23486328125,-0.95660400390625,-0.29718017578125
1759958713084,1060188018,25500,24,0.171630859375,-0.96759033203125,-0.24127197265625
1759958713084,1060188018,25500,25,0.187744140625,-1.00250244140625,-0.23199462890625
1759958713084,1060188018,25500,26,0.240478515625,-0.96734619140625,-0.29010009765625
1759958713084,1060188018,25500,27,0.22900390625,-0.92510986328125,-0.27056884765625
1759958713084,1060188018,25500,28,0.19580078125,-0.98980712890625,-0.24005126953125
1759958713084,1060188018,25500,29,0.183837890625,-0.99566650390625,-0.25958251953125
1759958713084,1060188018,25500,30,0.218505859375,-0.95391845703125,-0.26495361328125
1759958713084,1060188018,25500,31,0.221923828125,-0.93731689453125,-0.25885009765625
1759958715668,1060190585,25501,0,0.2021484375,-0.98956298828125,-0.27447509765625
1759958715668,1060190585,25501,1,0.18896484375,-0.97589111328125,-0.28594970703125
1759958715668,1060190585,25501,2,0.21533203125,-0.93438720703125,-0.27520751953125
1759958715668,1060190585,25501,3,0.21435546875,-0.97467041015625,-0.28179931640625
1759958715668,1060190585,25501,4,0.193603515625,-0.98052978515625,-0.30230712890625
1759958715668,1060190585,25501,5,0.177734375,-0.94854736328125,-0.27349853515625
1759958715668,1060190585,25501,6,0.181884765625,-0.97271728515625,-0.26885986328125
1759958715668,1060190585,25501,7,0.197265625,-0.98150634765625,-0.28521728515625
1759958715668,1060190585,25501,8,0.1748046875,-0.96588134765625,-0.29425048828125
1759958715668,1060190585,25501,9,0.17822265625,-0.95928955078125,-0.26007080078125
1759958715668,1060190585,25501,10,0.184326171875,-0.98297119140625,-0.27545166015625
1759958715668,1060190585,25501,11,0.169189453125,-0.98321533203125,-0.27984619140625
1759958715668,1060190585,25501,12,0.170654296875,-0.95977783203125,-0.25543212890625
1759958715668,1060190585,25501,13,0.18212890625,-0.97491455078125,-0.25006103515625
1759958715668,1060190585,25501,14,0.1806640625,-0.99322509765625,-0.27178955078125
1759958715668,1060190585,25501,15,0.176513671875,-0.96514892578125,-0.26519775390625
1759958715668,1060190585,25501,16,0.19189453125,-0.95709228515625,-0.24224853515625
1759958715668,1060190585,25501,17,0.1806640625,-0.99102783203125,-0.26690673828125
1759958715668,1060190585,25501,18,0.16455078125,-0.98345947265625,-0.26348876953125
1759958715668,1060190585,25501,19,0.18115234375,-0.95758056640625,-0.24151611328125
1759958715668,1060190585,25501,20,0.187744140625,-0.98272705078125,-0.26397705078125
1759958715668,1060190585,25501,21,0.17138671875,-0.97833251953125,-0.27911376953125
1759958715668,1060190585,25501,22,0.16015625,-0.97100830078125,-0.25787353515625
1759958715668,1060190585,25501,23,0.193359375,-0.96221923828125,-0.25811767578125
1759958715668,1060190585,25501,24,0.181640625,-0.99078369140625,-0.27716064453125
1759958715668,1060190585,25501,25,0.151611328125,-0.97076416015625,-0.28619384765625
1759958715668,1060190585,25501,26,0.179443359375,-0.96099853515625,-0.26300048828125
1759958715668,1060190585,25501,27,0.19482421875,-0.97320556640625,-0.28009033203125
1759958715668,1060190585,25501,28,0.18017578125,-0.97491455078125,-0.30157470703125
1759958715668,1060190585,25501,29,0.17431640625,-0.96099853515625,-0.29400634765625
1759958715668,1060190585,25501,30,0.19580078125,-0.95562744140625,-0.28350830078125
1759958715668,1060190585,25501,31,0.1748046875,-0.97686767578125,-0.29180908203125
1759958718252,1060193152,25502,0,0.186279296875,-0.96612548828125,-0.31011962890625
1759958718252,1060193152,25502,1,0.172119140625,-0.94781494140625,-0.28277587890625
1759958718252,1060193152,25502,2,0.18994140625,-0.96588134765625,-0.28863525390625
1759958718252,1060193152,25502,3,0.186767578125,-0.97589111328125,-0.31231689453125
1759958718252,1060193152,25502,4,0.16796875,-0.96270751953125,-0.30499267578125
1759958718252,1060193152,25502,5,0.192626953125,-0.94342041015625,-0.28521728515625
1759958718252,1060193152,25502,6,0.1953125,-0.97174072265625,-0.31060791015625
1759958718252,1060193152,25502,7,0.166015625,-0.97784423828125,-0.31011962890625
1759958718252,1060193152,25502,8,0.173828125,-0.95098876953125,-0.29156494140625
1759958718252,1060193152,25502,9,0.202392578125,-0.95855712890625,-0.29327392578125
1759958718252,1060193152,25502,10,0.185546875,-0.97393798828125,-0.31671142578125
1759958718252,1060193152,25502,11,0.162841796875,-0.96954345703125,-0.31182861328125
1759958718252,1060193152,25502,12,0.1943359375,-0.95440673828125,-0.28326416015625
1759958718252,1060193152,25502,13,0.188720703125,-0.96710205078125,-0.29547119140625
1759958718252,1060193152,25502,14,0.178466796875,-0.96002197265625,-0.30230712890625
1759958718252,1060193152,25502,15,0.194091796875,-0.96490478515625,-0.29791259765625
1759958718252,1060193152,25502,16,0.19580078125,-0.95684814453125,-0.26934814453125
1759958718252,1060193152,25502,17,0.185791015625,-0.97808837890625,-0.30010986328125
1759958718252,1060193152,25502,18,0.185791015625,-0.96734619140625,-0.29473876953125
1759958718252,1060193152,25502,19,0.180419921875,-0.94903564453125,-0.26324462890625
1759958718252,1060193152,25502,20,0.1826171875,-0.98638916015625,-0.28179931640625
1759958718252,1060193152,25502,21,0.1728515625,-0.97320556640625,-0.28546142578125
1759958718252,1060193152,25502,22,0.168701171875,-0.96612548828125,-0.27593994140625
1759958718252,1060193152,25502,23,0.188232421875,-0.96099853515625,-0.27301025390625
1759958718252,1060193152,25502,24,0.181640625,-0.97882080078125,-0.28546142578125
1759958718252,1060193152,25502,25,0.155517578125,-0.97540283203125,-0.28521728515625
1759958718252,1060193152,25502,26,0.185302734375,-0.96221923828125,-0.26348876953125
1759958718252,1060193152,25502,27,0.183349609375,-0.97247314453125,-0.28887939453125
1759958718252,1060193152,25502,28,0.169677734375,-0.97515869140625,-0.28765869140625
1759958718252,1060193152,25502,29,0.178466796875,-0.96832275390625,-0.28912353515625
1759958718252,1060193152,25502,30,0.1728515625,-0.97540283203125,-0.28839111328125
1759958718252,1060193152,25502,31,0.17431640625,-0.96978759765625,-0.26495361328125
1759958720837,1060195720,25503,0,0.163330078125,-0.98223876953125,-0.26153564453125
1759958720837,1060195720,25503,1,0.205810546875,-0.95953369140625,-0.25787353515625
1759958720837,1060195720,25503,2,0.190185546875,-0.98101806640625,-0.24615478515625
1759958720837,1060195720,25503,3,0.130126953125,-0.99444580078125,-0.24981689453125
1759958720837,1060195720,25503,4,0.102294921875,-0.98419189453125,-0.24053955078125
1759958720837,1060195720,25503,5,0.115234375,-0.99786376953125,-0.23272705078125
1759958720837,1060195720,25503,6,0.121826171875,-0.98638916015625,-0.22857666015625
1759958720837,1060195720,25503,7,0.1689453125,-0.97784423828125,-0.21929931640625
1759958720837,1060195720,25503,8,0.114501953125,-0.99664306640625,-0.23956298828125
1759958720837,1060195720,25503,9,0.11181640625,-0.99737548828125,-0.22467041015625
1759958720837,1060195720,25503,10,0.118408203125,-0.99102783203125,-0.22784423828125
1759958720837,1060195720,25503,11,0.128173828125,-0.99127197265625,-0.23614501953125
1759958720837,1060195720,25503,12,0.12255859375,-0.99444580078125,-0.23248291015625
1759958720837,1060195720,25503,13,0.121337890625,-0.98614501953125,-0.22662353515625
1759958720837,1060195720,25503,14,0.13134765625,-0.99249267578125,-0.23101806640625
1759958720837,1060195720,25503,15,0.114013671875,-0.99346923828125,-0.22760009765625
1759958720837,1060195720,25503,16,0.117919921875,-0.99273681640625,-0.22833251953125
1759958720837,1060195720,25503,17,0.117431640625,-0.98980712890625,-0.22808837890625
1759958720837,1060195720,25503,18,0.120849609375,-0.99273681640625,-0.22686767578125
1759958720837,1060195720,25503,19,0.131591796875,-0.98858642578125,-0.24127197265625
1759958720837,1060195720,25503,20,0.116455078125,-0.98663330078125,-0.23321533203125
1759958720837,1060195720,25503,21,0.125244140625,-0.99615478515625,-0.23297119140625
1759958720837,1060195720,25503,22,0.12939453125,-0.98687744140625,-0.23321533203125
1759958720837,1060195720,25503,23,0.11865234375,-0.98419189453125,-0.23785400390625
1759958720837,1060195720,25503,24,0.122802734375,-0.98736572265625,-0.25128173828125
1759958720837,1060195720,25503,25,0.109619140625,-0.99444580078125,-0.25518798828125
1759958720837,1060195720,25503,26,0.116943359375,-0.97540283203125,-0.25811767578125
1759958720837,1060195720,25503,27,0.1201171875,-0.97906494140625,-0.27618408203125
1759958720837,1060195720,25503,28,0.137939453125,-0.98492431640625,-0.27374267578125
1759958720837,1060195720,25503,29,0.142822265625,-0.97882080078125,-0.28179931640625
1759958720837,1060195720,25503,30,0.135986328125,-0.97564697265625,-0.28887939453125
1759958720837,1060195720,25503,31,0.14111328125,-0.97515869140625,-0.28619384765625
1759958723419,1060198287,25504,0,0.146484375,-0.97662353515625,-0.29913330078125
1759958723419,1060198287,25504,1,0.142578125,-0.97027587890625,-0.29547119140625
1759958723419,1060198287,25504,2,0.159912109375,-0.96759033203125,-0.30255126953125
1759958723419,1060198287,25504,3,0.156982421875,-0.96783447265625,-0.30596923828125
1759958723419,1060198287,25504,4,0.146728515625,-0.97149658203125,-0.30694580078125
1759958723419,1060198287,25504,5,0.17822265625,-0.95733642578125,-0.30401611328125
1759958723419,1060198287,25504,6,0.187744140625,-0.96661376953125,-0.30377197265625
1759958723419,1060198287,25504,7,0.162353515625,-0.95758056640625,-0.31280517578125
1759958723419,1060198287,25504,8,0.18701171875,-0.96392822265625,-0.31353759765625
1759958723419,1060198287,25504,9,0.1884765625,-0.95904541015625,-0.30206298828125
1759958723419,1060198287,25504,10,0.200439453125,-0.96636962890625,-0.31207275390625
1759958723419,1060198287,25504,11,0.191162109375,-0.95489501953125,-0.30206298828125
1759958723419,1060198287,25504,12,0.1943359375,-0.96612548828125,-0.29937744140625
1759958723419,1060198287,25504,13,0.205322265625,-0.96807861328125,-0.28277587890625
1759958723419,1060198287,25504,14,0.21044921875,-0.97662353515625,-0.28668212890625
1759958723419,1060198287,25504,15,0.168701171875,-0.95343017578125,-0.22637939453125
1759958723419,1060198287,25504,16,0.205322265625,-0.97613525390625,-0.21905517578125
1759958723419,1060198287,25504,17,0.21484375,-0.96954345703125,-0.24444580078125
1759958723419,1060198287,25504,18,0.205810546875,-0.98199462890625,-0.26641845703125
1759958723419,1060198287,25504,19,0.17822265625,-0.96392822265625,-0.26007080078125
1759958723419,1060198287,25504,20,0.1953125,-0.97369384765625,-0.26007080078125
1759958723419,1060198287,25504,21,0.193359375,-0.97491455078125,-0.26007080078125
1759958723419,1060198287,25504,22,0.20458984375,-0.97100830078125,-0.28326416015625
1759958723419,1060198287,25504,23,0.169677734375,-0.97271728515625,-0.27691650390625
1759958723419,1060198287,25504,24,0.18896484375,-0.96807861328125,-0.27203369140625
1759958723419,1060198287,25504,25,0.191162109375,-0.97052001953125,-0.28106689453125
1759958723419,1060198287,25504,26,0.199951171875,-0.96441650390625,-0.27642822265625
1759958723419,1060198287,25504,27,0.189208984375,-0.97027587890625,-0.27618408203125
1759958723419,1060198287,25504,28,0.18798828125,-0.96929931640625,-0.27325439453125
1759958723419,1060198287,25504,29,0.18896484375,-0.97174072265625,-0.27032470703125
1759958723419,1060198287,25504,30,0.181884765625,-0.96759033203125,-0.28985595703125
1759958723419,1060198287,25504,31,0.19091796875,-0.96490478515625,-0.27789306640625
1759958726002,1060200854,25505,0,0.181884765625,-0.96514892578125,-0.27886962890625
1759958726002,1060200854,25505,1,0.1943359375,-0.97369384765625,-0.28326416015625
1759958726002,1060200854,25505,2,0.197509765625,-0.95782470703125,-0.28765869140625
1759958726002,1060200854,25505,3,0.19140625,-0.96636962890625,-0.28204345703125
1759958726002,1060200854,25505,4,0.1953125,-0.96856689453125,-0.28497314453125
1759958726002,1060200854,25505,5,0.1904296875,-0.96221923828125,-0.27789306640625
1759958726002,1060200854,25505,6,0.19775390625,-0.96661376953125,-0.27935791015625
1759958726002,1060200854,25505,7,0.1982421875,-0.96710205078125,-0.27960205078125
1759958726002,1060200854,25505,8,0.197998046875,-0.96807861328125,-0.27911376953125
1759958726002,1060200854,25505,9,0.197021484375,-0.96319580078125,-0.28717041015625
1759958726002,1060200854,25505,10,0.187744140625,-0.96685791015625,-0.27789306640625
1759958726002,1060200854,25505,11,0.194091796875,-0.96807861328125,-0.28472900390625
1759958726002,1060200854,25505,12,0.1982421875,-0.97003173828125,-0.28350830078125
1759958726002,1060200854,25505,13,0.201171875,-0.96685791015625,-0.27496337890625
1759958726002,1060200854,25505,14,0.186767578125,-0.97515869140625,-0.25543212890625
1759958726002,1060200854,25505,15,0.18994140625,-0.96759033203125,-0.24835205078125
1759958726002,1060200854,25505,16,0.200439453125,-0.98199462890625,-0.25030517578125
1759958726002,1060200854,25505,17,0.18505859375,-0.96929931640625,-0.24810791015625
1759958726002,1060200854,25505,18,0.18408203125,-0.97564697265625,-0.25128173828125
1759958726002,1060200854,25505,19,0.190185546875,-0.97564697265625,-0.24639892578125
1759958726002,1060200854,25505,20,0.189208984375,-0.96978759765625,-0.24566650390625
1759958726002,1060200854,25505,21,0.193359375,-0.97735595703125,-0.25250244140625
1759958726002,1060200854,25505,22,0.181640625,-0.97491455078125,-0.23590087890625
1759958726002,1060200854,25505,23,0.1806640625,-0.98394775390625,-0.25347900390625
