receivedPhoneTimestamp,respeckTimestamp,packetSeqNum,sampleSeqNum,accelX,accelY,accelZ
1760001289133,1125001583,12251,31,0.06005859375,-0.99395751953125,0.02996826171875
1760001291661,1125004102,12252,0,0.061279296875,-0.96270751953125,0.05145263671875
1760001291661,1125004102,12252,1,0.063232421875,-1.00714111328125,0.03558349609375
1760001291661,1125004102,12252,2,0.064453125,-0.98028564453125,0.05120849609375
1760001291661,1125004102,12252,3,0.080078125,-0.99688720703125,0.04412841796875
1760001291661,1125004102,12252,4,0.0595703125,-1.00421142578125,0.03411865234375
1760001291661,1125004102,12252,5,0.085205078125,-0.97979736328125,0.03802490234375
1760001291661,1125004102,12252,6,0.10986328125,-0.98638916015625,-0.00372314453125
1760001291661,1125004102,12252,7,0.09033203125,-0.98590087890625,0.02874755859375
1760001291661,1125004102,12252,8,0.06982421875,-1.00811767578125,0.03485107421875
1760001291661,1125004102,12252,9,0.08349609375,-0.98809814453125,0.02166748046875
1760001291661,1125004102,12252,10,0.072998046875,-0.98760986328125,0.04095458984375
1760001291661,1125004102,12252,11,0.072265625,-0.98614501953125,0.04290771484375
1760001291661,1125004102,12252,12,0.04931640625,-0.99493408203125,0.06219482421875
1760001291661,1125004102,12252,13,0.0556640625,-0.97760009765625,0.04998779296875
1760001291661,1125004102,12252,14,0.06005859375,-0.98883056640625,0.06121826171875
1760001291661,1125004102,12252,15,0.05810546875,-0.99737548828125,0.06781005859375
1760001291661,1125004102,12252,16,0.060302734375,-0.97857666015625,0.06146240234375
1760001291661,1125004102,12252,17,0.0712890625,-0.99224853515625,0.06756591796875
1760001291661,1125004102,12252,18,0.062255859375,-0.99029541015625,0.05853271484375
1760001291661,1125004102,12252,19,0.07275390625,-0.98980712890625,0.05267333984375
1760001291661,1125004102,12252,20,0.06494140625,-0.98736572265625,0.06414794921875
1760001291661,1125004102,12252,21,0.0654296875,-0.98468017578125,0.05511474609375
1760001291661,1125004102,12252,22,0.059814453125,-0.99127197265625,0.06024169921875
1760001291661,1125004102,12252,23,0.06591796875,-0.98614501953125,0.05975341796875
1760001291661,1125004102,12252,24,0.06640625,-0.98883056640625,0.05682373046875
1760001291661,1125004102,12252,25,0.067138671875,-0.99468994140625,0.05755615234375
1760001291661,1125004102,12252,26,0.075439453125,-0.98663330078125,0.06048583984375
1760001291661,1125004102,12252,27,0.067626953125,-0.98956298828125,0.06951904296875
1760001291661,1125004102,12252,28,0.068603515625,-0.98638916015625,0.06732177734375
1760001291661,1125004102,12252,29,0.06591796875,-0.98712158203125,0.06976318359375
1760001291661,1125004102,12252,30,0.06298828125,-0.99029541015625,0.06976318359375
1760001291661,1125004102,12252,31,0.06787109375,-0.99273681640625,0.06243896484375
1760001294178,1125006621,12253,0,0.06103515625,-0.98492431640625,0.06414794921875
1760001294178,1125006621,12253,1,0.055419921875,-0.98931884765625,0.06146240234375
1760001294178,1125006621,12253,2,0.05859375,-0.98907470703125,0.06268310546875
1760001294178,1125006621,12253,3,0.06298828125,-0.98809814453125,0.05706787109375
1760001294178,1125006621,12253,4,0.0625,-0.98492431640625,0.06268310546875
1760001294178,1125006621,12253,5,0.059326171875,-0.99176025390625,0.06488037109375
1760001294178,1125006621,12253,6,0.05810546875,-0.98956298828125,0.06170654296875
1760001294178,1125006621,12253,7,0.062255859375,-0.98956298828125,0.06610107421875
1760001294178,1125006621,12253,8,0.0556640625,-0.99200439453125,0.07269287109375
1760001294178,1125006621,12253,9,0.057861328125,-0.98321533203125,0.07342529296875
1760001294178,1125006621,12253,10,0.07666015625,-0.98223876953125,0.08392333984375
1760001294178,1125006621,12253,11,0.050048828125,-0.99566650390625,0.10125732421875
1760001294178,1125006621,12253,12,0.054931640625,-0.98199462890625,0.10052490234375
1760001294178,1125006621,12253,13,0.063720703125,-0.98663330078125,0.11029052734375
1760001294178,1125006621,12253,14,0.0634765625,-0.97393798828125,0.11199951171875
1760001294178,1125006621,12253,15,0.016357421875,-0.98345947265625,0.11297607421875
1760001294178,1125006621,12253,16,0.017822265625,-0.99908447265625,0.08538818359375
1760001294178,1125006621,12253,17,0.05859375,-0.99371337890625,0.04779052734375
1760001294178,1125006621,12253,18,0.052978515625,-0.98760986328125,0.04827880859375
1760001294178,1125006621,12253,19,0.068359375,-0.97760009765625,0.04193115234375
1760001294178,1125006621,12253,20,0.06982421875,-0.99835205078125,0.06512451171875
1760001294178,1125006621,12253,21,0.073486328125,-0.98541259765625,0.05169677734375
1760001294178,1125006621,12253,22,0.0634765625,-0.98004150390625,0.06805419921875
1760001294178,1125006621,12253,23,0.04296875,-0.99298095703125,0.08953857421875
1760001294178,1125006621,12253,24,0.052734375,-0.98492431640625,0.08001708984375
1760001294178,1125006621,12253,25,0.0673828125,-0.98785400390625,0.07342529296875
1760001294178,1125006621,12253,26,0.060791015625,-0.98638916015625,0.08831787109375
1760001294178,1125006621,12253,27,0.056884765625,-0.98248291015625,0.08074951171875
1760001294178,1125006621,12253,28,0.053466796875,-0.99224853515625,0.08074951171875
1760001294178,1125006621,12253,29,0.06103515625,-0.98223876953125,0.07415771484375
1760001294178,1125006621,12253,30,0.04833984375,-0.99395751953125,0.08489990234375
1760001294178,1125006621,12253,31,0.063232421875,-0.98736572265625,0.07904052734375
1760001296691,1125009140,12254,0,0.06494140625,-0.98443603515625,0.07147216796875
1760001296691,1125009140,12254,1,0.047119140625,-0.98663330078125,0.08026123046875
1760001296691,1125009140,12254,2,0.05029296875,-0.99176025390625,0.08587646484375
1760001296691,1125009140,12254,3,0.054931640625,-0.98638916015625,0.06634521484375
1760001296691,1125009140,12254,4,0.0517578125,-0.99664306640625,0.06414794921875
1760001296691,1125009140,12254,5,0.055908203125,-0.98419189453125,0.06414794921875
1760001296691,1125009140,12254,6,0.048095703125,-0.99493408203125,0.07635498046875
1760001296691,1125009140,12254,7,0.058349609375,-0.99151611328125,0.06829833984375
1760001296691,1125009140,12254,8,0.05029296875,-0.98297119140625,0.08343505859375
1760001296691,1125009140,12254,9,0.04150390625,-0.98858642578125,0.08197021484375
1760001296691,1125009140,12254,10,0.053955078125,-0.98785400390625,0.08514404296875
1760001296691,1125009140,12254,11,0.048828125,-0.98297119140625,0.09051513671875
1760001296691,1125009140,12254,12,0.0400390625,-0.99737548828125,0.10028076171875
1760001296691,1125009140,12254,13,0.0556640625,-0.97979736328125,0.09710693359375
1760001296691,1125009140,12254,14,0.052001953125,-0.98394775390625,0.09735107421875
1760001296691,1125009140,12254,15,0.043701171875,-0.99273681640625,0.11053466796875
1760001296691,1125009140,12254,16,0.04150390625,-0.98101806640625,0.10760498046875
1760001296691,1125009140,12254,17,0.041748046875,-0.98150634765625,0.10736083984375
1760001296691,1125009140,12254,18,0.04248046875,-0.99542236328125,0.11029052734375
1760001296691,1125009140,12254,19,0.04052734375,-0.98443603515625,0.10858154296875
1760001296691,1125009140,12254,20,0.0380859375,-0.97491455078125,0.11029052734375
1760001296691,1125009140,12254,21,0.044921875,-0.98248291015625,0.11932373046875
1760001296691,1125009140,12254,22,0.043701171875,-0.98883056640625,0.09686279296875
1760001296691,1125009140,12254,23,0.052490234375,-0.98541259765625,0.07855224609375
1760001296691,1125009140,12254,24,0.0498046875,-0.98297119140625,0.05828857421875
1760001296691,1125009140,12254,25,0.055419921875,-1.00250244140625,0.06195068359375
1760001296691,1125009140,12254,26,0.064697265625,-0.97247314453125,0.06829833984375
1760001296691,1125009140,12254,27,0.057373046875,-0.99371337890625,0.07708740234375
1760001296691,1125009140,12254,28,0.051513671875,-0.98858642578125,0.08172607421875
1760001296691,1125009140,12254,29,0.054931640625,-0.98272705078125,0.07244873046875
1760001296691,1125009140,12254,30,0.052001953125,-0.98663330078125,0.07806396484375
1760001296691,1125009140,12254,31,0.052490234375,-0.98394775390625,0.08001708984375
1760001299215,1125011659,12255,0,0.05126953125,-0.98931884765625,0.08221435546875
1760001299215,1125011659,12255,1,0.05419921875,-0.98907470703125,0.07464599609375
1760001299215,1125011659,12255,2,0.05615234375,-0.98760986328125,0.07781982421875
1760001299215,1125011659,12255,3,0.04931640625,-0.98590087890625,0.08099365234375
1760001299215,1125011659,12255,4,0.044677734375,-0.98834228515625,0.07928466796875
1760001299215,1125011659,12255,5,0.0419921875,-0.99053955078125,0.07000732421875
1760001299215,1125011659,12255,6,0.04052734375,-0.99029541015625,0.07000732421875
1760001299215,1125011659,12255,7,0.05712890625,-0.99249267578125,0.07098388671875
1760001299215,1125011659,12255,8,0.062255859375,-0.98199462890625,0.07000732421875
1760001299215,1125011659,12255,9,0.045654296875,-0.99273681640625,0.09027099609375
1760001299215,1125011659,12255,10,0.042724609375,-0.98175048828125,0.08392333984375
1760001299215,1125011659,12255,11,0.0537109375,-0.98321533203125,0.08001708984375
1760001299215,1125011659,12255,12,0.062255859375,-0.98419189453125,0.08026123046875
1760001299215,1125011659,12255,13,0.04833984375,-0.99713134765625,0.08929443359375
1760001299215,1125011659,12255,14,0.05126953125,-0.98468017578125,0.07757568359375
1760001299215,1125011659,12255,15,0.051513671875,-0.98614501953125,0.08587646484375
1760001299215,1125011659,12255,16,0.0546875,-0.98785400390625,0.09173583984375
1760001299215,1125011659,12255,17,0.042724609375,-0.98883056640625,0.09149169921875
1760001299215,1125011659,12255,18,0.054931640625,-0.98468017578125,0.09539794921875
1760001299215,1125011659,12255,19,0.056884765625,-0.98394775390625,0.08856201171875
1760001299215,1125011659,12255,20,0.043701171875,-0.98980712890625,0.09295654296875
1760001299215,1125011659,12255,21,0.044677734375,-0.98345947265625,0.08587646484375
1760001299215,1125011659,12255,22,0.045654296875,-0.98419189453125,0.07611083984375
1760001299215,1125011659,12255,23,0.066162109375,-0.99224853515625,0.04876708984375
1760001299215,1125011659,12255,24,0.06396484375,-0.99151611328125,0.04119873046875
1760001299215,1125011659,12255,25,0.061767578125,-0.97393798828125,0.05218505859375
1760001299215,1125011659,12255,26,0.05078125,-1.00323486328125,0.07122802734375
1760001299215,1125011659,12255,27,0.073974609375,-0.99053955078125,0.05413818359375
1760001299215,1125011659,12255,28,0.0712890625,-0.97882080078125,0.04632568359375
1760001299215,1125011659,12255,29,0.05908203125,-0.99102783203125,0.06536865234375
1760001299215,1125011659,12255,30,0.0419921875,-0.99200439453125,0.06927490234375
1760001299215,1125011659,12255,31,0.0537109375,-0.98931884765625,0.05364990234375
1760001301739,1125014178,12256,0,0.07373046875,-0.98663330078125,0.04315185546875
1760001301739,1125014178,12256,1,0.062744140625,-0.99273681640625,0.05926513671875
1760001301739,1125014178,12256,2,0.05517578125,-0.99029541015625,0.04437255859375
1760001301739,1125014178,12256,3,0.05419921875,-0.99078369140625,0.04510498046875
1760001301739,1125014178,12256,4,0.055908203125,-0.99444580078125,0.04632568359375
1760001301739,1125014178,12256,5,0.054443359375,-0.99127197265625,0.05804443359375
1760001301739,1125014178,12256,6,0.062744140625,-0.98687744140625,0.05853271484375
1760001301739,1125014178,12256,7,0.06298828125,-0.98516845703125,0.07000732421875
1760001301739,1125014178,12256,8,0.053955078125,-0.98687744140625,0.06903076171875
1760001301739,1125014178,12256,9,0.05419921875,-0.98712158203125,0.07342529296875
1760001301739,1125014178,12256,10,0.058837890625,-0.98394775390625,0.07904052734375
1760001301739,1125014178,12256,11,0.0576171875,-0.98663330078125,0.08172607421875
1760001301739,1125014178,12256,12,0.04443359375,-0.99639892578125,0.08660888671875
1760001301739,1125014178,12256,13,0.0634765625,-0.98687744140625,0.06903076171875
1760001301739,1125014178,12256,14,0.063232421875,-0.98150634765625,0.08514404296875
1760001301739,1125014178,12256,15,0.050537109375,-0.99639892578125,0.10491943359375
1760001301739,1125014178,12256,16,0.0615234375,-0.98370361328125,0.09686279296875
1760001301739,1125014178,12256,17,0.056396484375,-0.98248291015625,0.09710693359375
1760001301739,1125014178,12256,18,0.053466796875,-0.99102783203125,0.10247802734375
1760001301739,1125014178,12256,19,0.052490234375,-0.98883056640625,0.09100341796875
1760001301739,1125014178,12256,20,0.046142578125,-0.98785400390625,0.06292724609375
1760001301739,1125014178,12256,21,0.05810546875,-0.98760986328125,0.04803466796875
1760001301739,1125014178,12256,22,0.052490234375,-0.98785400390625,0.04510498046875
1760001301739,1125014178,12256,23,0.05517578125,-0.99176025390625,0.05023193359375
1760001301739,1125014178,12256,24,0.0751953125,-0.99493408203125,0.05242919921875
1760001301739,1125014178,12256,25,0.077880859375,-0.98687744140625,0.04510498046875
1760001301739,1125014178,12256,26,0.065673828125,-0.99224853515625,0.05511474609375
1760001301739,1125014178,12256,27,0.06005859375,-0.99053955078125,0.06219482421875
1760001301739,1125014178,12256,28,0.0546875,-0.98956298828125,0.06024169921875
1760001301739,1125014178,12256,29,0.058837890625,-0.99102783203125,0.06585693359375
1760001301739,1125014178,12256,30,0.05322265625,-0.98565673828125,0.07220458984375
1760001301739,1125014178,12256,31,0.051513671875,-0.98516845703125,0.08123779296875
1760001304262,1125016697,12257,0,0.0478515625,-0.98980712890625,0.08392333984375
1760001304262,1125016697,12257,1,0.05224609375,-0.98468017578125,0.08563232421875
1760001304262,1125016697,12257,2,0.0498046875,-0.98565673828125,0.09124755859375
1760001304262,1125016697,12257,3,0.04443359375,-0.98883056640625,0.09906005859375
1760001304262,1125016697,12257,4,0.048095703125,-0.98297119140625,0.09417724609375
1760001304262,1125016697,12257,5,0.052490234375,-0.98809814453125,0.09197998046875
1760001304262,1125016697,12257,6,0.045166015625,-0.98394775390625,0.10028076171875
1760001304262,1125016697,12257,7,0.04638671875,-0.99078369140625,0.09881591796875
1760001304262,1125016697,12257,8,0.0537109375,-0.98834228515625,0.09222412109375
1760001304262,1125016697,12257,9,0.048828125,-0.99273681640625,0.09100341796875
1760001304262,1125016697,12257,10,0.03564453125,-0.98394775390625,0.09857177734375
1760001304262,1125016697,12257,11,0.038818359375,-0.98223876953125,0.10369873046875
1760001304262,1125016697,12257,12,0.04296875,-0.98297119140625,0.10858154296875
1760001304262,1125016697,12257,13,0.045654296875,-0.98345947265625,0.10101318359375
1760001304262,1125016697,12257,14,0.04248046875,-0.98492431640625,0.09661865234375
1760001304262,1125016697,12257,15,0.04296875,-0.98931884765625,0.08538818359375
1760001304262,1125016697,12257,16,0.035400390625,-0.98858642578125,0.08392333984375
1760001304262,1125016697,12257,17,0.0537109375,-0.99029541015625,0.08270263671875
1760001304262,1125016697,12257,18,0.049560546875,-0.99298095703125,0.07781982421875
1760001304262,1125016697,12257,19,0.0458984375,-0.98638916015625,0.07977294921875
1760001304262,1125016697,12257,20,0.0478515625,-0.98785400390625,0.08489990234375
1760001304262,1125016697,12257,21,0.032470703125,-0.99053955078125,0.09564208984375
1760001304262,1125016697,12257,22,0.041748046875,-0.98419189453125,0.08880615234375
1760001304262,1125016697,12257,23,0.040283203125,-0.98809814453125,0.09246826171875
1760001304262,1125016697,12257,24,0.033203125,-0.98663330078125,0.10028076171875
1760001304262,1125016697,12257,25,0.03125,-0.99371337890625,0.10540771484375
1760001304262,1125016697,12257,26,0.047119140625,-0.97930908203125,0.09832763671875
1760001304262,1125016697,12257,27,0.044921875,-0.99053955078125,0.07733154296875
1760001304262,1125016697,12257,28,0.06201171875,-0.99176025390625,0.06268310546875
1760001304262,1125016697,12257,29,0.056640625,-0.98834228515625,0.05389404296875
1760001304262,1125016697,12257,30,0.06103515625,-0.98931884765625,0.03948974609375
1760001304262,1125016697,12257,31,0.064208984375,-0.99542236328125,0.04656982421875
1760001306776,1125019216,12258,0,0.071533203125,-0.98492431640625,0.03778076171875
1760001306776,1125019216,12258,1,0.0732421875,-0.99664306640625,0.03533935546875
1760001306776,1125019216,12258,2,0.060546875,-0.98858642578125,0.03582763671875
1760001306776,1125019216,12258,3,0.05029296875,-0.99493408203125,0.04608154296875
1760001306776,1125019216,12258,4,0.048583984375,-0.98809814453125,0.05731201171875
1760001306776,1125019216,12258,5,0.05419921875,-0.99078369140625,0.05682373046875
1760001306776,1125019216,12258,6,0.055908203125,-0.99346923828125,0.05682373046875
1760001306776,1125019216,12258,7,0.05078125,-0.98638916015625,0.06097412109375
1760001306776,1125019216,12258,8,0.0546875,-0.98980712890625,0.06243896484375
1760001306776,1125019216,12258,9,0.04296875,-0.99273681640625,0.06732177734375
1760001306776,1125019216,12258,10,0.0595703125,-0.98663330078125,0.06805419921875
1760001306776,1125019216,12258,11,0.057861328125,-0.98663330078125,0.06585693359375
1760001306776,1125019216,12258,12,0.052490234375,-0.99053955078125,0.06781005859375
1760001306776,1125019216,12258,13,0.038818359375,-0.99200439453125,0.07489013671875
1760001306776,1125019216,12258,14,0.04736328125,-0.99322509765625,0.07318115234375
1760001306776,1125019216,12258,15,0.048828125,-0.98321533203125,0.07977294921875
1760001306776,1125019216,12258,16,0.046875,-0.98907470703125,0.08758544921875
1760001306776,1125019216,12258,17,0.04931640625,-0.98565673828125,0.09344482421875
1760001306776,1125019216,12258,18,0.0439453125,-0.99005126953125,0.08074951171875
1760001306776,1125019216,12258,19,0.04833984375,-0.98956298828125,0.08245849609375
1760001306776,1125019216,12258,20,0.035400390625,-0.98956298828125,0.08197021484375
1760001306776,1125019216,12258,21,0.05029296875,-0.98492431640625,0.08026123046875
1760001306776,1125019216,12258,22,0.044921875,-0.98834228515625,0.08441162109375
1760001306776,1125019216,12258,23,0.051513671875,-0.98590087890625,0.07855224609375
1760001306776,1125019216,12258,24,0.043701171875,-0.99591064453125,0.08245849609375
1760001306776,1125019216,12258,25,0.06884765625,-0.98785400390625,0.07440185546875
1760001306776,1125019216,12258,26,0.0693359375,-0.98541259765625,0.07342529296875
1760001306776,1125019216,12258,27,0.0546875,-0.99176025390625,0.07220458984375
1760001306776,1125019216,12258,28,0.046630859375,-0.98028564453125,0.08050537109375
1760001306776,1125019216,12258,29,0.045654296875,-0.99322509765625,0.07879638671875
1760001306776,1125019216,12258,30,0.063720703125,-0.98687744140625,0.06317138671875
1760001306776,1125019216,12258,31,0.051513671875,-0.98956298828125,0.06365966796875
1760001309298,1125021735,12259,0,0.068359375,-0.99517822265625,0.05877685546875
1760001309298,1125021735,12259,1,0.0576171875,-0.99493408203125,0.05999755859375
1760001309298,1125021735,12259,2,0.05419921875,-0.98712158203125,0.08392333984375
1760001309298,1125021735,12259,3,0.05322265625,-0.97296142578125,0.09954833984375
1760001309298,1125021735,12259,4,0.037109375,-0.98834228515625,0.11273193359375
1760001309298,1125021735,12259,5,0.06201171875,-0.98199462890625,0.07513427734375
1760001309298,1125021735,12259,6,0.060791015625,-0.99688720703125,0.06146240234375
1760001309298,1125021735,12259,7,0.065673828125,-0.98248291015625,0.04315185546875
1760001309298,1125021735,12259,8,0.07666015625,-0.99127197265625,0.03387451171875
1760001309298,1125021735,12259,9,0.06201171875,-0.99322509765625,0.05511474609375
1760001309298,1125021735,12259,10,0.071533203125,-0.98809814453125,0.04461669921875
1760001309298,1125021735,12259,11,0.06201171875,-0.99346923828125,0.04730224609375
1760001309298,1125021735,12259,12,0.06884765625,-0.99078369140625,0.05535888671875
1760001309298,1125021735,12259,13,0.057373046875,-0.98883056640625,0.06024169921875
1760001309298,1125021735,12259,14,0.059326171875,-0.99346923828125,0.05877685546875
1760001309298,1125021735,12259,15,0.05517578125,-0.98614501953125,0.06024169921875
1760001309298,1125021735,12259,16,0.05712890625,-0.98980712890625,0.05657958984375
1760001309298,1125021735,12259,17,0.0546875,-0.99078369140625,0.05780029296875
1760001309298,1125021735,12259,18,0.04931640625,-0.99395751953125,0.05780029296875
1760001309298,1125021735,12259,19,0.06103515625,-0.98858642578125,0.05609130859375
1760001309298,1125021735,12259,20,0.056396484375,-0.98956298828125,0.05340576171875
1760001309298,1125021735,12259,21,0.052978515625,-0.98834228515625,0.05926513671875
1760001309298,1125021735,12259,22,0.05322265625,-0.99053955078125,0.06512451171875
1760001309298,1125021735,12259,23,0.05712890625,-0.98590087890625,0.07049560546875
1760001309298,1125021735,12259,24,0.044189453125,-0.99200439453125,0.09808349609375
1760001309298,1125021735,12259,25,0.051025390625,-0.97589111328125,0.08685302734375
1760001309298,1125021735,12259,26,0.05029296875,-0.98785400390625,0.10589599609375
1760001309298,1125021735,12259,27,0.041015625,-0.98736572265625,0.11077880859375
1760001309298,1125021735,12259,28,0.037353515625,-0.98126220703125,0.10565185546875
1760001309298,1125021735,12259,29,0.04150390625,-0.98248291015625,0.11199951171875
1760001309298,1125021735,12259,30,0.043701171875,-0.98931884765625,0.10247802734375
1760001309298,1125021735,12259,31,0.04833984375,-0.98248291015625,0.09442138671875
1760001311813,1125024254,12260,0,0.03662109375,-0.98638916015625,0.10321044921875
1760001311813,1125024254,12260,1,0.0341796875,-0.99005126953125,0.11102294921875
1760001311813,1125024254,12260,2,0.043212890625,-0.97808837890625,0.10516357421875
1760001311813,1125024254,12260,3,0.047607421875,-0.98126220703125,0.09832763671875
1760001311813,1125024254,12260,4,0.04248046875,-0.98834228515625,0.10125732421875
1760001311813,1125024254,12260,5,0.04052734375,-0.98712158203125,0.09344482421875
1760001311813,1125024254,12260,6,0.054443359375,-0.98419189453125,0.08660888671875
1760001311813,1125024254,12260,7,0.05126953125,-0.98980712890625,0.09149169921875
1760001311813,1125024254,12260,8,0.03076171875,-0.99420166015625,0.10052490234375
1760001311813,1125024254,12260,9,0.033447265625,-0.98663330078125,0.10150146484375
1760001311813,1125024254,12260,10,0.05078125,-0.97174072265625,0.10736083984375
1760001311813,1125024254,12260,11,0.01953125,-0.98468017578125,0.13397216796875
1760001311813,1125024254,12260,12,0.008056640625,-0.99346923828125,0.12591552734375
1760001311813,1125024254,12260,13,0.010009765625,-0.97955322265625,0.11956787109375
1760001311813,1125024254,12260,14,0.01513671875,-0.98492431640625,0.12542724609375
1760001311813,1125024254,12260,15,0.013671875,-0.98516845703125,0.12152099609375
1760001311813,1125024254,12260,16,0.015869140625,-0.99615478515625,0.10491943359375
1760001311813,1125024254,12260,17,0.0302734375,-0.99053955078125,0.08099365234375
1760001311813,1125024254,12260,18,0.041015625,-0.98321533203125,0.08856201171875
1760001311813,1125024254,12260,19,0.045654296875,-0.98272705078125,0.05731201171875
1760001311813,1125024254,12260,20,0.043701171875,-0.99493408203125,0.06585693359375
1760001311813,1125024254,12260,21,0.039306640625,-0.99005126953125,0.04583740234375
1760001311813,1125024254,12260,22,0.031005859375,-0.98931884765625,0.05511474609375
1760001311813,1125024254,12260,23,0.0537109375,-0.99566650390625,0.04364013671875
1760001311813,1125024254,12260,24,0.057373046875,-0.99127197265625,0.05755615234375
1760001311813,1125024254,12260,25,0.05126953125,-0.99078369140625,0.05755615234375
1760001311813,1125024254,12260,26,0.04541015625,-0.99322509765625,0.05389404296875
1760001311813,1125024254,12260,27,0.044677734375,-0.98712158203125,0.06610107421875
1760001311813,1125024254,12260,28,0.045166015625,-0.98516845703125,0.07366943359375
1760001311813,1125024254,12260,29,0.0478515625,-0.99029541015625,0.07513427734375
1760001311813,1125024254,12260,30,0.05126953125,-0.98638916015625,0.08465576171875
1760001311813,1125024254,12260,31,0.045654296875,-0.99322509765625,0.08514404296875
1760001314337,1125026773,12261,0,0.0419921875,-0.98468017578125,0.08367919921875
1760001314337,1125026773,12261,1,0.033447265625,-0.98443603515625,0.08685302734375
1760001314337,1125026773,12261,2,0.0322265625,-0.98785400390625,0.10394287109375
1760001314337,1125026773,12261,3,0.048828125,-0.98468017578125,0.09051513671875
1760001314337,1125026773,12261,4,0.05126953125,-0.98736572265625,0.09466552734375
1760001314337,1125026773,12261,5,0.03955078125,-0.98980712890625,0.09417724609375
1760001314337,1125026773,12261,6,0.03955078125,-0.99273681640625,0.09197998046875
1760001314337,1125026773,12261,7,0.039794921875,-0.98101806640625,0.10516357421875
1760001314337,1125026773,12261,8,0.040283203125,-0.98492431640625,0.10614013671875
1760001314337,1125026773,12261,9,0.031005859375,-0.99053955078125,0.10003662109375
1760001314337,1125026773,12261,10,0.027587890625,-0.98712158203125,0.10638427734375
1760001314337,1125026773,12261,11,0.028076171875,-0.98004150390625,0.11004638671875
1760001314337,1125026773,12261,12,0.02392578125,-0.98443603515625,0.11883544921875
1760001314337,1125026773,12261,13,0.02587890625,-0.99005126953125,0.10858154296875
1760001314337,1125026773,12261,14,0.03271484375,-0.98687744140625,0.09344482421875
1760001314337,1125026773,12261,15,0.04052734375,-0.98956298828125,0.06317138671875
1760001314337,1125026773,12261,16,0.04736328125,-0.98614501953125,0.05072021484375
1760001314337,1125026773,12261,17,0.030029296875,-0.99102783203125,0.07318115234375
1760001314337,1125026773,12261,18,0.03271484375,-0.99493408203125,0.06683349609375
1760001314337,1125026773,12261,19,0.028564453125,-0.99176025390625,0.06365966796875
1760001314337,1125026773,12261,20,0.033203125,-0.99078369140625,0.06829833984375
1760001314337,1125026773,12261,21,0.0498046875,-0.98834228515625,0.06414794921875
1760001314337,1125026773,12261,22,0.03466796875,-0.99029541015625,0.07196044921875
1760001314337,1125026773,12261,23,0.0400390625,-0.98809814453125,0.08026123046875
1760001314337,1125026773,12261,24,0.04443359375,-0.98272705078125,0.07733154296875
1760001314337,1125026773,12261,25,0.045654296875,-0.99298095703125,0.09124755859375
1760001314337,1125026773,12261,26,0.029296875,-1.00201416015625,0.08294677734375
1760001314337,1125026773,12261,27,0.0458984375,-0.98272705078125,0.05731201171875
1760001314337,1125026773,12261,28,0.054443359375,-0.98297119140625,0.06292724609375
1760001314337,1125026773,12261,29,0.03662109375,-0.99102783203125,0.10345458984375
1760001314337,1125026773,12261,30,0.04541015625,-0.99542236328125,0.09808349609375
1760001314337,1125026773,12261,31,0.058349609375,-0.98175048828125,0.08392333984375
1760001316858,1125029292,12262,0,0.046630859375,-0.98492431640625,0.08294677734375
1760001316858,1125029292,12262,1,0.03564453125,-0.98687744140625,0.09442138671875
1760001316858,1125029292,12262,2,0.036865234375,-0.98980712890625,0.09686279296875
1760001316858,1125029292,12262,3,0.0400390625,-0.98736572265625,0.09320068359375
1760001316858,1125029292,12262,4,0.0615234375,-0.98077392578125,0.08685302734375
1760001316858,1125029292,12262,5,0.036376953125,-0.98956298828125,0.08880615234375
1760001316858,1125029292,12262,6,0.058837890625,-0.98834228515625,0.08709716796875
1760001316858,1125029292,12262,7,0.02880859375,-1.00079345703125,0.05145263671875
1760001316858,1125029292,12262,8,0.031005859375,-0.98516845703125,0.04119873046875
1760001316858,1125029292,12262,9,0.033203125,-0.99176025390625,0.06658935546875
1760001316858,1125029292,12262,10,0.054931640625,-0.98468017578125,0.07952880859375
1760001316858,1125029292,12262,11,0.0439453125,-0.98980712890625,0.07293701171875
1760001316858,1125029292,12262,12,0.037841796875,-0.98785400390625,0.08172607421875
1760001316858,1125029292,12262,13,0.026611328125,-0.99420166015625,0.06781005859375
1760001316858,1125029292,12262,14,0.01171875,-0.98809814453125,0.05999755859375
1760001316858,1125029292,12262,15,0.012939453125,-0.99224853515625,0.07025146484375
1760001316858,1125029292,12262,16,0.00830078125,-0.98980712890625,0.09588623046875
1760001316858,1125029292,12262,17,0.04736328125,-0.99151611328125,0.08270263671875
1760001316858,1125029292,12262,18,0.049072265625,-0.99102783203125,0.07879638671875
1760001316858,1125029292,12262,19,0.06103515625,-0.99200439453125,0.04461669921875
1760001316858,1125029292,12262,20,0.04443359375,-0.98638916015625,0.01483154296875
1760001316858,1125029292,12262,21,0.041015625,-0.99664306640625,0.00189208984375
1760001316858,1125029292,12262,22,0.029052734375,-1.00128173828125,0.01116943359375
1760001316858,1125029292,12262,23,0.057861328125,-0.99078369140625,0.01678466796875
1760001316858,1125029292,12262,24,0.05078125,-0.99102783203125,0.02752685546875
1760001316858,1125029292,12262,25,0.040771484375,-1.00299072265625,0.03851318359375
1760001316858,1125029292,12262,26,0.045166015625,-0.99102783203125,0.04998779296875
1760001316858,1125029292,12262,27,0.05224609375,-0.98907470703125,0.04339599609375
1760001316858,1125029292,12262,28,0.046875,-0.99029541015625,0.05609130859375
1760001316858,1125029292,12262,29,0.046875,-0.98980712890625,0.05609130859375
1760001316858,1125029292,12262,30,0.043701171875,-0.98760986328125,0.05706787109375
1760001316858,1125029292,12262,31,0.04541015625,-0.99371337890625,0.06927490234375
1760001319379,1125031811,12263,0,0.04638671875,-0.98907470703125,0.06341552734375
1760001319379,1125031811,12263,1,0.037841796875,-0.99029541015625,0.06781005859375
1760001319379,1125031811,12263,2,0.050537109375,-0.98956298828125,0.07562255859375
1760001319379,1125031811,12263,3,0.056640625,-0.99029541015625,0.05950927734375
1760001319379,1125031811,12263,4,0.045166015625,-0.98931884765625,0.06390380859375
1760001319379,1125031811,12263,5,0.044921875,-0.99053955078125,0.06658935546875
1760001319379,1125031811,12263,6,0.04052734375,-0.98980712890625,0.06732177734375
1760001319379,1125031811,12263,7,0.053955078125,-0.98809814453125,0.05926513671875
1760001319379,1125031811,12263,8,0.048583984375,-0.98736572265625,0.06878662109375
1760001319379,1125031811,12263,9,0.0439453125,-0.99322509765625,0.06756591796875
1760001319379,1125031811,12263,10,0.05810546875,-0.98858642578125,0.06390380859375
1760001319379,1125031811,12263,11,0.05517578125,-0.98638916015625,0.06195068359375
1760001319379,1125031811,12263,12,0.045654296875,-0.98712158203125,0.07171630859375
1760001319379,1125031811,12263,13,0.03955078125,-0.99053955078125,0.08001708984375
1760001319379,1125031811,12263,14,0.049560546875,-0.98638916015625,0.06439208984375
1760001319379,1125031811,12263,15,0.048583984375,-0.99200439453125,0.06292724609375
1760001319379,1125031811,12263,16,0.035888671875,-0.98541259765625,0.07098388671875
1760001319379,1125031811,12263,17,0.040771484375,-0.98931884765625,0.06707763671875
1760001319379,1125031811,12263,18,0.03955078125,-0.99224853515625,0.04290771484375
1760001319379,1125031811,12263,19,0.064208984375,-0.98272705078125,0.06756591796875
1760001319379,1125031811,12263,20,0.04931640625,-0.99517822265625,0.07489013671875
1760001319379,1125031811,12263,21,0.049560546875,-0.98907470703125,0.07220458984375
