receivedPhoneTimestamp,respeckTimestamp,packetSeqNum,sampleSeqNum,accelX,accelY,accelZ
1760038475266,96242129,3598,0,0.09814453125,-0.17364501953125,-1.00152587890625
1760038475266,96242129,3598,1,0.097412109375,-0.17120361328125,-1.00054931640625
1760038475266,96242129,3598,2,0.09521484375,-0.17266845703125,-0.99810791015625
1760038475266,96242129,3598,3,0.093017578125,-0.16412353515625,-1.00323486328125
1760038475266,96242129,3598,4,0.094970703125,-0.16119384765625,-1.00738525390625
1760038475266,96242129,3598,5,0.090576171875,-0.16265869140625,-1.00079345703125
1760038475266,96242129,3598,6,0.091796875,-0.16143798828125,-1.00494384765625
1760038475266,96242129,3598,7,0.0927734375,-0.15631103515625,-1.00738525390625
1760038475266,96242129,3598,8,0.089111328125,-0.15679931640625,-1.00567626953125
1760038475266,96242129,3598,9,0.0859375,-0.15826416015625,-0.99932861328125
1760038475266,96242129,3598,10,0.087158203125,-0.15484619140625,-1.00787353515625
1760038475266,96242129,3598,11,0.087158203125,-0.15484619140625,-1.00494384765625
1760038475266,96242129,3598,12,0.083740234375,-0.15460205078125,-1.00079345703125
1760038475266,96242129,3598,13,0.0810546875,-0.15313720703125,-1.00714111328125
1760038475266,96242129,3598,14,0.083251953125,-0.15069580078125,-1.00738525390625
1760038475266,96242129,3598,15,0.08251953125,-0.14996337890625,-1.00616455078125
1760038475266,96242129,3598,16,0.08154296875,-0.15045166015625,-1.00714111328125
1760038475266,96242129,3598,17,0.082275390625,-0.14923095703125,-1.00689697265625
1760038475266,96242129,3598,18,0.083251953125,-0.14581298828125,-1.00616455078125
1760038475266,96242129,3598,19,0.081787109375,-0.14825439453125,-1.00738525390625
1760038475266,96242129,3598,20,0.083251953125,-0.14801025390625,-1.00347900390625
1760038475266,96242129,3598,21,0.086669921875,-0.14923095703125,-1.00665283203125
1760038475266,96242129,3598,22,0.08642578125,-0.15020751953125,-1.00714111328125
1760038475266,96242129,3598,23,0.0849609375,-0.14898681640625,-1.00201416015625
1760038475266,96242129,3598,24,0.083984375,-0.14532470703125,-1.00299072265625
1760038475266,96242129,3598,25,0.08642578125,-0.14776611328125,-1.00909423828125
1760038475266,96242129,3598,26,0.088623046875,-0.14678955078125,-1.00592041015625
1760038475266,96242129,3598,27,0.0888671875,-0.14654541015625,-1.00225830078125
1760038475266,96242129,3598,28,0.090576171875,-0.14776611328125,-1.00299072265625
1760038475266,96242129,3598,29,0.09033203125,-0.14703369140625,-1.00250244140625
1760038475266,96242129,3598,30,0.09326171875,-0.14898681640625,-1.00933837890625
1760038475266,96242129,3598,31,0.09130859375,-0.15240478515625,-1.00933837890625
1760038478108,96244702,3599,0,0.09375,-0.14703369140625,-1.00128173828125
1760038478108,96244702,3599,1,0.09375,-0.14605712890625,-1.00177001953125
1760038478108,96244702,3599,2,0.0947265625,-0.14654541015625,-1.00592041015625
1760038478108,96244702,3599,3,0.09619140625,-0.15069580078125,-1.00250244140625
1760038478108,96244702,3599,4,0.0927734375,-0.14849853515625,-1.00250244140625
1760038478108,96244702,3599,5,0.094970703125,-0.14849853515625,-1.00714111328125
1760038478108,96244702,3599,6,0.09521484375,-0.14923095703125,-1.00494384765625
1760038478108,96244702,3599,7,0.0927734375,-0.14898681640625,-1.00103759765625
1760038478108,96244702,3599,8,0.09521484375,-0.14556884765625,-1.00225830078125
1760038478108,96244702,3599,9,0.0927734375,-0.14971923828125,-1.00714111328125
1760038478108,96244702,3599,10,0.092529296875,-0.14898681640625,-1.00323486328125
1760038478108,96244702,3599,11,0.085205078125,-0.14630126953125,-1.00445556640625
1760038478108,96244702,3599,12,0.08544921875,-0.14825439453125,-1.00225830078125
1760038478108,96244702,3599,13,0.08544921875,-0.14141845703125,-0.99884033203125
1760038478108,96244702,3599,14,0.091064453125,-0.13824462890625,-1.01129150390625
1760038478108,96244702,3599,15,0.100830078125,-0.14459228515625,-1.03106689453125
1760038478108,96244702,3599,16,0.098388671875,-0.14508056640625,-1.00762939453125
1760038478108,96244702,3599,17,0.095458984375,-0.14971923828125,-1.01495361328125
1760038478108,96244702,3599,18,0.091796875,-0.14874267578125,-0.98150634765625
1760038478108,96244702,3599,19,0.109130859375,-0.14849853515625,-1.01983642578125
1760038478108,96244702,3599,20,0.10205078125,-0.15557861328125,-0.99298095703125
1760038478108,96244702,3599,21,0.0966796875,-0.16265869140625,-0.98760986328125
1760038478108,96244702,3599,22,0.10302734375,-0.15362548828125,-0.99761962890625
1760038478108,96244702,3599,23,0.093994140625,-0.16021728515625,-1.02618408203125
1760038478108,96244702,3599,24,0.085205078125,-0.15606689453125,-1.00787353515625
1760038478108,96244702,3599,25,0.08447265625,-0.15313720703125,-0.99688720703125
1760038478108,96244702,3599,26,0.090087890625,-0.15264892578125,-1.00592041015625
1760038478108,96244702,3599,27,0.098876953125,-0.15997314453125,-1.02178955078125
1760038478108,96244702,3599,28,0.090087890625,-0.16363525390625,-0.98443603515625
1760038478108,96244702,3599,29,0.09130859375,-0.16265869140625,-0.99786376953125
1760038478108,96244702,3599,30,0.095703125,-0.15826416015625,-1.01202392578125
1760038478108,96244702,3599,31,0.103515625,-0.15997314453125,-1.00933837890625
1760038480507,96247275,3600,0,0.095947265625,-0.15606689453125,-0.99493408203125
1760038480507,96247275,3600,1,0.10205078125,-0.15655517578125,-1.00006103515625
1760038480507,96247275,3600,2,0.098388671875,-0.15362548828125,-1.00665283203125
1760038480507,96247275,3600,3,0.0966796875,-0.15460205078125,-1.00445556640625
1760038480507,96247275,3600,4,0.095703125,-0.15240478515625,-1.00177001953125
1760038480507,96247275,3600,5,0.0966796875,-0.14874267578125,-1.00421142578125
1760038480507,96247275,3600,6,0.095703125,-0.14825439453125,-1.00469970703125
1760038480507,96247275,3600,7,0.094970703125,-0.14556884765625,-1.00177001953125
1760038480507,96247275,3600,8,0.0947265625,-0.14776611328125,-1.00616455078125
1760038480507,96247275,3600,9,0.094482421875,-0.14825439453125,-1.00665283203125
1760038480507,96247275,3600,10,0.094482421875,-0.14385986328125,-1.00762939453125
1760038480507,96247275,3600,11,0.09521484375,-0.14703369140625,-1.00274658203125
1760038480507,96247275,3600,12,0.0927734375,-0.14532470703125,-1.00762939453125
1760038480507,96247275,3600,13,0.09521484375,-0.14630126953125,-1.00494384765625
1760038480507,96247275,3600,14,0.09326171875,-0.14703369140625,-1.00347900390625
1760038480507,96247275,3600,15,0.095947265625,-0.14532470703125,-1.00592041015625
1760038480507,96247275,3600,16,0.09423828125,-0.14385986328125,-1.00445556640625
1760038480507,96247275,3600,17,0.094482421875,-0.14508056640625,-1.00445556640625
1760038480507,96247275,3600,18,0.094970703125,-0.14825439453125,-1.00469970703125
1760038480507,96247275,3600,19,0.093994140625,-0.14825439453125,-1.00567626953125
1760038480507,96247275,3600,20,0.09423828125,-0.14410400390625,-1.00250244140625
1760038480507,96247275,3600,21,0.091796875,-0.14385986328125,-1.00347900390625
1760038480507,96247275,3600,22,0.09375,-0.13970947265625,-0.99517822265625
1760038480507,96247275,3600,23,0.093017578125,-0.14263916015625,-1.00640869140625
1760038480507,96247275,3600,24,0.093505859375,-0.14703369140625,-1.01226806640625
1760038480507,96247275,3600,25,0.0986328125,-0.14776611328125,-1.01373291015625
1760038480507,96247275,3600,26,0.108642578125,-0.15020751953125,-1.01422119140625
1760038480507,96247275,3600,27,0.0908203125,-0.15997314453125,-0.99346923828125
1760038480507,96247275,3600,28,0.085693359375,-0.15338134765625,-1.00079345703125
1760038480507,96247275,3600,29,0.087646484375,-0.15753173828125,-1.00909423828125
1760038480507,96247275,3600,30,0.091796875,-0.15924072265625,-1.00469970703125
1760038480507,96247275,3600,31,0.09716796875,-0.16851806640625,-0.99493408203125
1760038483058,96249848,3601,0,0.09912109375,-0.16998291015625,-0.98419189453125
1760038483058,96249848,3601,1,0.1083984375,-0.16436767578125,-1.00933837890625
1760038483058,96249848,3601,2,0.10546875,-0.17120361328125,-1.00274658203125
1760038483058,96249848,3601,3,0.09033203125,-0.16534423828125,-0.99444580078125
1760038483058,96249848,3601,4,0.08935546875,-0.15997314453125,-1.00616455078125
1760038483058,96249848,3601,5,0.08349609375,-0.15997314453125,-1.00836181640625
1760038483058,96249848,3601,6,0.0830078125,-0.15972900390625,-1.00567626953125
1760038483058,96249848,3601,7,0.08740234375,-0.15313720703125,-1.00372314453125
1760038483058,96249848,3601,8,0.089599609375,-0.15093994140625,-1.00762939453125
1760038483058,96249848,3601,9,0.075439453125,-0.15606689453125,-0.99029541015625
1760038483058,96249848,3601,10,0.063720703125,-0.15167236328125,-1.00152587890625
1760038483058,96249848,3601,11,0.067626953125,-0.15142822265625,-1.02252197265625
1760038483058,96249848,3601,12,0.077392578125,-0.14776611328125,-1.02032470703125
1760038483058,96249848,3601,13,0.085693359375,-0.14093017578125,-1.00885009765625
1760038483058,96249848,3601,14,0.08642578125,-0.14141845703125,-0.99615478515625
1760038483058,96249848,3601,15,0.08349609375,-0.13897705078125,-0.99932861328125
1760038483058,96249848,3601,16,0.077392578125,-0.14239501953125,-1.01226806640625
1760038483058,96249848,3601,17,0.0771484375,-0.14434814453125,-1.00762939453125
1760038483058,96249848,3601,18,0.0771484375,-0.14141845703125,-1.00567626953125
1760038483058,96249848,3601,19,0.0791015625,-0.14019775390625,-1.00567626953125
1760038483058,96249848,3601,20,0.08203125,-0.13922119140625,-1.00860595703125
1760038483058,96249848,3601,21,0.080810546875,-0.13922119140625,-1.00372314453125
1760038483058,96249848,3601,22,0.07958984375,-0.13995361328125,-1.00933837890625
1760038483058,96249848,3601,23,0.074951171875,-0.13702392578125,-1.00933837890625
1760038483058,96249848,3601,24,0.07568359375,-0.13873291015625,-1.00714111328125
1760038483058,96249848,3601,25,0.07958984375,-0.13507080078125,-1.00665283203125
1760038483058,96249848,3601,26,0.079345703125,-0.13555908203125,-1.00982666015625
1760038483058,96249848,3601,27,0.076416015625,-0.13751220703125,-1.00762939453125
1760038483058,96249848,3601,28,0.075439453125,-0.13531494140625,-1.00665283203125
1760038483058,96249848,3601,29,0.07763671875,-0.13531494140625,-1.01226806640625
1760038483058,96249848,3601,30,0.074951171875,-0.13531494140625,-1.00762939453125
1760038483058,96249848,3601,31,0.074462890625,-0.13458251953125,-1.01153564453125
1760038485600,96252421,3602,0,0.073974609375,-0.13458251953125,-1.00909423828125
1760038485600,96252421,3602,1,0.07373046875,-0.13458251953125,-1.00616455078125
1760038485600,96252421,3602,2,0.073486328125,-0.13189697265625,-1.00836181640625
1760038485600,96252421,3602,3,0.075927734375,-0.13507080078125,-1.00982666015625
1760038485600,96252421,3602,4,0.076416015625,-0.13751220703125,-1.00665283203125
1760038485600,96252421,3602,5,0.077392578125,-0.13873291015625,-1.00958251953125
1760038485600,96252421,3602,6,0.07861328125,-0.13726806640625,-1.00738525390625
1760038485600,96252421,3602,7,0.081298828125,-0.13751220703125,-1.00811767578125
1760038485600,96252421,3602,8,0.080078125,-0.14410400390625,-1.00592041015625
1760038485600,96252421,3602,9,0.085205078125,-0.14556884765625,-1.00860595703125
1760038485600,96252421,3602,10,0.08544921875,-0.14752197265625,-1.00543212890625
1760038485600,96252421,3602,11,0.085693359375,-0.14849853515625,-1.00445556640625
1760038485600,96252421,3602,12,0.085205078125,-0.14874267578125,-1.00518798828125
1760038485600,96252421,3602,13,0.085205078125,-0.14312744140625,-1.01031494140625
1760038485600,96252421,3602,14,0.0869140625,-0.14263916015625,-1.00445556640625
1760038485600,96252421,3602,15,0.08203125,-0.14215087890625,-1.00567626953125
1760038485600,96252421,3602,16,0.080322265625,-0.14044189453125,-1.00982666015625
1760038485600,96252421,3602,17,0.08056640625,-0.13970947265625,-1.00567626953125
1760038485600,96252421,3602,18,0.0791015625,-0.13507080078125,-1.00787353515625
1760038485600,96252421,3602,19,0.078125,-0.13800048828125,-1.00714111328125
1760038485600,96252421,3602,20,0.078857421875,-0.13775634765625,-1.00469970703125
1760038485600,96252421,3602,21,0.07763671875,-0.13751220703125,-1.01031494140625
1760038485600,96252421,3602,22,0.0771484375,-0.13726806640625,-1.00421142578125
1760038485600,96252421,3602,23,0.078857421875,-0.13580322265625,-1.01007080078125
1760038485600,96252421,3602,24,0.076904296875,-0.13555908203125,-1.00640869140625
1760038485600,96252421,3602,25,0.076171875,-0.13336181640625,-1.00665283203125
1760038485600,96252421,3602,26,0.074951171875,-0.13067626953125,-1.01055908203125
1760038485600,96252421,3602,27,0.072265625,-0.13165283203125,-1.00885009765625
1760038485600,96252421,3602,28,0.07275390625,-0.13409423828125,-1.00689697265625
1760038485600,96252421,3602,29,0.07470703125,-0.13189697265625,-1.01031494140625
1760038485600,96252421,3602,30,0.076904296875,-0.13336181640625,-1.00836181640625
1760038485600,96252421,3602,31,0.07666015625,-0.13653564453125,-1.00543212890625
1760038488154,96254994,3603,0,0.078369140625,-0.13946533203125,-1.01031494140625
1760038488154,96254994,3603,1,0.080078125,-0.14312744140625,-1.00762939453125
1760038488154,96254994,3603,2,0.081298828125,-0.14093017578125,-1.00714111328125
1760038488154,96254994,3603,3,0.083740234375,-0.14385986328125,-1.00640869140625
1760038488154,96254994,3603,4,0.086669921875,-0.14727783203125,-1.00787353515625
1760038488154,96254994,3603,5,0.088623046875,-0.15216064453125,-1.00372314453125
1760038488154,96254994,3603,6,0.09130859375,-0.15142822265625,-1.00250244140625
1760038488154,96254994,3603,7,0.0947265625,-0.15460205078125,-1.00225830078125
1760038488154,96254994,3603,8,0.09814453125,-0.15777587890625,-1.00299072265625
1760038488154,96254994,3603,9,0.10009765625,-0.16021728515625,-1.00372314453125
1760038488154,96254994,3603,10,0.09716796875,-0.15948486328125,-0.99981689453125
1760038488154,96254994,3603,11,0.09619140625,-0.15972900390625,-1.00152587890625
1760038488154,96254994,3603,12,0.098388671875,-0.16143798828125,-1.00201416015625
1760038488154,96254994,3603,13,0.099609375,-0.16143798828125,-1.00347900390625
1760038488154,96254994,3603,14,0.09814453125,-0.15728759765625,-1.00225830078125
1760038488154,96254994,3603,15,0.096435546875,-0.15850830078125,-1.00201416015625
1760038488154,96254994,3603,16,0.09521484375,-0.15802001953125,-0.99981689453125
1760038488154,96254994,3603,17,0.093017578125,-0.15850830078125,-1.00250244140625
1760038488154,96254994,3603,18,0.1025390625,-0.15972900390625,-1.00543212890625
1760038488154,96254994,3603,19,0.0986328125,-0.15899658203125,-0.99420166015625
1760038488154,96254994,3603,20,0.098876953125,-0.16094970703125,-1.00079345703125
1760038488154,96254994,3603,21,0.10205078125,-0.15606689453125,-1.00933837890625
1760038488154,96254994,3603,22,0.095703125,-0.15216064453125,-0.99322509765625
1760038488154,96254994,3603,23,0.09033203125,-0.15093994140625,-0.99102783203125
1760038488154,96254994,3603,24,0.09619140625,-0.15631103515625,-1.00665283203125
1760038488154,96254994,3603,25,0.10107421875,-0.16754150390625,-1.01202392578125
1760038488154,96254994,3603,26,0.09619140625,-0.17926025390625,-1.01495361328125
1760038488154,96254994,3603,27,0.08740234375,-0.18463134765625,-1.00152587890625
1760038488154,96254994,3603,28,0.0849609375,-0.19342041015625,-0.99468994140625
1760038488154,96254994,3603,29,0.07861328125,-0.19635009765625,-0.99420166015625
1760038488154,96254994,3603,30,0.0830078125,-0.20391845703125,-1.00933837890625
1760038488154,96254994,3603,31,0.08837890625,-0.20391845703125,-1.01885986328125
1760038490704,96257567,3604,0,0.083251953125,-0.19683837890625,-0.99176025390625
1760038490704,96257567,3604,1,0.086181640625,-0.18243408203125,-0.98590087890625
1760038490704,96257567,3604,2,0.08935546875,-0.17877197265625,-0.99737548828125
1760038490704,96257567,3604,3,0.09033203125,-0.17535400390625,-0.99127197265625
1760038490704,96257567,3604,4,0.090576171875,-0.16656494140625,-1.00640869140625
1760038490704,96257567,3604,5,0.09033203125,-0.16583251953125,-1.01544189453125
1760038490704,96257567,3604,6,0.083251953125,-0.16461181640625,-0.99395751953125
1760038490704,96257567,3604,7,0.083251953125,-0.16290283203125,-1.00396728515625
1760038490704,96257567,3604,8,0.0810546875,-0.16583251953125,-1.00469970703125
1760038490704,96257567,3604,9,0.07958984375,-0.16290283203125,-1.01080322265625
1760038490704,96257567,3604,10,0.076171875,-0.16192626953125,-0.99957275390625
1760038490704,96257567,3604,11,0.079345703125,-0.16070556640625,-1.00299072265625
1760038490704,96257567,3604,12,0.078857421875,-0.16168212890625,-1.00689697265625
1760038490704,96257567,3604,13,0.077880859375,-0.15802001953125,-1.00616455078125
1760038490704,96257567,3604,14,0.072021484375,-0.16119384765625,-1.00469970703125
1760038490704,96257567,3604,15,0.07421875,-0.15655517578125,-1.00494384765625
1760038490704,96257567,3604,16,0.073974609375,-0.15606689453125,-1.00518798828125
1760038490704,96257567,3604,17,0.0732421875,-0.15582275390625,-1.00811767578125
1760038490704,96257567,3604,18,0.07373046875,-0.15557861328125,-1.00543212890625
1760038490704,96257567,3604,19,0.0751953125,-0.15753173828125,-1.00640869140625
1760038490704,96257567,3604,20,0.068359375,-0.15460205078125,-1.00616455078125
1760038490704,96257567,3604,21,0.072509765625,-0.15509033203125,-1.00860595703125
1760038490704,96257567,3604,22,0.06982421875,-0.15655517578125,-1.00494384765625
1760038490704,96257567,3604,23,0.07275390625,-0.15435791015625,-1.00933837890625
1760038490704,96257567,3604,24,0.06884765625,-0.15435791015625,-1.00177001953125
1760038490704,96257567,3604,25,0.068603515625,-0.15533447265625,-1.00323486328125
1760038490704,96257567,3604,26,0.07373046875,-0.15460205078125,-1.01153564453125
1760038490704,96257567,3604,27,0.069091796875,-0.15655517578125,-1.00201416015625
1760038490704,96257567,3604,28,0.07177734375,-0.15484619140625,-1.00689697265625
1760038490704,96257567,3604,29,0.071044921875,-0.15679931640625,-1.00860595703125
1760038490704,96257567,3604,30,0.0693359375,-0.15606689453125,-1.00543212890625
1760038490704,96257567,3604,31,0.068115234375,-0.15362548828125,-1.00762939453125
1760038493405,96260141,3605,0,0.068359375,-0.15460205078125,-1.00836181640625
1760038493405,96260141,3605,1,0.06982421875,-0.15411376953125,-1.00299072265625
1760038493405,96260141,3605,2,0.06884765625,-0.15020751953125,-1.00689697265625
1760038493405,96260141,3605,3,0.068359375,-0.15533447265625,-1.00958251953125
1760038493405,96260141,3605,4,0.06396484375,-0.15655517578125,-1.00372314453125
1760038493405,96260141,3605,5,0.07177734375,-0.16094970703125,-1.00836181640625
1760038493405,96260141,3605,6,0.076416015625,-0.17047119140625,-1.00177001953125
1760038493405,96260141,3605,7,0.074951171875,-0.17218017578125,-1.00177001953125
1760038493405,96260141,3605,8,0.07568359375,-0.16607666015625,-1.00738525390625
1760038493405,96260141,3605,9,0.076171875,-0.15704345703125,-1.00689697265625
1760038493405,96260141,3605,10,0.073486328125,-0.16192626953125,-1.00347900390625
1760038493405,96260141,3605,11,0.072265625,-0.16363525390625,-1.00103759765625
1760038493405,96260141,3605,12,0.07568359375,-0.16021728515625,-1.01007080078125
1760038493405,96260141,3605,13,0.074462890625,-0.15875244140625,-1.00616455078125
1760038493405,96260141,3605,14,0.07275390625,-0.15777587890625,-1.00372314453125
1760038493405,96260141,3605,15,0.074951171875,-0.15679931640625,-1.00592041015625
1760038493405,96260141,3605,16,0.0712890625,-0.15557861328125,-1.00616455078125
1760038493405,96260141,3605,17,0.071044921875,-0.15533447265625,-1.00616455078125
1760038493405,96260141,3605,18,0.0693359375,-0.15997314453125,-1.00689697265625
1760038493405,96260141,3605,19,0.0703125,-0.15924072265625,-1.00811767578125
1760038493405,96260141,3605,20,0.067626953125,-0.15679931640625,-1.00616455078125
1760038493405,96260141,3605,21,0.069091796875,-0.15631103515625,-1.00616455078125
1760038493405,96260141,3605,22,0.070556640625,-0.15655517578125,-1.00567626953125
1760038493405,96260141,3605,23,0.06787109375,-0.15386962890625,-1.00689697265625
1760038493405,96260141,3605,24,0.06640625,-0.15484619140625,-1.00567626953125
1760038493405,96260141,3605,25,0.067626953125,-0.15386962890625,-1.00689697265625
1760038493405,96260141,3605,26,0.067138671875,-0.15386962890625,-1.00665283203125
1760038493405,96260141,3605,27,0.06787109375,-0.15606689453125,-1.01055908203125
1760038493405,96260141,3605,28,0.065185546875,-0.15484619140625,-1.00201416015625
1760038493405,96260141,3605,29,0.066650390625,-0.15289306640625,-1.00543212890625
1760038493405,96260141,3605,30,0.06591796875,-0.15484619140625,-1.00958251953125
1760038493405,96260141,3605,31,0.06640625,-0.15289306640625,-1.00836181640625
1760038495957,96262714,3606,0,0.063232421875,-0.15289306640625,-1.00616455078125
1760038495957,96262714,3606,1,0.067626953125,-0.15631103515625,-1.00787353515625
1760038495957,96262714,3606,2,0.065185546875,-0.15631103515625,-0.99932861328125
1760038495957,96262714,3606,3,0.069580078125,-0.15289306640625,-1.01129150390625
1760038495957,96262714,3606,4,0.068603515625,-0.15460205078125,-1.00982666015625
1760038495957,96262714,3606,5,0.068115234375,-0.15509033203125,-1.00567626953125
1760038495957,96262714,3606,6,0.0673828125,-0.15386962890625,-1.01422119140625
1760038495957,96262714,3606,7,0.06005859375,-0.15118408203125,-1.00323486328125
1760038495957,96262714,3606,8,0.06396484375,-0.15460205078125,-1.01080322265625
1760038495957,96262714,3606,9,0.06591796875,-0.15411376953125,-1.00787353515625
1760038495957,96262714,3606,10,0.062255859375,-0.15484619140625,-1.00323486328125
1760038495957,96262714,3606,11,0.063232421875,-0.15509033203125,-1.01129150390625
1760038495957,96262714,3606,12,0.062744140625,-0.15069580078125,-1.00787353515625
1760038495957,96262714,3606,13,0.06298828125,-0.15264892578125,-1.00567626953125
1760038495957,96262714,3606,14,0.06396484375,-0.14947509765625,-1.00714111328125
1760038495957,96262714,3606,15,0.061767578125,-0.15069580078125,-1.00811767578125
1760038495957,96262714,3606,16,0.061279296875,-0.15191650390625,-1.00592041015625
1760038495957,96262714,3606,17,0.063232421875,-0.15338134765625,-1.00274658203125
1760038495957,96262714,3606,18,0.066650390625,-0.15069580078125,-1.00958251953125
1760038495957,96262714,3606,19,0.062744140625,-0.15093994140625,-1.00860595703125
1760038495957,96262714,3606,20,0.062744140625,-0.15362548828125,-1.00982666015625
1760038495957,96262714,3606,21,0.066162109375,-0.15191650390625,-1.00762939453125
1760038495957,96262714,3606,22,0.062744140625,-0.15240478515625,-1.00274658203125
1760038495957,96262714,3606,23,0.066650390625,-0.15216064453125,-1.01055908203125
1760038495957,96262714,3606,24,0.06005859375,-0.15167236328125,-1.00592041015625
1760038495957,96262714,3606,25,0.06103515625,-0.15533447265625,-1.00909423828125
1760038495957,96262714,3606,26,0.06201171875,-0.15045166015625,-1.01007080078125
1760038495957,96262714,3606,27,0.060546875,-0.15118408203125,-1.00396728515625
1760038495957,96262714,3606,28,0.0625,-0.15338134765625,-1.01251220703125
1760038495957,96262714,3606,29,0.0615234375,-0.15460205078125,-1.01080322265625
1760038495957,96262714,3606,30,0.062255859375,-0.15069580078125,-1.00689697265625
1760038495957,96262714,3606,31,0.06201171875,-0.15069580078125,-1.00811767578125
1760038498505,96265287,3607,0,0.063232421875,-0.15069580078125,-1.00665283203125
1760038498505,96265287,3607,1,0.0615234375,-0.15313720703125,-1.00616455078125
1760038498505,96265287,3607,2,0.064697265625,-0.15069580078125,-1.00738525390625
1760038498505,96265287,3607,3,0.064208984375,-0.15289306640625,-1.00982666015625
1760038498505,96265287,3607,4,0.063720703125,-0.15435791015625,-1.00445556640625
1760038498505,96265287,3607,5,0.068603515625,-0.15582275390625,-1.00811767578125
1760038498505,96265287,3607,6,0.063720703125,-0.15582275390625,-1.00811767578125
1760038498505,96265287,3607,7,0.064697265625,-0.15533447265625,-1.00958251953125
1760038498505,96265287,3607,8,0.067626953125,-0.15386962890625,-1.00494384765625
1760038498505,96265287,3607,9,0.06787109375,-0.15484619140625,-1.00592041015625
1760038498505,96265287,3607,10,0.0673828125,-0.15362548828125,-1.00762939453125
1760038498505,96265287,3607,11,0.065185546875,-0.15338134765625,-1.01153564453125
1760038498505,96265287,3607,12,0.0654296875,-0.15313720703125,-1.00738525390625
1760038498505,96265287,3607,13,0.065185546875,-0.15264892578125,-1.00518798828125
1760038498505,96265287,3607,14,0.06494140625,-0.15460205078125,-1.00714111328125
1760038498505,96265287,3607,15,0.065673828125,-0.15386962890625,-1.00665283203125
1760038498505,96265287,3607,16,0.065673828125,-0.15509033203125,-1.00933837890625
1760038498505,96265287,3607,17,0.06298828125,-0.15289306640625,-1.00958251953125
1760038498505,96265287,3607,18,0.066650390625,-0.15484619140625,-0.99761962890625
1760038498505,96265287,3607,19,0.07666015625,-0.15679931640625,-1.01226806640625
1760038498505,96265287,3607,20,0.074462890625,-0.15997314453125,-1.00396728515625
1760038498505,96265287,3607,21,0.073486328125,-0.16412353515625,-0.99981689453125
1760038498505,96265287,3607,22,0.07568359375,-0.16046142578125,-1.01397705078125
1760038498505,96265287,3607,23,0.072265625,-0.15826416015625,-1.00128173828125
1760038498505,96265287,3607,24,0.07177734375,-0.15924072265625,-1.00177001953125
1760038498505,96265287,3607,25,0.072265625,-0.15826416015625,-1.01202392578125
1760038498505,96265287,3607,26,0.069580078125,-0.15728759765625,-1.00665283203125
1760038498505,96265287,3607,27,0.0712890625,-0.15753173828125,-1.00445556640625
1760038498505,96265287,3607,28,0.071044921875,-0.15704345703125,-1.00958251953125
1760038498505,96265287,3607,29,0.069580078125,-0.15386962890625,-1.00665283203125
1760038498505,96265287,3607,30,0.068603515625,-0.15386962890625,-1.00518798828125
1760038498505,96265287,3607,31,0.071533203125,-0.15362548828125,-1.00982666015625
1760038501054,96267860,3608,0,0.069580078125,-0.15948486328125,-1.00592041015625
1760038501054,96267860,3608,1,0.071044921875,-0.15826416015625,-1.00714111328125
1760038501054,96267860,3608,2,0.069091796875,-0.15826416015625,-1.00665283203125
1760038501054,96267860,3608,3,0.06787109375,-0.15582275390625,-1.00933837890625
1760038501054,96267860,3608,4,0.0693359375,-0.15313720703125,-1.00494384765625
1760038501054,96267860,3608,5,0.070556640625,-0.15313720703125,-1.00592041015625
1760038501054,96267860,3608,6,0.07275390625,-0.16168212890625,-1.01422119140625
1760038501054,96267860,3608,7,0.067138671875,-0.15460205078125,-0.99884033203125
1760038501054,96267860,3608,8,0.07373046875,-0.15875244140625,-1.00933837890625
1760038501054,96267860,3608,9,0.071533203125,-0.15850830078125,-1.01104736328125
1760038501054,96267860,3608,10,0.06982421875,-0.15533447265625,-1.00103759765625
1760038501054,96267860,3608,11,0.066162109375,-0.15679931640625,-1.00787353515625
1760038501054,96267860,3608,12,0.068603515625,-0.16046142578125,-1.01593017578125
1760038501054,96267860,3608,13,0.064208984375,-0.15509033203125,-1.01031494140625
1760038501054,96267860,3608,14,0.063232421875,-0.15557861328125,-1.00079345703125
1760038501054,96267860,3608,15,0.06689453125,-0.15728759765625,-0.99420166015625
1760038501054,96267860,3608,16,0.072509765625,-0.16778564453125,-1.01300048828125
1760038501054,96267860,3608,17,0.07177734375,-0.16168212890625,-1.01666259765625
1760038501054,96267860,3608,18,0.073486328125,-0.15606689453125,-1.00128173828125
1760038501054,96267860,3608,19,0.072509765625,-0.15728759765625,-1.00469970703125
1760038501054,96267860,3608,20,0.072509765625,-0.15777587890625,-1.00909423828125
1760038501054,96267860,3608,21,0.0693359375,-0.15679931640625,-1.00518798828125
1760038501054,96267860,3608,22,0.0712890625,-0.15631103515625,-0.99884033203125
1760038501054,96267860,3608,23,0.0751953125,-0.15606689453125,-1.00787353515625
1760038501054,96267860,3608,24,0.072021484375,-0.15826416015625,-1.00469970703125
1760038501054,96267860,3608,25,0.069580078125,-0.15655517578125,-1.00543212890625
1760038501054,96267860,3608,26,0.07177734375,-0.15704345703125,-1.00958251953125
1760038501054,96267860,3608,27,0.072509765625,-0.16046142578125,-1.00811767578125
1760038501054,96267860,3608,28,0.07080078125,-0.15655517578125,-1.00421142578125
1760038501054,96267860,3608,29,0.0712890625,-0.15606689453125,-1.01177978515625
1760038501054,96267860,3608,30,0.06982421875,-0.15753173828125,-1.00616455078125
1760038501054,96267860,3608,31,0.072021484375,-0.15655517578125,-1.00640869140625
1760038503606,96270433,3609,0,0.068603515625,-0.15582275390625,-1.00616455078125
1760038503606,96270433,3609,1,0.0703125,-0.15484619140625,-1.00616455078125
1760038503606,96270433,3609,2,0.068115234375,-0.15362548828125,-1.00518798828125
1760038503606,96270433,3609,3,0.066162109375,-0.15509033203125,-1.00665283203125
1760038503606,96270433,3609,4,0.0693359375,-0.15460205078125,-1.00689697265625
1760038503606,96270433,3609,5,0.065673828125,-0.15386962890625,-1.00665283203125
1760038503606,96270433,3609,6,0.067626953125,-0.15753173828125,-1.00738525390625
1760038503606,96270433,3609,7,0.064208984375,-0.15338134765625,-1.00592041015625
1760038503606,96270433,3609,8,0.068115234375,-0.15606689453125,-1.00347900390625
1760038503606,96270433,3609,9,0.066650390625,-0.15386962890625,-1.00347900390625
1760038503606,96270433,3609,10,0.068603515625,-0.15533447265625,-1.00885009765625
1760038503606,96270433,3609,11,0.06396484375,-0.15777587890625,-1.00787353515625
1760038503606,96270433,3609,12,0.06396484375,-0.15216064453125,-1.00762939453125
1760038503606,96270433,3609,13,0.0625,-0.15435791015625,-1.00714111328125
1760038503606,96270433,3609,14,0.064697265625,-0.15338134765625,-1.00860595703125
1760038503606,96270433,3609,15,0.06396484375,-0.15216064453125,-1.00299072265625
1760038503606,96270433,3609,16,0.063232421875,-0.15191650390625,-1.00518798828125
1760038503606,96270433,3609,17,0.06591796875,-0.15460205078125,-1.01129150390625
1760038503606,96270433,3609,18,0.06396484375,-0.15484619140625,-1.00860595703125
1760038503606,96270433,3609,19,0.062255859375,-0.15484619140625,-1.01202392578125
1760038503606,96270433,3609,20,0.0615234375,-0.15850830078125,-1.00250244140625
1760038503606,96270433,3609,21,0.0634765625,-0.15924072265625,-1.00640869140625
1760038503606,96270433,3609,22,0.0693359375,-0.16339111328125,-1.00396728515625
1760038503606,96270433,3609,23,0.071044921875,-0.16510009765625,-1.00445556640625
1760038503606,96270433,3609,24,0.07421875,-0.16094970703125,-1.00201416015625
1760038503606,96270433,3609,25,0.07470703125,-0.15386962890625,-1.00811767578125
1760038503606,96270433,3609,26,0.07470703125,-0.15631103515625,-1.00518798828125
1760038503606,96270433,3609,27,0.072998046875,-0.15631103515625,-1.00347900390625
1760038503606,96270433,3609,28,0.071044921875,-0.15289306640625,-1.00543212890625
1760038503606,96270433,3609,29,0.06787109375,-0.15362548828125,-1.01007080078125
1760038503606,96270433,3609,30,0.070068359375,-0.15313720703125,-1.01104736328125
1760038503606,96270433,3609,31,0.069091796875,-0.15118408203125,-1.00201416015625
1760038506156,96273006,3610,0,0.072509765625,-0.15435791015625,-1.00860595703125
1760038506156,96273006,3610,1,0.06884765625,-0.15264892578125,-1.01007080078125
1760038506156,96273006,3610,2,0.0712890625,-0.15435791015625,-1.00616455078125
1760038506156,96273006,3610,3,0.06884765625,-0.15411376953125,-1.01153564453125
1760038506156,96273006,3610,4,0.069580078125,-0.15313720703125,-1.00347900390625
1760038506156,96273006,3610,5,0.06640625,-0.15362548828125,-1.01251220703125
1760038506156,96273006,3610,6,0.065673828125,-0.15216064453125,-1.00616455078125
1760038506156,96273006,3610,7,0.061279296875,-0.15240478515625,-1.00396728515625
1760038506156,96273006,3610,8,0.06396484375,-0.15020751953125,-1.00665283203125
1760038506156,96273006,3610,9,0.06494140625,-0.15069580078125,-1.01007080078125
1760038506156,96273006,3610,10,0.066650390625,-0.14898681640625,-1.01055908203125
1760038519054,96285872,3615,27,0.081787109375,-0.13653564453125,-1.01202392578125
1760038519054,96285872,3615,28,0.076904296875,-0.13507080078125,-1.00543212890625
1760038519054,96285872,3615,29,0.079345703125,-0.13629150390625,-1.01251220703125
1760038519054,96285872,3615,30,0.0751953125,-0.13507080078125,-1.00469970703125
1760038519054,96285872,3615,31,0.07568359375,-0.13482666015625,-1.00738525390625
