receivedPhoneTimestamp,respeckTimestamp,packetSeqNum,sampleSeqNum,accelX,accelY,accelZ
1759697133501,884445447,25950,0,-0.06982421875,-0.94171142578125,-0.00592041015625
1759697133501,884445447,25950,1,-0.12451171875,-1.00592041015625,0.00726318359375
1759697133501,884445447,25950,2,-0.107177734375,-1.00811767578125,0.01483154296875
1759697133501,884445447,25950,3,-0.106201171875,-0.97882080078125,-0.01031494140625
1759697133501,884445447,25950,4,-0.10595703125,-1.00762939453125,0.00994873046875
1759697133501,884445447,25950,5,-0.134033203125,-1.00250244140625,0.00115966796875
1759697133501,884445447,25950,6,-0.126708984375,-1.01666259765625,0.00482177734375
1759697133501,884445447,25950,7,-0.0673828125,-0.99249267578125,0.00408935546875
1759697133501,884445447,25950,8,-0.102294921875,-0.98175048828125,0.02166748046875
1759697133501,884445447,25950,9,-0.07470703125,-1.00860595703125,0.01556396484375
1759697133501,884445447,25950,10,-0.110595703125,-0.99444580078125,0.00848388671875
1759697133501,884445447,25950,11,-0.103271484375,-1.00543212890625,-0.02716064453125
1759697133501,884445447,25950,12,-0.1123046875,-0.98370361328125,0.04583740234375
1759697133501,884445447,25950,13,-0.097900390625,-1.01983642578125,0.02484130859375
1759697133501,884445447,25950,14,-0.14990234375,-0.98492431640625,0.03997802734375
1759697133501,884445447,25950,15,-0.162353515625,-0.94439697265625,-0.04986572265625
1759697133501,884445447,25950,16,-0.07470703125,-1.04693603515625,-0.04058837890625
1759697133501,884445447,25950,17,-0.10693359375,-1.00762939453125,-0.02374267578125
1759697133501,884445447,25950,18,-0.132568359375,-0.98687744140625,-0.00543212890625
1759697133501,884445447,25950,19,-0.112548828125,-1.00469970703125,0.00579833984375
1759697133501,884445447,25950,20,-0.12158203125,-1.00299072265625,-0.01837158203125
1759697133501,884445447,25950,21,-0.1103515625,-1.00177001953125,-0.01300048828125
1759697133501,884445447,25950,22,-0.115234375,-0.99542236328125,-0.01007080078125
1759697133501,884445447,25950,23,-0.113525390625,-1.00177001953125,-0.01226806640625
1759697133501,884445447,25950,24,-0.1181640625,-0.99786376953125,-0.00103759765625
1759697133501,884445447,25950,25,-0.11083984375,-1.00738525390625,0.00091552734375
1759697133501,884445447,25950,26,-0.14990234375,-1.04083251953125,0.03948974609375
1759697133501,884445447,25950,27,-0.11669921875,-0.95001220703125,0.03924560546875
1759697133501,884445447,25950,28,-0.1044921875,-1.01153564453125,-0.02642822265625
1759697133501,884445447,25950,29,-0.15771484375,-0.95196533203125,-0.02935791015625
1759697133501,884445447,25950,30,-0.12109375,-1.03375244140625,-0.03839111328125
1759697133501,884445447,25950,31,-0.112060546875,-0.99908447265625,-0.02545166015625
1759697136036,884447990,25951,0,-0.12451171875,-0.99566650390625,-0.03424072265625
1759697136036,884447990,25951,1,-0.149658203125,-0.99737548828125,0.02264404296875
1759697136036,884447990,25951,2,-0.146240234375,-0.98614501953125,0.01312255859375
1759697136036,884447990,25951,3,-0.133056640625,-1.00714111328125,-0.01763916015625
1759697136036,884447990,25951,4,-0.140625,-0.99346923828125,-0.00811767578125
1759697136036,884447990,25951,5,-0.127197265625,-1.00152587890625,-0.02667236328125
1759697136036,884447990,25951,6,-0.12353515625,-0.99713134765625,0.00067138671875
1759697136036,884447990,25951,7,-0.137451171875,-0.98956298828125,-0.01910400390625
1759697136036,884447990,25951,8,-0.13623046875,-0.99688720703125,0.00701904296875
1759697136036,884447990,25951,9,-0.1357421875,-1.03399658203125,-0.02716064453125
1759697136036,884447990,25951,10,-0.135009765625,-0.98565673828125,0.03240966796875
1759697136036,884447990,25951,11,-0.11572265625,-0.98907470703125,0.03460693359375
1759697136036,884447990,25951,12,-0.097412109375,-1.00592041015625,0.05511474609375
1759697136036,884447990,25951,13,-0.178466796875,-0.96539306640625,0.06463623046875
1759697136036,884447990,25951,14,-0.171142578125,-0.84600830078125,-0.03717041015625
1759697136036,884447990,25951,15,-0.096923828125,-1.14923095703125,-0.06427001953125
1759697136036,884447990,25951,16,-0.1005859375,-0.97686767578125,-0.01177978515625
1759697136036,884447990,25951,17,-0.1142578125,-1.00567626953125,-0.03717041015625
1759697136036,884447990,25951,18,-0.13525390625,-1.00054931640625,-0.09161376953125
1759697136036,884447990,25951,19,-0.12060546875,-1.00201416015625,-0.03814697265625
1759697136036,884447990,25951,20,-0.109619140625,-1.00982666015625,-0.06256103515625
1759697136036,884447990,25951,21,-0.106201171875,-1.00054931640625,-0.04083251953125
1759697136036,884447990,25951,22,-0.119873046875,-0.99908447265625,-0.02398681640625
1759697136036,884447990,25951,23,-0.111572265625,-0.99835205078125,-0.06109619140625
1759697136036,884447990,25951,24,-0.11962890625,-1.00054931640625,-0.03594970703125
1759697136036,884447990,25951,25,-0.10986328125,-0.98760986328125,-0.04156494140625
1759697136036,884447990,25951,26,-0.1025390625,-1.02447509765625,-0.05865478515625
1759697136036,884447990,25951,27,-0.114013671875,-0.98785400390625,-0.03863525390625
1759697136036,884447990,25951,28,-0.125,-1.03277587890625,-0.04058837890625
1759697136036,884447990,25951,29,-0.1181640625,-0.98980712890625,0.02435302734375
1759697136036,884447990,25951,30,-0.11474609375,-0.99053955078125,0.03924560546875
1759697136036,884447990,25951,31,-0.06884765625,-1.00738525390625,-0.00225830078125
1759697138570,884450533,25952,0,-0.07080078125,-0.90045166015625,-0.03912353515625
1759697138570,884450533,25952,1,-0.063720703125,-1.06109619140625,-0.01885986328125
1759697138570,884450533,25952,2,-0.115234375,-1.00299072265625,-0.01470947265625
1759697138570,884450533,25952,3,-0.10107421875,-0.99249267578125,-0.01275634765625
1759697138570,884450533,25952,4,-0.087158203125,-1.00714111328125,-0.05059814453125
1759697138570,884450533,25952,5,-0.115478515625,-1.01397705078125,-0.01812744140625
1759697138570,884450533,25952,6,-0.111083984375,-0.99859619140625,-0.04278564453125
1759697138570,884450533,25952,7,-0.083984375,-1.00250244140625,-0.01739501953125
1759697138570,884450533,25952,8,-0.10986328125,-0.99615478515625,-0.02349853515625
1759697138570,884450533,25952,9,-0.09033203125,-1.00274658203125,-0.04180908203125
1759697138570,884450533,25952,10,-0.110107421875,-1.00982666015625,-0.03692626953125
1759697138570,884450533,25952,11,-0.094970703125,-0.99761962890625,0.00384521484375
1759697138570,884450533,25952,12,-0.08837890625,-1.05548095703125,-0.01226806640625
1759697138570,884450533,25952,13,-0.131591796875,-0.96490478515625,0.07366943359375
1759697138570,884450533,25952,14,-0.07373046875,-0.99200439453125,0.04266357421875
1759697138570,884450533,25952,15,-0.06005859375,-1.00982666015625,0.09686279296875
1759697138570,884450533,25952,16,-0.093505859375,-0.98004150390625,0.05413818359375
1759697138570,884450533,25952,17,-0.0849609375,-0.91119384765625,0.04119873046875
1759697138570,884450533,25952,18,-0.073974609375,-1.03497314453125,-0.05938720703125
1759697138570,884450533,25952,19,-0.0693359375,-0.99468994140625,-0.05450439453125
1759697138570,884450533,25952,20,-0.11669921875,-1.03717041015625,-0.03228759765625
1759697138570,884450533,25952,21,-0.112060546875,-0.99200439453125,-0.05743408203125
1759697138570,884450533,25952,22,-0.126220703125,-1.01202392578125,-0.02203369140625
1759697138570,884450533,25952,23,-0.090576171875,-0.99346923828125,-0.04278564453125
1759697138570,884450533,25952,24,-0.087158203125,-1.00543212890625,-0.06964111328125
1759697138570,884450533,25952,25,-0.112060546875,-0.99786376953125,-0.02374267578125
1759697138570,884450533,25952,26,-0.115478515625,-0.99395751953125,-0.02130126953125
1759697138570,884450533,25952,27,-0.100341796875,-1.01324462890625,-0.05303955078125
1759697138570,884450533,25952,28,-0.114990234375,-0.99053955078125,-0.02227783203125
1759697138570,884450533,25952,29,-0.104248046875,-1.00079345703125,-0.03082275390625
1759697138570,884450533,25952,30,-0.15283203125,-1.04107666015625,-0.01373291015625
1759697138570,884450533,25952,31,-0.11376953125,-0.96734619140625,0.04168701171875
1759697141106,884453076,25953,0,-0.122802734375,-0.96954345703125,-0.02081298828125
1759697141106,884453076,25953,1,-0.066162109375,-0.97930908203125,-0.06329345703125
1759697141106,884453076,25953,2,-0.086181640625,-1.03497314453125,-0.00836181640625
1759697141106,884453076,25953,3,-0.11083984375,-0.99395751953125,-0.01837158203125
1759697141106,884453076,25953,4,-0.12109375,-0.97369384765625,-0.00396728515625
1759697141106,884453076,25953,5,-0.125244140625,-1.03546142578125,0.00823974609375
1759697141106,884453076,25953,6,-0.096923828125,-0.99713134765625,-0.06158447265625
1759697141106,884453076,25953,7,-0.1181640625,-0.99444580078125,0.00555419921875
1759697141106,884453076,25953,8,-0.1259765625,-0.99346923828125,-0.01153564453125
1759697141106,884453076,25953,9,-0.112548828125,-1.00567626953125,-0.01934814453125
1759697141106,884453076,25953,10,-0.121337890625,-1.00079345703125,0.00018310546875
1759697141106,884453076,25953,11,-0.096923828125,-1.00592041015625,-0.02520751953125
1759697141106,884453076,25953,12,-0.135986328125,-0.99420166015625,-0.00250244140625
1759697141106,884453076,25953,13,-0.123291015625,-1.00836181640625,-0.01495361328125
1759697141106,884453076,25953,14,-0.115966796875,-0.98663330078125,0.00482177734375
1759697141106,884453076,25953,15,-0.14013671875,-0.99371337890625,0.01190185546875
1759697141106,884453076,25953,16,-0.11962890625,-0.99493408203125,-0.03033447265625
1759697141106,884453076,25953,17,-0.087890625,-1.00640869140625,0.01629638671875
1759697141106,884453076,25953,18,-0.128173828125,-0.99371337890625,0.02801513671875
1759697141106,884453076,25953,19,-0.0966796875,-1.01007080078125,-0.01348876953125
1759697141106,884453076,25953,20,-0.107666015625,-1.02740478515625,0.04071044921875
1759697141106,884453076,25953,21,-0.133544921875,-0.95123291015625,0.08758544921875
1759697141106,884453076,25953,22,-0.09130859375,-1.00225830078125,0.07000732421875
1759697141106,884453076,25953,23,-0.081787109375,-0.99981689453125,0.04437255859375
1759697141106,884453076,25953,24,-0.100341796875,-0.93975830078125,0.07171630859375
1759697141106,884453076,25953,25,-0.073974609375,-1.06158447265625,-0.05328369140625
1759697141106,884453076,25953,26,-0.09765625,-0.97515869140625,-0.02886962890625
1759697141106,884453076,25953,27,-0.150634765625,-1.00323486328125,0.01043701171875
1759697141106,884453076,25953,28,-0.128662109375,-0.99176025390625,-0.05426025390625
1759697141106,884453076,25953,29,-0.107177734375,-1.00689697265625,0.00579833984375
1759697141106,884453076,25953,30,-0.10546875,-0.98760986328125,-0.00616455078125
1759697141106,884453076,25953,31,-0.089111328125,-1.02008056640625,-0.00274658203125
1759697143834,884455619,25954,0,-0.13232421875,-0.99224853515625,-0.00054931640625
1759697143834,884455619,25954,1,-0.113525390625,-0.98272705078125,-0.02520751953125
1759697143834,884455619,25954,2,-0.116455078125,-1.00787353515625,-0.00616455078125
1759697143834,884455619,25954,3,-0.10009765625,-0.99761962890625,0.00018310546875
1759697143834,884455619,25954,4,-0.117919921875,-1.00421142578125,-0.01788330078125
1759697143834,884455619,25954,5,-0.124267578125,-0.98321533203125,-0.01690673828125
1759697143834,884455619,25954,6,-0.13916015625,-0.99957275390625,-0.02325439453125
1759697143834,884455619,25954,7,-0.1064453125,-0.99664306640625,-0.01397705078125
1759697143834,884455619,25954,8,-0.14599609375,-1.00494384765625,-0.00469970703125
1759697143834,884455619,25954,9,-0.146728515625,-1.00372314453125,-0.03790283203125
1759697143834,884455619,25954,10,-0.14111328125,-0.99884033203125,-0.01568603515625
1759697143834,884455619,25954,11,-0.136474609375,-1.00665283203125,0.00628662109375
1759697143834,884455619,25954,12,-0.052734375,-0.97344970703125,-0.00347900390625
1759697143834,884455619,25954,13,-0.13671875,-1.02960205078125,0.14959716796875
1759697143834,884455619,25954,14,-0.138671875,-0.99249267578125,0.00189208984375
1759697143834,884455619,25954,15,-0.12890625,-0.98516845703125,0.05438232421875
1759697143834,884455619,25954,16,-0.141845703125,-0.85113525390625,-0.05987548828125
1759697143834,884455619,25954,17,0.015869140625,-1.16705322265625,-0.02008056640625
1759697143834,884455619,25954,18,-0.080322265625,-0.98443603515625,-0.00103759765625
1759697143834,884455619,25954,19,-0.1474609375,-0.96588134765625,-0.02130126953125
1759697143834,884455619,25954,20,-0.177001953125,-0.99615478515625,-0.00274658203125
1759697143834,884455619,25954,21,-0.100830078125,-1.00421142578125,-0.00177001953125
1759697143834,884455619,25954,22,-0.10400390625,-1.00909423828125,-0.01373291015625
1759697143834,884455619,25954,23,-0.106689453125,-0.99542236328125,0.00482177734375
1759697143834,884455619,25954,24,-0.12451171875,-1.00152587890625,-0.01226806640625
1759697143834,884455619,25954,25,-0.135986328125,-0.99371337890625,0.00897216796875
1759697143834,884455619,25954,26,-0.116943359375,-1.00054931640625,-0.01202392578125
1759697143834,884455619,25954,27,-0.1298828125,-0.99859619140625,-0.00811767578125
1759697143834,884455619,25954,28,-0.14697265625,-1.00274658203125,-0.01959228515625
1759697143834,884455619,25954,29,-0.131591796875,-0.99591064453125,0.00189208984375
1759697143834,884455619,25954,30,-0.1650390625,-0.99468994140625,0.01800537109375
1759697143834,884455619,25954,31,-0.176025390625,-1.06695556640625,0.04144287109375
1759697146370,884458163,25955,0,-0.13525390625,-0.92608642578125,0.08489990234375
1759697146370,884458163,25955,1,-0.100341796875,-0.94317626953125,0.08392333984375
1759697146370,884458163,25955,2,-0.146728515625,-0.93975830078125,-0.00909423828125
1759697146370,884458163,25955,3,-0.096923828125,-1.06158447265625,-0.01226806640625
1759697146370,884458163,25955,4,-0.167236328125,-1.01446533203125,0.01483154296875
1759697146370,884458163,25955,5,-0.114501953125,-0.99810791015625,-0.04229736328125
1759697146370,884458163,25955,6,-0.138671875,-1.00177001953125,0.00750732421875
1759697146370,884458163,25955,7,-0.126953125,-0.99542236328125,0.03143310546875
1759697146370,884458163,25955,8,-0.12646484375,-1.00250244140625,0.00164794921875
1759697146370,884458163,25955,9,-0.127197265625,-0.98516845703125,0.01776123046875
1759697146370,884458163,25955,10,-0.123291015625,-0.99420166015625,-0.00616455078125
1759697146370,884458163,25955,11,-0.127197265625,-1.00885009765625,0.01898193359375
1759697146370,884458163,25955,12,-0.1259765625,-0.99761962890625,0.01068115234375
1759697146370,884458163,25955,13,-0.119873046875,-0.99835205078125,0.00115966796875
1759697146370,884458163,25955,14,-0.125,-0.99151611328125,0.00872802734375
1759697146370,884458163,25955,15,-0.12353515625,-0.99957275390625,0.01507568359375
1759697146370,884458163,25955,16,-0.136962890625,-1.00250244140625,0.00994873046875
1759697146370,884458163,25955,17,-0.13818359375,-1.02032470703125,0.00238037109375
1759697146370,884458163,25955,18,-0.107421875,-0.97271728515625,0.02288818359375
1759697146370,884458163,25955,19,-0.114501953125,-1.00006103515625,0.05169677734375
1759697146370,884458163,25955,20,-0.115478515625,-1.05279541015625,0.06048583984375
1759697146370,884458163,25955,21,-0.153076171875,-0.94024658203125,0.12445068359375
1759697146370,884458163,25955,22,-0.073974609375,-0.97247314453125,0.09954833984375
1759697146370,884458163,25955,23,-0.083740234375,-1.00958251953125,0.08880615234375
1759697146370,884458163,25955,24,-0.048095703125,-0.99981689453125,0.13177490234375
1759697146370,884458163,25955,25,-0.078857421875,-0.97076416015625,0.10736083984375
1759697146370,884458163,25955,26,-0.073974609375,-0.92779541015625,0.11712646484375
1759697146370,884458163,25955,27,-0.114501953125,-1.05914306640625,0.01458740234375
1759697146370,884458163,25955,28,-0.1298828125,-0.96221923828125,0.01385498046875
1759697146370,884458163,25955,29,-0.132568359375,-1.02569580078125,-0.01544189453125
1759697146370,884458163,25955,30,-0.116455078125,-0.99468994140625,0.00994873046875
1759697146370,884458163,25955,31,-0.14794921875,-1.03033447265625,0.02801513671875
1759697148906,884460706,25956,0,-0.127685546875,-1.00225830078125,-0.01470947265625
1759697148906,884460706,25956,1,-0.077392578125,-0.98590087890625,0.03826904296875
1759697148906,884460706,25956,2,-0.113525390625,-0.98638916015625,0.03387451171875
1759697148906,884460706,25956,3,-0.1259765625,-1.00323486328125,0.04290771484375
1759697148906,884460706,25956,4,-0.11669921875,-0.98834228515625,0.05120849609375
1759697148906,884460706,25956,5,-0.094970703125,-0.99761962890625,0.02923583984375
1759697148906,884460706,25956,6,-0.093505859375,-1.00030517578125,0.05169677734375
1759697148906,884460706,25956,7,-0.1064453125,-0.98956298828125,0.03875732421875
1759697148906,884460706,25956,8,-0.09130859375,-1.00079345703125,0.03900146484375
1759697148906,884460706,25956,9,-0.09130859375,-0.99932861328125,0.04559326171875
1759697148906,884460706,25956,10,-0.09814453125,-0.99346923828125,0.04656982421875
1759697148906,884460706,25956,11,-0.091064453125,-1.00836181640625,0.03582763671875
1759697148906,884460706,25956,12,-0.09765625,-0.98663330078125,0.04754638671875
1759697148906,884460706,25956,13,-0.095458984375,-0.99835205078125,0.04046630859375
1759697148906,884460706,25956,14,-0.099609375,-1.00372314453125,0.04559326171875
1759697148906,884460706,25956,15,-0.0908203125,-1.01470947265625,0.07293701171875
1759697148906,884460706,25956,16,-0.094482421875,-0.98297119140625,0.10125732421875
1759697148906,884460706,25956,17,-0.08984375,-1.00445556640625,0.06048583984375
1759697148906,884460706,25956,18,-0.092529296875,-0.98712158203125,0.09051513671875
1759697148906,884460706,25956,19,-0.074951171875,-0.93951416015625,0.05780029296875
1759697148906,884460706,25956,20,-0.084228515625,-0.99224853515625,-0.04766845703125
1759697148906,884460706,25956,21,-0.071044921875,-1.04083251953125,0.02313232421875
1759697148906,884460706,25956,22,-0.1669921875,-0.99639892578125,0.04290771484375
1759697148906,884460706,25956,23,-0.120849609375,-0.99591064453125,0.01483154296875
1759697148906,884460706,25956,24,-0.10400390625,-1.00885009765625,-0.03326416015625
1759697148906,884460706,25956,25,-0.1181640625,-0.99591064453125,0.01287841796875
1759697148906,884460706,25956,26,-0.0947265625,-1.00250244140625,0.01043701171875
1759697148906,884460706,25956,27,-0.094970703125,-1.00006103515625,0.00311279296875
1759697148906,884460706,25956,28,-0.10791015625,-0.99249267578125,0.01678466796875
1759697148906,884460706,25956,29,-0.111083984375,-0.99615478515625,0.00994873046875
1759697148906,884460706,25956,30,-0.093505859375,-1.00494384765625,0.00555419921875
1759697148906,884460706,25956,31,-0.12109375,-1.00909423828125,0.02239990234375
1759697151441,884463249,25957,0,-0.128662109375,-0.99542236328125,-0.01348876953125
1759697151441,884463249,25957,1,-0.1201171875,-0.99371337890625,0.00872802734375
1759697151441,884463249,25957,2,-0.12744140625,-1.00128173828125,-6.103515625e-05
1759697151441,884463249,25957,3,-0.12255859375,-0.99005126953125,-0.00909423828125
1759697151441,884463249,25957,4,-0.112060546875,-1.01300048828125,0.00726318359375
1759697151441,884463249,25957,5,-0.10107421875,-1.00787353515625,-0.01153564453125
1759697151441,884463249,25957,6,-0.096923828125,-1.00811767578125,0.01629638671875
1759697151441,884463249,25957,7,-0.0771484375,-0.97491455078125,0.14349365234375
1759697151441,884463249,25957,8,-0.117431640625,-1.02740478515625,0.08319091796875
1759697151441,884463249,25957,9,-0.12890625,-0.97003173828125,0.04315185546875
1759697151441,884463249,25957,10,-0.078125,-0.94390869140625,0.08099365234375
1759697151441,884463249,25957,11,-0.11328125,-0.95855712890625,-0.08746337890625
1759697151441,884463249,25957,12,-0.10498046875,-1.05572509765625,0.01922607421875
1759697151441,884463249,25957,13,-0.12841796875,-1.02154541015625,-0.01055908203125
1759697151441,884463249,25957,14,-0.106689453125,-0.98419189453125,-0.02447509765625
1759697151441,884463249,25957,15,-0.103759765625,-1.00347900390625,-0.04034423828125
1759697151441,884463249,25957,16,-0.125732421875,-0.99542236328125,0.02069091796875
1759697151441,884463249,25957,17,-0.115234375,-0.99713134765625,-0.02716064453125
1759697151441,884463249,25957,18,-0.099365234375,-1.00323486328125,0.00384521484375
1759697151441,884463249,25957,19,-0.112060546875,-1.00177001953125,-0.00225830078125
1759697151441,884463249,25957,20,-0.115478515625,-0.99859619140625,-0.00982666015625
1759697151441,884463249,25957,21,-0.113525390625,-0.99664306640625,-0.00445556640625
1759697151441,884463249,25957,22,-0.12109375,-0.99102783203125,-0.01324462890625
1759697151441,884463249,25957,23,-0.104736328125,-1.01129150390625,0.01092529296875
1759697151441,884463249,25957,24,-0.109130859375,-0.99346923828125,-0.00054931640625
1759697151441,884463249,25957,25,-0.121826171875,-1.00274658203125,-0.00811767578125
1759697151441,884463249,25957,26,-0.12646484375,-0.99664306640625,-0.00469970703125
1759697151441,884463249,25957,27,-0.11669921875,-1.01324462890625,-0.01300048828125
1759697151441,884463249,25957,28,-0.10546875,-1.03424072265625,0.01751708984375
1759697151441,884463249,25957,29,-0.0947265625,-0.94512939453125,0.08270263671875
1759697151441,884463249,25957,30,-0.098388671875,-1.01934814453125,0.07366943359375
1759697151441,884463249,25957,31,-0.13330078125,-1.01666259765625,0.08489990234375
1759697153975,884465792,25958,0,-0.12890625,-0.88580322265625,0.01727294921875
1759697153975,884465792,25958,1,-0.02978515625,-1.06475830078125,-0.00177001953125
1759697153975,884465792,25958,2,-0.0849609375,-0.99810791015625,0.02996826171875
1759697153975,884465792,25958,3,-0.115478515625,-0.99371337890625,0.01922607421875
1759697153975,884465792,25958,4,-0.09423828125,-1.01300048828125,0.01214599609375
1759697153975,884465792,25958,5,-0.08544921875,-1.00323486328125,-0.00885009765625
1759697153975,884465792,25958,6,-0.081787109375,-1.00689697265625,0.01361083984375
1759697153975,884465792,25958,7,-0.081787109375,-0.99688720703125,0.01458740234375
1759697153975,884465792,25958,8,-0.102294921875,-0.99102783203125,-0.01422119140625
1759697153975,884465792,25958,9,-0.090576171875,-1.00592041015625,-0.00103759765625
1759697153975,884465792,25958,10,-0.087890625,-0.99981689453125,0.00140380859375
1759697153975,884465792,25958,11,-0.08154296875,-1.00640869140625,-0.01080322265625
1759697153975,884465792,25958,12,-0.0908203125,-0.99542236328125,-0.00103759765625
1759697153975,884465792,25958,13,-0.1103515625,-1.00518798828125,0.00775146484375
1759697153975,884465792,25958,14,-0.096435546875,-1.01739501953125,-0.01470947265625
1759697153975,884465792,25958,15,-0.054443359375,-1.02374267578125,0.02337646484375
1759697153975,884465792,25958,16,-0.10498046875,-0.98760986328125,0.07855224609375
1759697153975,884465792,25958,17,-0.07470703125,-0.99908447265625,0.07269287109375
1759697153975,884465792,25958,18,-0.085205078125,-0.98760986328125,0.09197998046875
1759697153975,884465792,25958,19,-0.094482421875,-0.91925048828125,0.05487060546875
1759697153975,884465792,25958,20,-0.04541015625,-1.05450439453125,-0.02227783203125
1759697153975,884465792,25958,21,-0.068359375,-0.98223876953125,0.02288818359375
1759697153975,884465792,25958,22,-0.105224609375,-1.01080322265625,0.02947998046875
1759697153975,884465792,25958,23,-0.101806640625,-1.00421142578125,0.00628662109375
1759697153975,884465792,25958,24,-0.0947265625,-0.99908447265625,0.02581787109375
1759697153975,884465792,25958,25,-0.0810546875,-0.99444580078125,0.00848388671875
1759697153975,884465792,25958,26,-0.072998046875,-1.00640869140625,0.03045654296875
1759697153975,884465792,25958,27,-0.095947265625,-0.99542236328125,0.03558349609375
1759697153975,884465792,25958,28,-0.087158203125,-1.00030517578125,0.01190185546875
1759697153975,884465792,25958,29,-0.0947265625,-1.00128173828125,0.02069091796875
1759697153975,884465792,25958,30,-0.081787109375,-1.03106689453125,0.02215576171875
1759697153975,884465792,25958,31,-0.085205078125,-0.97979736328125,0.07977294921875
1759697156511,884468335,25959,0,-0.070068359375,-0.98834228515625,0.03778076171875
1759697156511,884468335,25959,1,-0.095947265625,-1.02935791015625,0.08221435546875
1759697156511,884468335,25959,2,-0.08349609375,-0.99420166015625,0.06683349609375
1759697156511,884468335,25959,3,-0.07470703125,-0.96978759765625,0.09344482421875
1759697156511,884468335,25959,4,-0.146484375,-0.84259033203125,0.04486083984375
1759697156511,884468335,25959,5,-0.037109375,-1.11871337890625,-0.05548095703125
1759697156511,884468335,25959,6,-0.086181640625,-1.01666259765625,-0.00665283203125
1759697156511,884468335,25959,7,-0.098876953125,-1.01300048828125,0.01361083984375
1759697156511,884468335,25959,8,-0.062255859375,-1.01446533203125,-0.01593017578125
1759697156511,884468335,25959,9,-0.101318359375,-0.98760986328125,0.07562255859375
1759697156511,884468335,25959,10,-0.07958984375,-0.99591064453125,0.02459716796875
1759697156511,884468335,25959,11,-0.078369140625,-0.98565673828125,0.04925537109375
1759697156511,884468335,25959,12,-0.119140625,-0.99517822265625,0.05780029296875
1759697156511,884468335,25959,13,-0.0791015625,-1.00738525390625,0.00677490234375
1759697156511,884468335,25959,14,-0.104248046875,-0.98077392578125,0.05072021484375
1759697156511,884468335,25959,15,-0.110595703125,-1.01568603515625,0.01409912109375
1759697156511,884468335,25959,16,-0.152587890625,-0.99078369140625,0.01556396484375
1759697156511,884468335,25959,17,-0.140869140625,-0.99615478515625,0.01605224609375
1759697156511,884468335,25959,18,-0.11767578125,-1.00738525390625,0.03460693359375
1759697156511,884468335,25959,19,-0.112060546875,-1.01715087890625,0.05560302734375
1759697156511,884468335,25959,20,-0.098388671875,-0.97784423828125,0.01019287109375
1759697156511,884468335,25959,21,-0.116455078125,-0.99151611328125,0.09442138671875
1759697156511,884468335,25959,22,-0.102783203125,-1.01080322265625,0.13006591796875
1759697156511,884468335,25959,23,-0.093994140625,-0.97393798828125,0.05999755859375
1759697156511,884468335,25959,24,-0.103515625,-0.92950439453125,0.04510498046875
1759697156511,884468335,25959,25,-0.05517578125,-1.07183837890625,0.04290771484375
1759697156511,884468335,25959,26,-0.08154296875,-0.96563720703125,0.07537841796875
1759697156511,884468335,25959,27,-0.08935546875,-1.00372314453125,0.06927490234375
1759697156511,884468335,25959,28,-0.10498046875,-0.99395751953125,0.04681396484375
1759697156511,884468335,25959,29,-0.09375,-1.00836181640625,0.03485107421875
1759697156511,884468335,25959,30,-0.095947265625,-0.98590087890625,0.08953857421875
1759697156511,884468335,25959,31,-0.0859375,-0.99884033203125,0.04998779296875
1759697159045,884470878,25960,0,-0.097900390625,-0.98809814453125,0.05731201171875
1759697159045,884470878,25960,1,-0.0859375,-0.99859619140625,0.04779052734375
1759697159045,884470878,25960,2,-0.0771484375,-1.01983642578125,0.02337646484375
1759697159045,884470878,25960,3,-0.0751953125,-0.98907470703125,0.05462646484375
1759697159045,884470878,25960,4,-0.08837890625,-1.01812744140625,0.07000732421875
1759697159045,884470878,25960,5,-0.0986328125,-0.99761962890625,0.13421630859375
1759697159045,884470878,25960,6,-0.07958984375,-0.97784423828125,0.08856201171875
1759697159045,884470878,25960,7,-0.11767578125,-0.96881103515625,0.04608154296875
1759697159045,884470878,25960,8,-0.0947265625,-1.01055908203125,-0.00811767578125
1759697159045,884470878,25960,9,-0.09716796875,-0.99542236328125,0.00604248046875
1759697159045,884470878,25960,10,-0.1123046875,-1.00030517578125,0.05242919921875
1759697159045,884470878,25960,11,-0.09765625,-1.00445556640625,-0.00714111328125
1759697159045,884470878,25960,12,-0.120849609375,-0.99859619140625,0.04583740234375
1759697159045,884470878,25960,13,-0.122314453125,-0.98199462890625,0.01654052734375
1759697159045,884470878,25960,14,-0.102783203125,-1.00860595703125,0.02191162109375
1759697159045,884470878,25960,15,-0.110595703125,-0.98931884765625,0.01483154296875
1759697159045,884470878,25960,16,-0.106201171875,-1.00372314453125,0.02459716796875
1759697159045,884470878,25960,17,-0.104248046875,-1.00079345703125,0.02337646484375
1759697159045,884470878,25960,18,-0.1103515625,-0.99322509765625,0.01458740234375
1759697159045,884470878,25960,19,-0.10986328125,-1.00347900390625,0.02484130859375
1759697159045,884470878,25960,20,-0.08837890625,-1.00177001953125,0.02557373046875
1759697159045,884470878,25960,21,-0.085205078125,-1.00274658203125,0.08319091796875
1759697159045,884470878,25960,22,-0.06640625,-1.01763916015625,0.01385498046875
1759697159045,884470878,25960,23,-0.0859375,-1.00225830078125,0.02362060546875
1759697159045,884470878,25960,24,-0.115966796875,-0.98150634765625,0.03021240234375
1759697159045,884470878,25960,25,-0.14111328125,-0.88116455078125,0.00775146484375
1759697159045,884470878,25960,26,-0.045654296875,-1.12042236328125,0.00360107421875
1759697159045,884470878,25960,27,-0.0986328125,-0.98956298828125,-0.06134033203125
1759697159045,884470878,25960,28,-0.12158203125,-0.99957275390625,0.00921630859375
1759697159045,884470878,25960,29,-0.111083984375,-1.00421142578125,0.02337646484375
