receivedPhoneTimestamp,respeckTimestamp,packetSeqNum,sampleSeqNum,accelX,accelY,accelZ
1759327540901,515326599,6735,20,-0.1220703125,-1.02105712890625,0.08514404296875
1759327540901,515326599,6735,21,-0.119873046875,-1.02154541015625,0.08416748046875
1759327540901,515326599,6735,22,-0.12353515625,-1.01934814453125,0.08001708984375
1759327540901,515326599,6735,23,-0.123046875,-1.02252197265625,0.07781982421875
1759327540901,515326599,6735,24,-0.120849609375,-1.02545166015625,0.08123779296875
1759327540901,515326599,6735,25,-0.11962890625,-1.02276611328125,0.08489990234375
1759327540901,515326599,6735,26,-0.118408203125,-1.02081298828125,0.08245849609375
1759327540901,515326599,6735,27,-0.109375,-1.02545166015625,0.07611083984375
1759327540901,515326599,6735,28,-0.11181640625,-1.02691650390625,0.07489013671875
1759327540901,515326599,6735,29,-0.1162109375,-1.02838134765625,0.07440185546875
1759327540901,515326599,6735,30,-0.118896484375,-1.01934814453125,0.07659912109375
1759327540901,515326599,6735,31,-0.11376953125,-1.01641845703125,0.08319091796875
1759327543391,515329136,6736,0,-0.105712890625,-1.01983642578125,0.08172607421875
1759327543391,515329136,6736,1,-0.100830078125,-1.02374267578125,0.07806396484375
1759327543391,515329136,6736,2,-0.10595703125,-1.02545166015625,0.07098388671875
1759327543391,515329136,6736,3,-0.103515625,-1.02447509765625,0.08270263671875
1759327543391,515329136,6736,4,-0.1044921875,-1.02178955078125,0.08319091796875
1759327543391,515329136,6736,5,-0.099365234375,-1.01861572265625,0.08197021484375
1759327543391,515329136,6736,6,-0.0927734375,-1.02178955078125,0.08099365234375
1759327543391,515329136,6736,7,-0.099365234375,-1.02276611328125,0.07781982421875
1759327543391,515329136,6736,8,-0.1015625,-1.02203369140625,0.08489990234375
1759327543391,515329136,6736,9,-0.10009765625,-1.02374267578125,0.08636474609375
1759327543391,515329136,6736,10,-0.1025390625,-1.02252197265625,0.08123779296875
1759327543391,515329136,6736,11,-0.10205078125,-1.02227783203125,0.08319091796875
1759327543391,515329136,6736,12,-0.1015625,-1.02642822265625,0.07562255859375
1759327543391,515329136,6736,13,-0.10205078125,-1.02081298828125,0.07781982421875
1759327543391,515329136,6736,14,-0.102294921875,-1.02471923828125,0.08026123046875
1759327543391,515329136,6736,15,-0.10205078125,-1.02008056640625,0.08734130859375
1759327543391,515329136,6736,16,-0.110107421875,-1.02154541015625,0.08953857421875
1759327543391,515329136,6736,17,-0.124755859375,-1.03961181640625,0.10980224609375
1759327543391,515329136,6736,18,-0.114990234375,-1.01080322265625,0.09100341796875
1759327543391,515329136,6736,19,-0.119384765625,-1.01470947265625,0.08294677734375
1759327543391,515329136,6736,20,-0.111328125,-1.01275634765625,0.07659912109375
1759327543391,515329136,6736,21,-0.111328125,-1.02056884765625,0.07611083984375
1759327543391,515329136,6736,22,-0.110595703125,-1.02862548828125,0.06756591796875
1759327543391,515329136,6736,23,-0.105712890625,-1.03009033203125,0.06756591796875
1759327543391,515329136,6736,24,-0.107421875,-1.02740478515625,0.06683349609375
1759327543391,515329136,6736,25,-0.116455078125,-1.01397705078125,0.06976318359375
1759327543391,515329136,6736,26,-0.123046875,-1.03253173828125,0.07855224609375
1759327543391,515329136,6736,27,-0.118896484375,-1.02349853515625,0.06585693359375
1759327543391,515329136,6736,28,-0.116943359375,-1.01959228515625,0.06463623046875
1759327543391,515329136,6736,29,-0.11767578125,-1.02716064453125,0.07244873046875
1759327543391,515329136,6736,30,-0.12060546875,-1.01690673828125,0.06903076171875
1759327543391,515329136,6736,31,-0.120849609375,-1.02667236328125,0.07415771484375
1759327546121,515331673,6737,0,-0.115478515625,-1.02203369140625,0.06634521484375
1759327546121,515331673,6737,1,-0.119384765625,-1.02471923828125,0.05999755859375
1759327546121,515331673,6737,2,-0.122802734375,-1.02545166015625,0.06683349609375
1759327546121,515331673,6737,3,-0.122802734375,-1.02325439453125,0.07196044921875
1759327546121,515331673,6737,4,-0.117919921875,-1.02349853515625,0.06585693359375
1759327546121,515331673,6737,5,-0.116943359375,-1.01885986328125,0.06317138671875
1759327546121,515331673,6737,6,-0.104248046875,-1.02349853515625,0.05413818359375
1759327546121,515331673,6737,7,-0.1044921875,-1.02301025390625,0.04803466796875
1759327546121,515331673,6737,8,-0.10107421875,-1.03033447265625,0.04974365234375
1759327546121,515331673,6737,9,-0.10009765625,-1.03350830078125,0.04266357421875
1759327546121,515331673,6737,10,-0.097412109375,-1.03082275390625,0.03778076171875
1759327546121,515331673,6737,11,-0.09130859375,-1.03350830078125,0.03900146484375
1759327546121,515331673,6737,12,-0.088134765625,-1.02789306640625,0.04339599609375
1759327546121,515331673,6737,13,-0.08984375,-1.02667236328125,0.03314208984375
1759327546121,515331673,6737,14,-0.09423828125,-1.03277587890625,0.03924560546875
1759327546121,515331673,6737,15,-0.09814453125,-1.03448486328125,0.04168701171875
1759327546121,515331673,6737,16,-0.0966796875,-1.02789306640625,0.04217529296875
1759327546121,515331673,6737,17,-0.102783203125,-1.02423095703125,0.05853271484375
1759327546121,515331673,6737,18,-0.106689453125,-1.02593994140625,0.03729248046875
1759327546121,515331673,6737,19,-0.094970703125,-1.02081298828125,0.03948974609375
1759327546121,515331673,6737,20,-0.097900390625,-1.02789306640625,0.04241943359375
1759327546121,515331673,6737,21,-0.10009765625,-1.02447509765625,0.04364013671875
1759327546121,515331673,6737,22,-0.10546875,-1.02642822265625,0.04388427734375
1759327546121,515331673,6737,23,-0.10595703125,-1.02984619140625,0.04852294921875
1759327546121,515331673,6737,24,-0.107421875,-1.02911376953125,0.04119873046875
1759327546121,515331673,6737,25,-0.101318359375,-1.02667236328125,0.03997802734375
1759327546121,515331673,6737,26,-0.1064453125,-1.02496337890625,0.04852294921875
1759327546121,515331673,6737,27,-0.107177734375,-1.03082275390625,0.04632568359375
1759327546121,515331673,6737,28,-0.105712890625,-1.02618408203125,0.04827880859375
1759327546121,515331673,6737,29,-0.10595703125,-1.02520751953125,0.04656982421875
1759327546121,515331673,6737,30,-0.108154296875,-1.02642822265625,0.04901123046875
1759327546121,515331673,6737,31,-0.110107421875,-1.03033447265625,0.05145263671875
1759327548864,515334210,6738,0,-0.107177734375,-1.02935791015625,0.04730224609375
1759327548864,515334210,6738,1,-0.110595703125,-1.02545166015625,0.05023193359375
1759327548864,515334210,6738,2,-0.112548828125,-1.02569580078125,0.05487060546875
1759327548864,515334210,6738,3,-0.11083984375,-1.02593994140625,0.04534912109375
1759327548864,515334210,6738,4,-0.109619140625,-1.02374267578125,0.04510498046875
1759327548864,515334210,6738,5,-0.110107421875,-1.02764892578125,0.04754638671875
1759327548864,515334210,6738,6,-0.1083984375,-1.02569580078125,0.04437255859375
1759327548864,515334210,6738,7,-0.112548828125,-1.02520751953125,0.05169677734375
1759327548864,515334210,6738,8,-0.110595703125,-1.02667236328125,0.05487060546875
1759327548864,515334210,6738,9,-0.103271484375,-1.02813720703125,0.04998779296875
1759327548864,515334210,6738,10,-0.094482421875,-1.02716064453125,0.04534912109375
1759327548864,515334210,6738,11,-0.093017578125,-1.02935791015625,0.04852294921875
1759327548864,515334210,6738,12,-0.1123046875,-1.03546142578125,0.04632568359375
1759327548864,515334210,6738,13,-0.095947265625,-1.02716064453125,0.04681396484375
1759327548864,515334210,6738,14,-0.093505859375,-1.02935791015625,0.04412841796875
1759327548864,515334210,6738,15,-0.081787109375,-1.03204345703125,0.04559326171875
1759327548864,515334210,6738,16,-0.08154296875,-1.03839111328125,0.05267333984375
1759327548864,515334210,6738,17,-0.088623046875,-1.02813720703125,0.05560302734375
1759327548864,515334210,6738,18,-0.0830078125,-1.01934814453125,0.05853271484375
1759327548864,515334210,6738,19,-0.08251953125,-1.02203369140625,0.06292724609375
1759327548864,515334210,6738,20,-0.07080078125,-1.01959228515625,0.05731201171875
1759327548864,515334210,6738,21,-0.080322265625,-1.02178955078125,0.06170654296875
1759327548864,515334210,6738,22,-0.072021484375,-1.01470947265625,0.06610107421875
1759327548864,515334210,6738,23,-0.0634765625,-1.03009033203125,0.05657958984375
1759327548864,515334210,6738,24,-0.05322265625,-1.02838134765625,0.04974365234375
1759327548864,515334210,6738,25,-0.050537109375,-1.03009033203125,0.05096435546875
1759327548864,515334210,6738,26,-0.054443359375,-1.02740478515625,0.04412841796875
1759327548864,515334210,6738,27,-0.057373046875,-1.03594970703125,0.03607177734375
1759327548864,515334210,6738,28,-0.064453125,-1.03619384765625,0.03558349609375
1759327548864,515334210,6738,29,-0.072265625,-1.04010009765625,0.03826904296875
1759327548864,515334210,6738,30,-0.069091796875,-1.02691650390625,0.04193115234375
1759327548864,515334210,6738,31,-0.078857421875,-1.03350830078125,0.05780029296875
1759327551194,515336747,6739,0,-0.07373046875,-1.02423095703125,0.04925537109375
1759327551194,515336747,6739,1,-0.065673828125,-1.03399658203125,0.04998779296875
1759327551194,515336747,6739,2,-0.06591796875,-1.02984619140625,0.04461669921875
1759327551194,515336747,6739,3,-0.06298828125,-1.02789306640625,0.04803466796875
1759327551194,515336747,6739,4,-0.073974609375,-1.03643798828125,0.04974365234375
1759327551194,515336747,6739,5,-0.067138671875,-1.02471923828125,0.04510498046875
1759327551194,515336747,6739,6,-0.063232421875,-1.02960205078125,0.03826904296875
1759327551194,515336747,6739,7,-0.0693359375,-1.02838134765625,0.04412841796875
1759327551194,515336747,6739,8,-0.071044921875,-1.02740478515625,0.04803466796875
1759327551194,515336747,6739,9,-0.068603515625,-1.02349853515625,0.04559326171875
1759327551194,515336747,6739,10,-0.089111328125,-1.03302001953125,0.06805419921875
1759327551194,515336747,6739,11,-0.062255859375,-1.02838134765625,0.03997802734375
1759327551194,515336747,6739,12,-0.056640625,-1.03375244140625,0.03240966796875
1759327551194,515336747,6739,13,-0.06640625,-1.02862548828125,0.02923583984375
1759327551194,515336747,6739,14,-0.068603515625,-1.02740478515625,0.03851318359375
1759327551194,515336747,6739,15,-0.080810546875,-1.03228759765625,0.05242919921875
1759327551194,515336747,6739,16,-0.0693359375,-1.03302001953125,0.04632568359375
1759327551194,515336747,6739,17,-0.05810546875,-1.03765869140625,0.03460693359375
1759327551194,515336747,6739,18,-0.064453125,-1.02862548828125,0.03631591796875
1759327551194,515336747,6739,19,-0.0703125,-1.02545166015625,0.03729248046875
1759327551194,515336747,6739,20,-0.068603515625,-1.01837158203125,0.07293701171875
1759327551194,515336747,6739,21,-0.091796875,-1.03863525390625,0.05340576171875
1759327551194,515336747,6739,22,-0.071533203125,-1.04302978515625,0.03240966796875
1759327551194,515336747,6739,23,-0.066162109375,-1.02740478515625,0.04583740234375
1759327551194,515336747,6739,24,-0.068115234375,-1.02764892578125,0.03411865234375
1759327551194,515336747,6739,25,-0.072265625,-1.01324462890625,0.02264404296875
1759327551194,515336747,6739,26,-0.0703125,-1.03082275390625,0.02508544921875
1759327551194,515336747,6739,27,-0.06591796875,-1.04205322265625,0.00726318359375
1759327551194,515336747,6739,28,-0.064453125,-1.03570556640625,0.02020263671875
1759327551194,515336747,6739,29,-0.06298828125,-1.03253173828125,0.02142333984375
1759327551194,515336747,6739,30,-0.0673828125,-1.03228759765625,0.01678466796875
1759327551194,515336747,6739,31,-0.067626953125,-1.01495361328125,0.02288818359375
1759327553726,515339284,6740,0,-0.079345703125,-1.05279541015625,0.02313232421875
1759327553726,515339284,6740,1,-0.050048828125,-1.02471923828125,0.01605224609375
1759327553726,515339284,6740,2,-0.03564453125,-1.04034423828125,-0.00836181640625
1759327553726,515339284,6740,3,-0.053466796875,-1.02740478515625,0.00115966796875
1759327553726,515339284,6740,4,-0.064453125,-1.02984619140625,0.01531982421875
1759327553726,515339284,6740,5,-0.052001953125,-1.03765869140625,0.00946044921875
1759327553726,515339284,6740,6,-0.048095703125,-1.03546142578125,0.01092529296875
1759327553726,515339284,6740,7,-0.05078125,-1.03521728515625,0.02435302734375
1759327553726,515339284,6740,8,-0.050537109375,-1.03350830078125,0.02508544921875
1759327553726,515339284,6740,9,-0.056396484375,-1.02593994140625,0.02215576171875
1759327553726,515339284,6740,10,-0.052734375,-1.03448486328125,0.02215576171875
1759327553726,515339284,6740,11,-0.059326171875,-1.03082275390625,0.03094482421875
1759327553726,515339284,6740,12,-0.057861328125,-1.02862548828125,0.03192138671875
1759327553726,515339284,6740,13,-0.05859375,-1.03009033203125,0.03631591796875
1759327553726,515339284,6740,14,-0.0625,-1.03472900390625,0.03363037109375
1759327553726,515339284,6740,15,-0.067138671875,-1.02984619140625,0.03851318359375
1759327553726,515339284,6740,16,-0.072509765625,-1.03863525390625,0.04486083984375
1759327553726,515339284,6740,17,-0.06689453125,-1.04034423828125,0.03753662109375
1759327553726,515339284,6740,18,-0.068359375,-1.02105712890625,0.05218505859375
1759327553726,515339284,6740,19,-0.062255859375,-1.03741455078125,0.04168701171875
1759327553726,515339284,6740,20,-0.0693359375,-1.02862548828125,0.04803466796875
1759327553726,515339284,6740,21,-0.063232421875,-1.02276611328125,0.03558349609375
1759327553726,515339284,6740,22,-0.069580078125,-1.02618408203125,0.04193115234375
1759327553726,515339284,6740,23,-0.074951171875,-1.03106689453125,0.03656005859375
1759327553726,515339284,6740,24,-0.069580078125,-1.03717041015625,0.03314208984375
1759327553726,515339284,6740,25,-0.072265625,-1.02813720703125,0.03997802734375
1759327553726,515339284,6740,26,-0.075927734375,-1.02984619140625,0.04681396484375
1759327553726,515339284,6740,27,-0.08349609375,-1.02862548828125,0.04681396484375
1759327553726,515339284,6740,28,-0.072021484375,-1.02667236328125,0.04486083984375
1759327553726,515339284,6740,29,-0.0732421875,-1.03399658203125,0.05316162109375
1759327553726,515339284,6740,30,-0.077392578125,-1.02496337890625,0.04779052734375
1759327553726,515339284,6740,31,-0.0751953125,-1.02374267578125,0.04852294921875
1759327556262,515341821,6741,0,-0.07177734375,-1.03155517578125,0.05438232421875
1759327556262,515341821,6741,1,-0.084716796875,-1.02716064453125,0.05438232421875
1759327556262,515341821,6741,2,-0.080078125,-1.02911376953125,0.05682373046875
1759327556262,515341821,6741,3,-0.086181640625,-1.02838134765625,0.05804443359375
1759327556262,515341821,6741,4,-0.083984375,-1.03472900390625,0.05853271484375
1759327556262,515341821,6741,5,-0.086181640625,-1.02667236328125,0.04656982421875
1759327556262,515341821,6741,6,-0.052490234375,-1.02081298828125,0.05560302734375
1759327556262,515341821,6741,7,-0.078125,-1.04083251953125,0.05975341796875
1759327556262,515341821,6741,8,-0.07568359375,-1.02642822265625,0.05145263671875
1759327556262,515341821,6741,9,-0.06640625,-1.02398681640625,0.05804443359375
1759327556262,515341821,6741,10,-0.062744140625,-1.02642822265625,0.04779052734375
1759327556262,515341821,6741,11,-0.109375,-1.03692626953125,0.06561279296875
1759327556262,515341821,6741,12,-0.0615234375,-1.00787353515625,0.06121826171875
1759327556262,515341821,6741,13,-0.0927734375,-1.03863525390625,0.06732177734375
1759327556262,515341821,6741,14,-0.0888671875,-1.02935791015625,0.06854248046875
1759327556262,515341821,6741,15,-0.085693359375,-1.02252197265625,0.06048583984375
1759327556262,515341821,6741,16,-0.07373046875,-1.02764892578125,0.04876708984375
1759327556262,515341821,6741,17,-0.08154296875,-1.02764892578125,0.05535888671875
1759327556262,515341821,6741,18,-0.075439453125,-1.02496337890625,0.05609130859375
1759327556262,515341821,6741,19,-0.0966796875,-1.03570556640625,0.06488037109375
1759327556262,515341821,6741,20,-0.084228515625,-1.01837158203125,0.05609130859375
1759327556262,515341821,6741,21,-0.0927734375,-1.02423095703125,0.05364990234375
1759327556262,515341821,6741,22,-0.087890625,-1.02398681640625,0.06439208984375
1759327556262,515341821,6741,23,-0.095703125,-1.03179931640625,0.06854248046875
1759327556262,515341821,6741,24,-0.096923828125,-1.02789306640625,0.05584716796875
1759327556262,515341821,6741,25,-0.095947265625,-1.02569580078125,0.06634521484375
1759327556262,515341821,6741,26,-0.09326171875,-1.02423095703125,0.07147216796875
1759327556262,515341821,6741,27,-0.09814453125,-1.02276611328125,0.04901123046875
1759327556262,515341821,6741,28,-0.10400390625,-1.02716064453125,0.04534912109375
1759327556262,515341821,6741,29,-0.1005859375,-1.03814697265625,0.04656982421875
1759327556262,515341821,6741,30,-0.095947265625,-1.02716064453125,0.05780029296875
1759327556262,515341821,6741,31,-0.08935546875,-1.02301025390625,0.06048583984375
1759327558795,515344358,6742,0,-0.087646484375,-1.03277587890625,0.04730224609375
1759327558795,515344358,6742,1,-0.0947265625,-1.03106689453125,0.04705810546875
1759327558795,515344358,6742,2,-0.103759765625,-1.02740478515625,0.04949951171875
1759327558795,515344358,6742,3,-0.09814453125,-1.02862548828125,0.04559326171875
1759327558795,515344358,6742,4,-0.08740234375,-1.02203369140625,0.05267333984375
1759327558795,515344358,6742,5,-0.090576171875,-1.02764892578125,0.05120849609375
1759327558795,515344358,6742,6,-0.091552734375,-1.02935791015625,0.04779052734375
1759327558795,515344358,6742,7,-0.098388671875,-1.03009033203125,0.05242919921875
1759327558795,515344358,6742,8,-0.091064453125,-1.02447509765625,0.04681396484375
1759327558795,515344358,6742,9,-0.093505859375,-1.03106689453125,0.05804443359375
1759327558795,515344358,6742,10,-0.090576171875,-1.03082275390625,0.05169677734375
1759327558795,515344358,6742,11,-0.0927734375,-1.03082275390625,0.05267333984375
1759327558795,515344358,6742,12,-0.091064453125,-1.02154541015625,0.05023193359375
1759327558795,515344358,6742,13,-0.09326171875,-1.03228759765625,0.05047607421875
1759327558795,515344358,6742,14,-0.0966796875,-1.03375244140625,0.04217529296875
1759327558795,515344358,6742,15,-0.08837890625,-1.02618408203125,0.04901123046875
1759327558795,515344358,6742,16,-0.09619140625,-1.02496337890625,0.05511474609375
1759327558795,515344358,6742,17,-0.097412109375,-1.02862548828125,0.04559326171875
1759327558795,515344358,6742,18,-0.094482421875,-1.03448486328125,0.05047607421875
1759327558795,515344358,6742,19,-0.099853515625,-1.02764892578125,0.05999755859375
1759327558795,515344358,6742,20,-0.098876953125,-1.02789306640625,0.07049560546875
1759327558795,515344358,6742,21,-0.094970703125,-1.01812744140625,0.06292724609375
1759327558795,515344358,6742,22,-0.095947265625,-1.02935791015625,0.07025146484375
1759327558795,515344358,6742,23,-0.08544921875,-1.02593994140625,0.06439208984375
1759327558795,515344358,6742,24,-0.093017578125,-1.01544189453125,0.06048583984375
1759327558795,515344358,6742,25,-0.08984375,-1.02496337890625,0.06707763671875
1759327558795,515344358,6742,26,-0.08251953125,-1.02691650390625,0.06024169921875
1759327558795,515344358,6742,27,-0.081298828125,-1.03009033203125,0.05731201171875
1759327558795,515344358,6742,28,-0.08642578125,-1.02227783203125,0.05926513671875
1759327558795,515344358,6742,29,-0.088134765625,-1.02667236328125,0.06048583984375
1759327558795,515344358,6742,30,-0.0810546875,-1.02496337890625,0.06610107421875
1759327558795,515344358,6742,31,-0.084716796875,-1.01910400390625,0.06512451171875
1759327561332,515346895,6743,0,-0.082763671875,-1.03155517578125,0.06268310546875
1759327561332,515346895,6743,1,-0.08984375,-1.02642822265625,0.07318115234375
1759327561332,515346895,6743,2,-0.0908203125,-1.02008056640625,0.06707763671875
1759327561332,515346895,6743,3,-0.08984375,-1.02496337890625,0.06634521484375
1759327561332,515346895,6743,4,-0.094970703125,-1.02667236328125,0.06024169921875
1759327561332,515346895,6743,5,-0.0908203125,-1.02862548828125,0.06243896484375
1759327561332,515346895,6743,6,-0.09912109375,-1.02984619140625,0.06683349609375
1759327561332,515346895,6743,7,-0.088134765625,-1.02130126953125,0.06365966796875
1759327561332,515346895,6743,8,-0.09130859375,-1.02227783203125,0.05975341796875
1759327561332,515346895,6743,9,-0.0947265625,-1.03082275390625,0.06414794921875
1759327561332,515346895,6743,10,-0.099609375,-1.02105712890625,0.06951904296875
1759327561332,515346895,6743,11,-0.098388671875,-1.02374267578125,0.07366943359375
1759327561332,515346895,6743,12,-0.09375,-1.02545166015625,0.07098388671875
1759327561332,515346895,6743,13,-0.09716796875,-1.02423095703125,0.07025146484375
1759327561332,515346895,6743,14,-0.099609375,-1.02838134765625,0.06170654296875
1759327561332,515346895,6743,15,-0.0947265625,-1.02349853515625,0.06243896484375
1759327561332,515346895,6743,16,-0.09521484375,-1.03204345703125,0.07415771484375
1759327561332,515346895,6743,17,-0.098876953125,-1.02325439453125,0.05535888671875
1759327561332,515346895,6743,18,-0.094482421875,-1.02862548828125,0.04730224609375
1759327561332,515346895,6743,19,-0.095458984375,-1.03082275390625,0.05853271484375
1759327561332,515346895,6743,20,-0.099853515625,-1.02642822265625,0.06243896484375
1759327561332,515346895,6743,21,-0.098876953125,-1.02740478515625,0.05682373046875
1759327561332,515346895,6743,22,-0.093505859375,-1.02374267578125,0.05584716796875
1759327561332,515346895,6743,23,-0.10009765625,-1.02593994140625,0.05535888671875
1759327561332,515346895,6743,24,-0.104736328125,-1.02789306640625,0.05584716796875
1759327561332,515346895,6743,25,-0.0966796875,-1.03057861328125,0.05657958984375
1759327561332,515346895,6743,26,-0.102783203125,-1.02569580078125,0.05950927734375
1759327561332,515346895,6743,27,-0.10546875,-1.02105712890625,0.04925537109375
1759327561332,515346895,6743,28,-0.1083984375,-1.02935791015625,0.05633544921875
1759327561332,515346895,6743,29,-0.10791015625,-1.02276611328125,0.06170654296875
1759327561332,515346895,6743,30,-0.081787109375,-1.03033447265625,0.04998779296875
1759327561332,515346895,6743,31,-0.09814453125,-1.03057861328125,0.04290771484375
1759327563865,515349432,6744,0,-0.101806640625,-1.02667236328125,0.04534912109375
1759327563865,515349432,6744,1,-0.104248046875,-1.02935791015625,0.03900146484375
1759327563865,515349432,6744,2,-0.10205078125,-1.02520751953125,0.04461669921875
1759327563865,515349432,6744,3,-0.100830078125,-1.03106689453125,0.04779052734375
1759327563865,515349432,6744,4,-0.10400390625,-1.02447509765625,0.04901123046875
1759327563865,515349432,6744,5,-0.12353515625,-1.01983642578125,0.06756591796875
1759327563865,515349432,6744,6,-0.124267578125,-1.02325439453125,0.07440185546875
1759327563865,515349432,6744,7,-0.1142578125,-1.03033447265625,0.06976318359375
1759327563865,515349432,6744,8,-0.1025390625,-1.03204345703125,0.07147216796875
1759327563865,515349432,6744,9,-0.106689453125,-1.01910400390625,0.06976318359375
1759327563865,515349432,6744,10,-0.101318359375,-1.02130126953125,0.06317138671875
1759327563865,515349432,6744,11,-0.095703125,-1.02520751953125,0.05242919921875
1759327563865,515349432,6744,12,-0.094970703125,-1.01788330078125,0.05535888671875
1759327563865,515349432,6744,13,-0.096923828125,-1.02008056640625,0.04656982421875
1759327563865,515349432,6744,14,-0.092041015625,-1.02838134765625,0.04949951171875
1759327563865,515349432,6744,15,-0.07958984375,-1.04254150390625,0.04217529296875
1759327563865,515349432,6744,16,-0.073486328125,-1.02984619140625,0.03997802734375
1759327563865,515349432,6744,17,-0.0908203125,-1.03521728515625,0.04095458984375
1759327563865,515349432,6744,18,-0.09375,-1.03326416015625,0.04119873046875
1759327563865,515349432,6744,19,-0.087158203125,-1.03009033203125,0.03118896484375
1759327563865,515349432,6744,20,-0.084716796875,-1.03228759765625,0.03363037109375
1759327563865,515349432,6744,21,-0.081298828125,-1.03057861328125,0.02972412109375
1759327563865,515349432,6744,22,-0.082275390625,-1.02862548828125,0.02679443359375
1759327563865,515349432,6744,23,-0.085205078125,-1.02789306640625,0.02777099609375
1759327563865,515349432,6744,24,-0.083984375,-1.03228759765625,0.02386474609375
1759327563865,515349432,6744,25,-0.079833984375,-1.03546142578125,0.02069091796875
1759327563865,515349432,6744,26,-0.084716796875,-1.03253173828125,0.02215576171875
1759327563865,515349432,6744,27,-0.08642578125,-1.03179931640625,0.02459716796875
1759327563865,515349432,6744,28,-0.089599609375,-1.03741455078125,0.02362060546875
1759327563865,515349432,6744,29,-0.0888671875,-1.03179931640625,0.02679443359375
1759327563865,515349432,6744,30,-0.0849609375,-1.03399658203125,0.03045654296875
1759327563865,515349432,6744,31,-0.093505859375,-1.02545166015625,0.03558349609375
1759327566402,515351969,6745,0,-0.093505859375,-1.03326416015625,0.03753662109375
1759327566402,515351969,6745,1,-0.091064453125,-1.03253173828125,0.03485107421875
1759327566402,515351969,6745,2,-0.085205078125,-1.02593994140625,0.03631591796875
1759327566402,515351969,6745,3,-0.097412109375,-1.02911376953125,0.03436279296875
1759327566402,515351969,6745,4,-0.083984375,-1.02862548828125,0.03704833984375
1759327566402,515351969,6745,5,-0.086669921875,-1.02886962890625,0.03436279296875
1759327566402,515351969,6745,6,-0.084716796875,-1.02789306640625,0.03778076171875
1759327566402,515351969,6745,7,-0.09326171875,-1.03131103515625,0.03680419921875
1759327566402,515351969,6745,8,-0.0849609375,-1.02862548828125,0.03778076171875
1759327566402,515351969,6745,9,-0.08740234375,-1.02960205078125,0.04095458984375
1759327566402,515351969,6745,10,-0.0908203125,-1.03253173828125,0.03778076171875
1759327566402,515351969,6745,11,-0.090087890625,-1.02838134765625,0.03656005859375
1759327566402,515351969,6745,12,-0.09326171875,-1.02789306640625,0.03704833984375
1759327566402,515351969,6745,13,-0.096923828125,-1.02935791015625,0.03900146484375
1759327566402,515351969,6745,14,-0.09716796875,-1.02374267578125,0.04510498046875
1759327566402,515351969,6745,15,-0.09765625,-1.02740478515625,0.04803466796875
1759327566402,515351969,6745,16,-0.1005859375,-1.02764892578125,0.04827880859375
1759327566402,515351969,6745,17,-0.100830078125,-1.03228759765625,0.05389404296875
1759327566402,515351969,6745,18,-0.10400390625,-1.03033447265625,0.05950927734375
1759327566402,515351969,6745,19,-0.0986328125,-1.02105712890625,0.06024169921875
1759327566402,515351969,6745,20,-0.10498046875,-1.02740478515625,0.05950927734375
1759327566402,515351969,6745,21,-0.1025390625,-1.02252197265625,0.05926513671875
1759327566402,515351969,6745,22,-0.1044921875,-1.02447509765625,0.06463623046875
1759327566402,515351969,6745,23,-0.1005859375,-1.02667236328125,0.06732177734375
1759327566402,515351969,6745,24,-0.109130859375,-1.02325439453125,0.06146240234375
1759327566402,515351969,6745,25,-0.106689453125,-1.02349853515625,0.06781005859375
1759327566402,515351969,6745,26,-0.10009765625,-1.02667236328125,0.06683349609375
1759327566402,515351969,6745,27,-0.10107421875,-1.02276611328125,0.05511474609375
1759327566402,515351969,6745,28,-0.0966796875,-1.01885986328125,0.05682373046875
1759327566402,515351969,6745,29,-0.099853515625,-1.02154541015625,0.05633544921875
1759327566402,515351969,6745,30,-0.093505859375,-1.02911376953125,0.04974365234375
1759327566402,515351969,6745,31,-0.100830078125,-1.03399658203125,0.05096435546875
1759327568940,515354506,6746,0,-0.097412109375,-1.03131103515625,0.04486083984375
1759327568940,515354506,6746,1,-0.097900390625,-1.03179931640625,0.04339599609375
1759327568940,515354506,6746,2,-0.09521484375,-1.02911376953125,0.04046630859375
1759327568940,515354506,6746,3,-0.091552734375,-1.03277587890625,0.03753662109375
1759327568940,515354506,6746,4,-0.102294921875,-1.02276611328125,0.04632568359375
1759327568940,515354506,6746,5,-0.091796875,-1.03497314453125,0.03338623046875
1759327568940,515354506,6746,6,-0.09521484375,-1.03082275390625,0.02996826171875
1759327568940,515354506,6746,7,-0.09619140625,-1.02423095703125,0.03460693359375
1759327568940,515354506,6746,8,-0.100341796875,-1.03057861328125,0.03192138671875
1759327568940,515354506,6746,9,-0.10986328125,-1.03521728515625,0.06195068359375
1759327568940,515354506,6746,10,-0.095703125,-1.02520751953125,0.02899169921875
1759327568940,515354506,6746,11,-0.09228515625,-1.02178955078125,0.03973388671875
1759327568940,515354506,6746,12,-0.104248046875,-1.02911376953125,0.04681396484375
1759327568940,515354506,6746,13,-0.099609375,-1.02911376953125,0.04315185546875
1759327568940,515354506,6746,14,-0.104736328125,-1.03497314453125,0.04168701171875
1759327568940,515354506,6746,15,-0.118408203125,-1.01715087890625,0.03607177734375
1759327568940,515354506,6746,16,-0.08447265625,-1.02984619140625,0.04656982421875
1759327568940,515354506,6746,17,-0.10595703125,-1.03594970703125,0.03240966796875
1759327568940,515354506,6746,18,-0.109375,-1.02642822265625,0.03143310546875
1759327568940,515354506,6746,19,-0.1083984375,-1.03521728515625,0.03265380859375
1759327568940,515354506,6746,20,-0.111572265625,-1.03375244140625,0.03314208984375
1759327568940,515354506,6746,21,-0.103271484375,-1.01934814453125,0.03167724609375
1759327568940,515354506,6746,22,-0.09521484375,-1.03228759765625,0.02044677734375
1759327568940,515354506,6746,23,-0.103515625,-1.02789306640625,0.02117919921875
1759327568940,515354506,6746,24,-0.1064453125,-1.03521728515625,0.02508544921875
1759327568940,515354506,6746,25,-0.10595703125,-1.03814697265625,0.02557373046875
1759327568940,515354506,6746,26,-0.11669921875,-1.02032470703125,0.03900146484375
1759327568940,515354506,6746,27,-0.101318359375,-1.02764892578125,0.02728271484375
1759327568940,515354506,6746,28,-0.11376953125,-1.02593994140625,0.03021240234375
1759327568940,515354506,6746,29,-0.109619140625,-1.03009033203125,0.02777099609375
1759327568940,515354506,6746,30,-0.1123046875,-1.02813720703125,0.02484130859375
1759327568940,515354506,6746,31,-0.113037109375,-1.03326416015625,0.02557373046875
1759327571472,515357044,6747,0,-0.1064453125,-1.03692626953125,0.02679443359375
1759327571472,515357044,6747,1,-0.128662109375,-1.02301025390625,0.02850341796875
1759327571472,515357044,6747,2,-0.111572265625,-1.03131103515625,0.01605224609375
1759327571472,515357044,6747,3,-0.119384765625,-1.03277587890625,0.01287841796875
1759327571472,515357044,6747,4,-0.118896484375,-1.02545166015625,0.01800537109375
1759327571472,515357044,6747,5,-0.119140625,-1.03350830078125,0.01995849609375
1759327571472,515357044,6747,6,-0.116943359375,-1.03912353515625,0.01043701171875
1759327571472,515357044,6747,7,-0.117431640625,-1.01837158203125,0.01580810546875
1759327571472,515357044,6747,8,-0.11572265625,-1.03106689453125,0.00921630859375
1759327571472,515357044,6747,9,-0.124755859375,-1.02935791015625,0.01165771484375
1759327571472,515357044,6747,10,-0.1181640625,-1.03033447265625,0.01214599609375
