receivedPhoneTimestamp,respeckTimestamp,packetSeqNum,sampleSeqNum,accelX,accelY,accelZ
1688369515966,14508014,5551,16,0.811279296875,-0.00201416015625,0.46917724609375
1688369515966,14508014,5551,17,0.8095703125,-0.00689697265625,0.46649169921875
1688369515966,14508014,5551,18,0.811767578125,-0.00518798828125,0.46966552734375
1688369515966,14508014,5551,19,0.81103515625,0.00091552734375,0.46624755859375
1688369515966,14508014,5551,20,0.8154296875,-0.00714111328125,0.46673583984375
1688369515966,14508014,5551,21,0.812255859375,-0.00445556640625,0.45941162109375
1688369515966,14508014,5551,22,0.810546875,-0.00372314453125,0.46331787109375
1688369515966,14508014,5551,23,0.817138671875,-0.00225830078125,0.46307373046875
1688369515966,14508014,5551,24,0.8203125,-0.00347900390625,0.47015380859375
1688369515966,14508014,5551,25,0.818359375,-0.00274658203125,0.46209716796875
1688369515966,14508014,5551,26,0.812255859375,-0.00323486328125,0.45867919921875
1688369515966,14508014,5551,27,0.818115234375,-0.00885009765625,0.45794677734375
1688369515966,14508014,5551,28,0.8173828125,-0.00152587890625,0.45770263671875
1688369515966,14508014,5551,29,0.8125,-0.00225830078125,0.45184326171875
1688369515966,14508014,5551,30,0.82861328125,-0.00469970703125,0.46038818359375
1688369515966,14508014,5551,31,0.823486328125,0.00018310546875,0.45623779296875
1688369518697,14510599,5552,0,0.819580078125,-0.00372314453125,0.44842529296875
1688369518697,14510599,5552,1,0.8271484375,-0.00177001953125,0.44403076171875
1688369518697,14510599,5552,2,0.825439453125,-0.00225830078125,0.44964599609375
1688369518697,14510599,5552,3,0.830078125,0.00042724609375,0.44085693359375
1688369518697,14510599,5552,4,0.836669921875,-0.00299072265625,0.44598388671875
1688369518697,14510599,5552,5,0.83203125,0.00335693359375,0.43670654296875
1688369518697,14510599,5552,6,0.8310546875,0.00164794921875,0.43353271484375
1688369518697,14510599,5552,7,0.83447265625,-0.00396728515625,0.43939208984375
1688369518697,14510599,5552,8,0.841796875,-0.00665283203125,0.42913818359375
1688369518697,14510599,5552,9,0.843505859375,-0.01129150390625,0.42987060546875
1688369518697,14510599,5552,10,0.840087890625,-0.00543212890625,0.41937255859375
1688369518697,14510599,5552,11,0.84130859375,-0.00323486328125,0.42742919921875
1688369518697,14510599,5552,12,0.83935546875,-0.00640869140625,0.43060302734375
1688369518697,14510599,5552,13,0.83984375,-0.00445556640625,0.42572021484375
1688369518697,14510599,5552,14,0.839599609375,-0.00494384765625,0.42059326171875
1688369518697,14510599,5552,15,0.841552734375,-0.01104736328125,0.42938232421875
1688369518697,14510599,5552,16,0.846435546875,-0.01593017578125,0.42767333984375
1688369518697,14510599,5552,17,0.84423828125,-0.01763916015625,0.42816162109375
1688369518697,14510599,5552,18,0.8359375,-0.03302001953125,0.42889404296875
1688369518697,14510599,5552,19,0.837158203125,-0.02423095703125,0.43109130859375
1688369518697,14510599,5552,20,0.826171875,-0.02252197265625,0.42718505859375
1688369518697,14510599,5552,21,0.83203125,-0.02447509765625,0.41522216796875
1688369518697,14510599,5552,22,0.84228515625,-0.04425048828125,0.44866943359375
1688369518697,14510599,5552,23,0.833251953125,-0.01739501953125,0.43377685546875
1688369518697,14510599,5552,24,0.83154296875,-0.01202392578125,0.43865966796875
1688369518697,14510599,5552,25,0.83447265625,-0.02105712890625,0.43792724609375
1688369518697,14510599,5552,26,0.830810546875,-0.02081298828125,0.44281005859375
1688369518697,14510599,5552,27,0.829345703125,-0.01934814453125,0.44525146484375
1688369518697,14510599,5552,28,0.8330078125,-0.01080322265625,0.44036865234375
1688369518697,14510599,5552,29,0.83447265625,-0.00958251953125,0.43548583984375
1688369518697,14510599,5552,30,0.839111328125,-0.01153564453125,0.44769287109375
1688369518697,14510599,5552,31,0.828857421875,-0.01568603515625,0.44012451171875
1688369521232,14513185,5553,0,0.827392578125,-0.00933837890625,0.44598388671875
1688369521232,14513185,5553,1,0.828125,-0.00982666015625,0.44622802734375
1688369521232,14513185,5553,2,0.8291015625,-0.00933837890625,0.44476318359375
1688369521232,14513185,5553,3,0.83056640625,-0.01348876953125,0.44183349609375
1688369521232,14513185,5553,4,0.83056640625,-0.00543212890625,0.44378662109375
1688369521232,14513185,5553,5,0.832275390625,-0.00421142578125,0.44207763671875
1688369521232,14513185,5553,6,0.8271484375,-0.00494384765625,0.43890380859375
1688369521232,14513185,5553,7,0.83251953125,-0.01055908203125,0.44500732421875
1688369521232,14513185,5553,8,0.83056640625,-0.01007080078125,0.44305419921875
1688369521232,14513185,5553,9,0.826171875,-0.00958251953125,0.44647216796875
1688369521232,14513185,5553,10,0.829345703125,-0.00177001953125,0.44012451171875
1688369521232,14513185,5553,11,0.82861328125,-0.00445556640625,0.45037841796875
1688369521232,14513185,5553,12,0.830322265625,-0.00665283203125,0.44281005859375
1688369521232,14513185,5553,13,0.827880859375,-0.00054931640625,0.44451904296875
1688369521232,14513185,5553,14,0.830078125,-0.00323486328125,0.44012451171875
1688369521232,14513185,5553,15,0.82763671875,-0.00567626953125,0.44500732421875
1688369521232,14513185,5553,16,0.83056640625,-0.00079345703125,0.44158935546875
1688369521232,14513185,5553,17,0.830810546875,-0.00225830078125,0.44061279296875
1688369521232,14513185,5553,18,0.833984375,-0.00079345703125,0.43817138671875
1688369521232,14513185,5553,19,0.833984375,-6.103515625e-05,0.43963623046875
1688369521232,14513185,5553,20,0.8291015625,-0.00518798828125,0.44232177734375
1688369521232,14513185,5553,21,0.8291015625,0.00213623046875,0.44061279296875
1688369521232,14513185,5553,22,0.831787109375,-0.00640869140625,0.44403076171875
1688369521232,14513185,5553,23,0.832763671875,0.00091552734375,0.43035888671875
1688369521232,14513185,5553,24,0.830322265625,0.00579833984375,0.43939208984375
1688369521232,14513185,5553,25,0.833984375,-0.00689697265625,0.44207763671875
1688369521232,14513185,5553,26,0.83203125,-0.00030517578125,0.44305419921875
1688369521232,14513185,5553,27,0.83203125,0.00042724609375,0.43646240234375
1688369521232,14513185,5553,28,0.836669921875,-0.00030517578125,0.43499755859375
1688369521232,14513185,5553,29,0.8330078125,-0.00103759765625,0.43768310546875
1688369521232,14513185,5553,30,0.83056640625,-0.00128173828125,0.43792724609375
1688369521232,14513185,5553,31,0.82861328125,-0.00323486328125,0.44183349609375
1688369523767,14515770,5554,0,0.830810546875,-0.00152587890625,0.43817138671875
1688369523767,14515770,5554,1,0.835205078125,-0.00592041015625,0.44403076171875
1688369523767,14515770,5554,2,0.83544921875,-0.00494384765625,0.44525146484375
1688369523767,14515770,5554,3,0.8359375,-0.02154541015625,0.44842529296875
1688369523767,14515770,5554,4,0.828857421875,-0.02227783203125,0.45013427734375
1688369523767,14515770,5554,5,0.815673828125,-0.02276611328125,0.44329833984375
1688369523767,14515770,5554,6,0.845458984375,-0.04815673828125,0.44378662109375
1688369523767,14515770,5554,7,0.795654296875,0.01727294921875,0.42694091796875
1688369523767,14515770,5554,8,0.8427734375,-0.03717041015625,0.45770263671875
1688369523767,14515770,5554,9,0.82958984375,-0.01470947265625,0.44769287109375
1688369523767,14515770,5554,10,0.822998046875,-0.01080322265625,0.44647216796875
1688369523767,14515770,5554,11,0.822021484375,-0.01397705078125,0.45550537109375
1688369523767,14515770,5554,12,0.82275390625,-0.01666259765625,0.45330810546875
1688369523767,14515770,5554,13,0.819580078125,-0.00958251953125,0.45550537109375
1688369523767,14515770,5554,14,0.82666015625,-0.01202392578125,0.45526123046875
1688369523767,14515770,5554,15,0.818115234375,-0.00567626953125,0.45037841796875
1688369523767,14515770,5554,16,0.82421875,-0.01251220703125,0.45428466796875
1688369523767,14515770,5554,17,0.8212890625,-0.01202392578125,0.45477294921875
1688369523767,14515770,5554,18,0.82177734375,-0.00689697265625,0.45574951171875
1688369523767,14515770,5554,19,0.817626953125,-0.01324462890625,0.45379638671875
1688369523767,14515770,5554,20,0.822998046875,-0.00836181640625,0.45111083984375
1688369523767,14515770,5554,21,0.820068359375,-0.00860595703125,0.45428466796875
1688369523767,14515770,5554,22,0.824951171875,-0.01177978515625,0.45233154296875
1688369523767,14515770,5554,23,0.821533203125,-0.00982666015625,0.45452880859375
1688369523767,14515770,5554,24,0.82568359375,-0.00640869140625,0.45184326171875
1688369523767,14515770,5554,25,0.82275390625,-0.00982666015625,0.45550537109375
1688369523767,14515770,5554,26,0.8271484375,-0.00396728515625,0.45404052734375
1688369523767,14515770,5554,27,0.816162109375,-0.01153564453125,0.45281982421875
1688369523767,14515770,5554,28,0.823486328125,-0.00372314453125,0.45574951171875
1688369523767,14515770,5554,29,0.82763671875,-0.00469970703125,0.45550537109375
1688369523767,14515770,5554,30,0.82568359375,-0.00445556640625,0.45355224609375
1688369523767,14515770,5554,31,0.81787109375,-0.00396728515625,0.45404052734375
1688369526691,14518355,5555,0,0.8193359375,-0.00347900390625,0.45428466796875
1688369526691,14518355,5555,1,0.82177734375,-0.00469970703125,0.45477294921875
1688369526691,14518355,5555,2,0.829345703125,-0.00372314453125,0.45526123046875
1688369526691,14518355,5555,3,0.82177734375,-0.00494384765625,0.45086669921875
1688369526691,14518355,5555,4,0.823486328125,-0.00201416015625,0.45745849609375
1688369526691,14518355,5555,5,0.82763671875,-0.00640869140625,0.44818115234375
1688369526691,14518355,5555,6,0.821044921875,-0.00640869140625,0.45208740234375
1688369526691,14518355,5555,7,0.826904296875,0.00262451171875,0.44818115234375
1688369526691,14518355,5555,8,0.829345703125,-0.00494384765625,0.45355224609375
1688369526691,14518355,5555,9,0.8212890625,-0.00592041015625,0.44989013671875
1688369526691,14518355,5555,10,0.826904296875,-0.00347900390625,0.45037841796875
1688369526691,14518355,5555,11,0.8251953125,-0.00152587890625,0.45159912109375
1688369526691,14518355,5555,12,0.827880859375,0.00018310546875,0.44842529296875
1688369526691,14518355,5555,13,0.8291015625,-0.00372314453125,0.44769287109375
1688369526691,14518355,5555,14,0.826171875,-0.00103759765625,0.44647216796875
1688369526691,14518355,5555,15,0.82861328125,-0.00201416015625,0.44476318359375
1688369526691,14518355,5555,16,0.828369140625,-0.00445556640625,0.44720458984375
1688369526691,14518355,5555,17,0.82861328125,-0.00299072265625,0.44696044921875
1688369526691,14518355,5555,18,0.82958984375,0.00067138671875,0.44500732421875
1688369526691,14518355,5555,19,0.8310546875,-0.00323486328125,0.44427490234375
1688369526691,14518355,5555,20,0.8291015625,-0.00177001953125,0.44403076171875
1688369526691,14518355,5555,21,0.830810546875,0.00262451171875,0.44036865234375
1688369526691,14518355,5555,22,0.8291015625,-0.00128173828125,0.44329833984375
1688369526691,14518355,5555,23,0.831298828125,-0.00177001953125,0.44256591796875
1688369526691,14518355,5555,24,0.8330078125,0.00042724609375,0.44085693359375
1688369526691,14518355,5555,25,0.831298828125,-0.00372314453125,0.44036865234375
1688369526691,14518355,5555,26,0.830078125,0.00115966796875,0.43890380859375
1688369526691,14518355,5555,27,0.83349609375,-0.00079345703125,0.43524169921875
1688369526691,14518355,5555,28,0.834228515625,-0.00347900390625,0.44305419921875
1688369526691,14518355,5555,29,0.82861328125,0.00140380859375,0.43499755859375
1688369526691,14518355,5555,30,0.83837890625,-0.01422119140625,0.44427490234375
1688369526691,14518355,5555,31,0.839599609375,-0.00714111328125,0.43402099609375
1688369528837,14520940,5556,0,0.83984375,-0.02081298828125,0.45159912109375
1688369528837,14520940,5556,1,0.8251953125,-0.01007080078125,0.42864990234375
1688369528837,14520940,5556,2,0.82421875,-0.02203369140625,0.43231201171875
1688369528837,14520940,5556,3,0.828857421875,-0.02056884765625,0.43060302734375
1688369528837,14520940,5556,4,0.83544921875,-0.02764892578125,0.45648193359375
1688369528837,14520940,5556,5,0.830078125,-0.00836181640625,0.44305419921875
1688369528837,14520940,5556,6,0.82666015625,-0.01153564453125,0.44671630859375
1688369528837,14520940,5556,7,0.829345703125,-0.01885986328125,0.44940185546875
1688369528837,14520940,5556,8,0.823486328125,-0.01300048828125,0.44940185546875
1688369528837,14520940,5556,9,0.8271484375,-0.01251220703125,0.44940185546875
1688369528837,14520940,5556,10,0.8251953125,-0.01202392578125,0.44549560546875
1688369528837,14520940,5556,11,0.82861328125,-0.00543212890625,0.44573974609375
1688369528837,14520940,5556,12,0.830078125,-0.01422119140625,0.44671630859375
1688369528837,14520940,5556,13,0.827392578125,-0.00445556640625,0.44915771484375
1688369528837,14520940,5556,14,0.82275390625,-0.00518798828125,0.44256591796875
1688369528837,14520940,5556,15,0.828125,-0.00543212890625,0.44720458984375
1688369528837,14520940,5556,16,0.83203125,-0.00640869140625,0.44476318359375
1688369528837,14520940,5556,17,0.8291015625,-0.00494384765625,0.44354248046875
1688369528837,14520940,5556,18,0.829345703125,-0.00640869140625,0.44451904296875
1688369528837,14520940,5556,19,0.83154296875,-0.00494384765625,0.44622802734375
1688369528837,14520940,5556,20,0.82861328125,-0.00274658203125,0.44378662109375
1688369528837,14520940,5556,21,0.83056640625,-0.00396728515625,0.44500732421875
1688369528837,14520940,5556,22,0.826904296875,-0.00347900390625,0.44476318359375
1688369528837,14520940,5556,23,0.82666015625,-0.00738525390625,0.44232177734375
1688369528837,14520940,5556,24,0.8310546875,-0.00177001953125,0.44403076171875
1688369528837,14520940,5556,25,0.830078125,-0.01202392578125,0.45037841796875
1688369528837,14520940,5556,26,0.83154296875,0.00115966796875,0.44232177734375
1688369528837,14520940,5556,27,0.829345703125,-0.00494384765625,0.43939208984375
1688369528837,14520940,5556,28,0.8310546875,-0.00030517578125,0.43548583984375
1688369528837,14520940,5556,29,0.836669921875,-0.00665283203125,0.43865966796875
1688369528837,14520940,5556,30,0.8330078125,0.00164794921875,0.43914794921875
1688369528837,14520940,5556,31,0.83349609375,-0.01055908203125,0.44427490234375
1688369531567,14523525,5557,0,0.82958984375,0.00360107421875,0.43597412109375
1688369531567,14523525,5557,1,0.83154296875,-0.00299072265625,0.43841552734375
1688369531567,14523525,5557,2,0.837890625,-0.00860595703125,0.43621826171875
1688369531567,14523525,5557,3,0.83447265625,0.00213623046875,0.43841552734375
1688369531567,14523525,5557,4,0.835205078125,-0.00421142578125,0.43768310546875
1688369531567,14523525,5557,5,0.833740234375,-0.01373291015625,0.43524169921875
1688369531567,14523525,5557,6,0.837158203125,-0.00958251953125,0.45721435546875
1688369531567,14523525,5557,7,0.832763671875,-0.01715087890625,0.44500732421875
1688369531567,14523525,5557,8,0.81689453125,-0.00933837890625,0.46014404296875
1688369531567,14523525,5557,9,0.803466796875,-0.02227783203125,0.44573974609375
1688369531567,14523525,5557,10,0.810546875,-0.03228759765625,0.45574951171875
1688369531567,14523525,5557,11,0.81494140625,-0.02764892578125,0.45452880859375
1688369531567,14523525,5557,12,0.81640625,-0.02471923828125,0.47015380859375
1688369531567,14523525,5557,13,0.81591796875,-0.01519775390625,0.46673583984375
1688369531567,14523525,5557,14,0.8125,-0.01055908203125,0.46063232421875
1688369531567,14523525,5557,15,0.818359375,-0.02569580078125,0.45965576171875
1688369531567,14523525,5557,16,0.816162109375,-0.01983642578125,0.47186279296875
1688369531567,14523525,5557,17,0.81005859375,-0.00714111328125,0.46429443359375
1688369531567,14523525,5557,18,0.81640625,-0.01397705078125,0.46649169921875
1688369531567,14523525,5557,19,0.812255859375,-0.00445556640625,0.45623779296875
1688369531567,14523525,5557,20,0.8193359375,-0.01177978515625,0.46746826171875
1688369531567,14523525,5557,21,0.815185546875,-0.00543212890625,0.46380615234375
1688369531567,14523525,5557,22,0.813232421875,-0.00836181640625,0.45770263671875
1688369531567,14523525,5557,23,0.822265625,-0.00689697265625,0.46649169921875
1688369531567,14523525,5557,24,0.81982421875,-0.00372314453125,0.46429443359375
1688369531567,14523525,5557,25,0.81201171875,-0.01202392578125,0.46673583984375
1688369531567,14523525,5557,26,0.812255859375,-0.01519775390625,0.46307373046875
1688369531567,14523525,5557,27,0.8251953125,-0.01788330078125,0.46282958984375
1688369531567,14523525,5557,28,0.82421875,-0.02813720703125,0.46063232421875
1688369531567,14523525,5557,29,0.822021484375,-0.02423095703125,0.45867919921875
1688369531567,14523525,5557,30,0.8193359375,-0.03082275390625,0.46209716796875
1688369531567,14523525,5557,31,0.8037109375,-0.03863525390625,0.45989990234375
1688369534101,14526110,5558,0,0.7998046875,-0.02862548828125,0.45770263671875
1688369534101,14526110,5558,1,0.808837890625,-0.02911376953125,0.45379638671875
1688369534101,14526110,5558,2,0.826416015625,-0.03594970703125,0.48162841796875
1688369534101,14526110,5558,3,0.806396484375,-0.05010986328125,0.47650146484375
1688369534101,14526110,5558,4,0.8154296875,-0.00665283203125,0.46502685546875
1688369534101,14526110,5558,5,0.810546875,-0.03350830078125,0.47406005859375
1688369534101,14526110,5558,6,0.8076171875,-0.03619384765625,0.47137451171875
1688369534101,14526110,5558,7,0.806396484375,-0.02154541015625,0.47698974609375
1688369534101,14526110,5558,8,0.812744140625,-0.01885986328125,0.47430419921875
1688369534101,14526110,5558,9,0.809814453125,-0.02716064453125,0.47015380859375
1688369534101,14526110,5558,10,0.8125,-0.02447509765625,0.47479248046875
1688369534101,14526110,5558,11,0.8056640625,-0.02203369140625,0.46868896484375
1688369534101,14526110,5558,12,0.809814453125,-0.02008056640625,0.47406005859375
1688369534101,14526110,5558,13,0.80712890625,-0.02984619140625,0.47894287109375
1688369534101,14526110,5558,14,0.81005859375,-0.01348876953125,0.46966552734375
1688369534101,14526110,5558,15,0.810791015625,-0.01934814453125,0.46697998046875
1688369534101,14526110,5558,16,0.809814453125,-0.02008056640625,0.47430419921875
1688369534101,14526110,5558,17,0.808349609375,-0.02227783203125,0.47259521484375
1688369534101,14526110,5558,18,0.81201171875,-0.01226806640625,0.47357177734375
1688369534101,14526110,5558,19,0.8076171875,-0.01568603515625,0.47186279296875
1688369534101,14526110,5558,20,0.81103515625,-0.01715087890625,0.46820068359375
1688369534101,14526110,5558,21,0.81201171875,-0.01422119140625,0.47406005859375
1688369534101,14526110,5558,22,0.808837890625,-0.01300048828125,0.46893310546875
1688369534101,14526110,5558,23,0.8095703125,-0.01324462890625,0.47601318359375
1688369534101,14526110,5558,24,0.815673828125,-0.00885009765625,0.46917724609375
1688369534101,14526110,5558,25,0.810791015625,-0.01153564453125,0.47381591796875
1688369534101,14526110,5558,26,0.8095703125,-0.01593017578125,0.46990966796875
1688369534101,14526110,5558,27,0.81201171875,-0.00811767578125,0.47015380859375
1688369534101,14526110,5558,28,0.809326171875,-0.01568603515625,0.46966552734375
1688369534101,14526110,5558,29,0.81005859375,-0.01251220703125,0.46575927734375
1688369534101,14526110,5558,30,0.8134765625,-0.00616455078125,0.46307373046875
1688369534101,14526110,5558,31,0.810791015625,-0.01495361328125,0.46771240234375
1688369536637,14528689,5559,0,0.811279296875,-0.01080322265625,0.46771240234375
1688369536637,14528689,5559,1,0.81298828125,-0.00714111328125,0.46527099609375
1688369536637,14528689,5559,2,0.809326171875,-0.00274658203125,0.46429443359375
1688369536637,14528689,5559,3,0.818115234375,-0.00885009765625,0.46624755859375
1688369536637,14528689,5559,4,0.816162109375,-0.00933837890625,0.46551513671875
1688369536637,14528689,5559,5,0.81103515625,-0.00177001953125,0.46502685546875
1688369536637,14528689,5559,6,0.81298828125,-0.00714111328125,0.46722412109375
1688369536637,14528689,5559,7,0.815673828125,-0.00518798828125,0.46356201171875
1688369536637,14528689,5559,8,0.811767578125,-0.00372314453125,0.46673583984375
1688369536637,14528689,5559,9,0.81201171875,-0.00665283203125,0.46453857421875
1688369536637,14528689,5559,10,0.81494140625,-0.00714111328125,0.46405029296875
1688369536637,14528689,5559,11,0.812744140625,-0.00299072265625,0.46966552734375
1688369536637,14528689,5559,12,0.814208984375,-0.00567626953125,0.46209716796875
1688369536637,14528689,5559,13,0.818359375,-0.00177001953125,0.46380615234375
1688369536637,14528689,5559,14,0.813232421875,-0.00299072265625,0.46014404296875
1688369536637,14528689,5559,15,0.81591796875,-0.00250244140625,0.46673583984375
1688369536637,14528689,5559,16,0.81103515625,-0.00177001953125,0.46234130859375
1688369536637,14528689,5559,17,0.814697265625,-0.00421142578125,0.46527099609375
1688369536637,14528689,5559,18,0.812255859375,-0.00274658203125,0.46575927734375
1688369536637,14528689,5559,19,0.81884765625,-0.00616455078125,0.46600341796875
1688369536637,14528689,5559,20,0.83056640625,-0.01690673828125,0.46795654296875
1688369536637,14528689,5559,21,0.824462890625,-0.01080322265625,0.45648193359375
1688369536637,14528689,5559,22,0.8212890625,-0.02105712890625,0.44744873046875
1688369536637,14528689,5559,23,0.814453125,-0.02325439453125,0.44720458984375
1688369536637,14528689,5559,24,0.806396484375,-0.02423095703125,0.43963623046875
1688369536637,14528689,5559,25,0.83544921875,-0.03204345703125,0.46429443359375
1688369536637,14528689,5559,26,0.817138671875,-0.00689697265625,0.46234130859375
1688369536637,14528689,5559,27,0.8212890625,-0.02032470703125,0.45867919921875
1688369536637,14528689,5559,28,0.813720703125,-0.01837158203125,0.46014404296875
1688369536637,14528689,5559,29,0.81689453125,-0.02227783203125,0.46429443359375
1688369536637,14528689,5559,30,0.8134765625,-0.00885009765625,0.46405029296875
1688369536637,14528689,5559,31,0.813232421875,-0.00982666015625,0.46697998046875
1688369539367,14531275,5560,0,0.81396484375,-0.01104736328125,0.46502685546875
1688369539367,14531275,5560,1,0.8095703125,-0.01055908203125,0.46258544921875
1688369539367,14531275,5560,2,0.8173828125,-0.01397705078125,0.46722412109375
1688369539367,14531275,5560,3,0.81591796875,-0.00396728515625,0.46112060546875
1688369539367,14531275,5560,4,0.81494140625,-0.01104736328125,0.46820068359375
1688369539367,14531275,5560,5,0.812255859375,-0.01007080078125,0.46453857421875
1688369539367,14531275,5560,6,0.81201171875,-0.00469970703125,0.46234130859375
1688369539367,14531275,5560,7,0.81103515625,-0.00469970703125,0.46112060546875
1688369539367,14531275,5560,8,0.815185546875,-0.00616455078125,0.46746826171875
1688369539367,14531275,5560,9,0.813232421875,-0.00396728515625,0.46527099609375
1688369539367,14531275,5560,10,0.814208984375,-0.00592041015625,0.46600341796875
1688369539367,14531275,5560,11,0.813232421875,-0.00543212890625,0.45965576171875
1688369539367,14531275,5560,12,0.8115234375,-0.00616455078125,0.45648193359375
1688369539367,14531275,5560,13,0.82373046875,-0.00128173828125,0.46258544921875
1688369539367,14531275,5560,14,0.8193359375,-0.00274658203125,0.45623779296875
1688369539367,14531275,5560,15,0.818603515625,-0.00421142578125,0.46185302734375
1688369539367,14531275,5560,16,0.811279296875,-0.00323486328125,0.46087646484375
1688369539367,14531275,5560,17,0.812255859375,-0.00372314453125,0.46136474609375
1688369539367,14531275,5560,18,0.822021484375,-0.00665283203125,0.45819091796875
1688369539367,14531275,5560,19,0.822998046875,-0.00201416015625,0.45672607421875
1688369539367,14531275,5560,20,0.818359375,-0.00177001953125,0.46136474609375
1688369539367,14531275,5560,21,0.818603515625,-0.00445556640625,0.46112060546875
1688369539367,14531275,5560,22,0.81396484375,-0.00347900390625,0.46331787109375
1688369539367,14531275,5560,23,0.816650390625,-0.00494384765625,0.45257568359375
1688369539367,14531275,5560,24,0.815673828125,0.00067138671875,0.45697021484375
1688369539367,14531275,5560,25,0.8251953125,-0.00689697265625,0.45989990234375
1688369539367,14531275,5560,26,0.820556640625,-0.00347900390625,0.45819091796875
1688369539367,14531275,5560,27,0.819091796875,-0.00958251953125,0.46014404296875
1688369539367,14531275,5560,28,0.825927734375,-0.01910400390625,0.46380615234375
1688369539367,14531275,5560,29,0.8251953125,-0.02154541015625,0.46307373046875
1688369539367,14531275,5560,30,0.8271484375,-0.03082275390625,0.47283935546875
1688369539367,14531275,5560,31,0.812255859375,-0.04180908203125,0.46331787109375
1688369541901,14533860,5561,0,0.788818359375,-0.00518798828125,0.46502685546875
1688369541901,14533860,5561,1,0.7919921875,-0.03472900390625,0.46868896484375
1688369541901,14533860,5561,2,0.810791015625,-0.03204345703125,0.49774169921875
1688369541901,14533860,5561,3,0.80810546875,-0.02276611328125,0.48822021484375
1688369541901,14533860,5561,4,0.804443359375,-0.01300048828125,0.48602294921875
1688369541901,14533860,5561,5,0.80322265625,-0.02569580078125,0.48822021484375
1688369541901,14533860,5561,6,0.79931640625,-0.02935791015625,0.49017333984375
1688369541901,14533860,5561,7,0.80224609375,-0.01861572265625,0.49456787109375
1688369541901,14533860,5561,8,0.803955078125,-0.01641845703125,0.48529052734375
1688369541901,14533860,5561,9,0.80419921875,-0.02032470703125,0.49017333984375
1688369541901,14533860,5561,10,0.8017578125,-0.01568603515625,0.48089599609375
1688369541901,14533860,5561,11,0.799560546875,-0.02398681640625,0.49407958984375
1688369541901,14533860,5561,12,0.798828125,-0.02154541015625,0.49456787109375
1688369541901,14533860,5561,13,0.801513671875,-0.00567626953125,0.48187255859375
1688369541901,14533860,5561,14,0.8076171875,-0.01812744140625,0.49407958984375
1688369541901,14533860,5561,15,0.801513671875,-0.01715087890625,0.48333740234375
1688369541901,14533860,5561,16,0.80126953125,-0.01959228515625,0.48944091796875
1688369541901,14533860,5561,17,0.797607421875,-0.01373291015625,0.48699951171875
1688369541901,14533860,5561,18,0.80078125,-0.01348876953125,0.49066162109375
1688369541901,14533860,5561,19,0.803466796875,-0.01275634765625,0.48358154296875
1688369541901,14533860,5561,20,0.804931640625,-0.01129150390625,0.48065185546875
1688369541901,14533860,5561,21,0.800048828125,-0.01153564453125,0.47723388671875
1688369541901,14533860,5561,22,0.80224609375,-0.01129150390625,0.49212646484375
1688369541901,14533860,5561,23,0.806640625,-0.00811767578125,0.47747802734375
1688369541901,14533860,5561,24,0.806884765625,-0.01251220703125,0.47845458984375
1688369541901,14533860,5561,25,0.803955078125,-0.00665283203125,0.47015380859375
1688369541901,14533860,5561,26,0.810302734375,-0.00714111328125,0.47601318359375
1688369541901,14533860,5561,27,0.80615234375,-0.00421142578125,0.46990966796875
1688369541901,14533860,5561,28,0.819580078125,-0.00616455078125,0.46575927734375
1688369541901,14533860,5561,29,0.815185546875,-0.00885009765625,0.46307373046875
1688369541901,14533860,5561,30,0.816162109375,-6.103515625e-05,0.45916748046875
1688369541901,14533860,5561,31,0.81884765625,-0.00762939453125,0.46307373046875
1688369544437,14536445,5562,0,0.82177734375,-0.00885009765625,0.46038818359375
1688369544437,14536445,5562,1,0.818115234375,-0.00274658203125,0.45599365234375
1688369544437,14536445,5562,2,0.823974609375,-0.00494384765625,0.45501708984375
1688369544437,14536445,5562,3,0.822265625,-0.00885009765625,0.45574951171875
1688369544437,14536445,5562,4,0.8330078125,-0.02081298828125,0.47357177734375
1688369544437,14536445,5562,5,0.81884765625,-0.01812744140625,0.46405029296875
1688369544437,14536445,5562,6,0.811767578125,-0.02252197265625,0.45672607421875
1688369544437,14536445,5562,7,0.798095703125,-0.01837158203125,0.45330810546875
1688369544437,14536445,5562,8,0.802978515625,-0.03204345703125,0.45819091796875
1688369544437,14536445,5562,9,0.81689453125,-0.04278564453125,0.48724365234375
1688369544437,14536445,5562,10,0.81005859375,-0.01739501953125,0.46795654296875
1688369544437,14536445,5562,11,0.8095703125,-0.00665283203125,0.48114013671875
1688369544437,14536445,5562,12,0.80810546875,-0.02154541015625,0.47235107421875
1688369544437,14536445,5562,13,0.807861328125,-0.02691650390625,0.48211669921875
1688369544437,14536445,5562,14,0.8046875,-0.01544189453125,0.48040771484375
1688369544437,14536445,5562,15,0.80419921875,-0.01495361328125,0.47503662109375
1688369544437,14536445,5562,16,0.809326171875,-0.01470947265625,0.47503662109375
1688369544437,14536445,5562,17,0.808837890625,-0.01544189453125,0.47235107421875
1688369544437,14536445,5562,18,0.80615234375,-0.01617431640625,0.47381591796875
1688369544437,14536445,5562,19,0.80517578125,-0.01153564453125,0.47479248046875
1688369544437,14536445,5562,20,0.806396484375,-0.01617431640625,0.47552490234375
1688369544437,14536445,5562,21,0.80810546875,-0.01177978515625,0.48016357421875
1688369544437,14536445,5562,22,0.8076171875,-0.01177978515625,0.47210693359375
1688369544437,14536445,5562,23,0.80810546875,-0.01104736328125,0.47576904296875
1688369544437,14536445,5562,24,0.80859375,-0.01226806640625,0.47113037109375
1688369544437,14536445,5562,25,0.8046875,-0.00836181640625,0.48333740234375
1688369544437,14536445,5562,26,0.8076171875,-0.01104736328125,0.47576904296875
1688369544437,14536445,5562,27,0.807861328125,-0.00518798828125,0.47943115234375
1688369544437,14536445,5562,28,0.80908203125,-0.01007080078125,0.47308349609375
1688369544437,14536445,5562,29,0.81298828125,-0.01007080078125,0.47552490234375
1688369544437,14536445,5562,30,0.811279296875,-0.00860595703125,0.46893310546875
1688369544437,14536445,5562,31,0.809814453125,-0.00860595703125,0.46697998046875
1688369546972,14539030,5563,0,0.81787109375,-0.00982666015625,0.46868896484375
1688369546972,14539030,5563,1,0.811767578125,-0.01007080078125,0.46771240234375
1688369546972,14539030,5563,2,0.809814453125,-0.00616455078125,0.46624755859375
1688369546972,14539030,5563,3,0.81103515625,-0.00738525390625,0.46478271484375
1688369546972,14539030,5563,4,0.812255859375,-0.00494384765625,0.46673583984375
1688369546972,14539030,5563,5,0.82177734375,-0.00445556640625,0.46405029296875
1688369546972,14539030,5563,6,0.810302734375,-0.00250244140625,0.46136474609375
1688369546972,14539030,5563,7,0.822509765625,-0.00640869140625,0.46722412109375
1688369546972,14539030,5563,8,0.8095703125,-0.00421142578125,0.46038818359375
1688369546972,14539030,5563,9,0.815673828125,-0.01226806640625,0.46258544921875
1688369546972,14539030,5563,10,0.821044921875,-0.00592041015625,0.45452880859375
1688369546972,14539030,5563,11,0.818115234375,-0.00592041015625,0.45819091796875
1688369546972,14539030,5563,12,0.820068359375,-0.00665283203125,0.45501708984375
1688369546972,14539030,5563,13,0.82568359375,-0.00714111328125,0.45404052734375
1688369546972,14539030,5563,14,0.827880859375,-0.00836181640625,0.45574951171875
1688369546972,14539030,5563,15,0.820556640625,-0.00762939453125,0.45062255859375
1688369546972,14539030,5563,16,0.82763671875,-0.01324462890625,0.45135498046875
1688369546972,14539030,5563,17,0.822021484375,0.00067138671875,0.44671630859375
1688369546972,14539030,5563,18,0.8251953125,-0.00738525390625,0.44476318359375
1688369546972,14539030,5563,19,0.830078125,-0.01055908203125,0.45281982421875
1688369546972,14539030,5563,20,0.829345703125,-0.00347900390625,0.44403076171875
1688369546972,14539030,5563,21,0.823974609375,-0.00250244140625,0.44647216796875
1688369546972,14539030,5563,22,0.8310546875,-0.00787353515625,0.44940185546875
1688369546972,14539030,5563,23,0.8271484375,-0.00396728515625,0.44451904296875
1688369546972,14539030,5563,24,0.824951171875,-0.00177001953125,0.44403076171875
1688369546972,14539030,5563,25,0.83251953125,-0.00592041015625,0.45013427734375
1688369546972,14539030,5563,26,0.82470703125,-0.00152587890625,0.44500732421875
1688369546972,14539030,5563,27,0.8271484375,-0.00885009765625,0.44500732421875
