receivedPhoneTimestamp,respeckTimestamp,packetSeqNum,sampleSeqNum,accelX,accelY,accelZ
1760201517543,1404170525,17584,0,-1.01513671875,-0.12017822265625,-0.16387939453125
1760201517543,1404170525,17584,1,-1.022216796875,-0.11968994140625,-0.14971923828125
1760201517543,1404170525,17584,2,-1.009521484375,-0.11358642578125,-0.14727783203125
1760201517543,1404170525,17584,3,-1.02783203125,-0.11602783203125,-0.14410400390625
1760201517543,1404170525,17584,4,-1.021240234375,-0.11407470703125,-0.15118408203125
1760201517543,1404170525,17584,5,-1.025634765625,-0.11944580078125,-0.14019775390625
1760201517543,1404170525,17584,6,-1.018798828125,-0.11602783203125,-0.13214111328125
1760201517543,1404170525,17584,7,-1.0185546875,-0.11358642578125,-0.13604736328125
1760201517543,1404170525,17584,8,-1.020751953125,-0.11431884765625,-0.13238525390625
1760201517543,1404170525,17584,9,-1.02685546875,-0.11798095703125,-0.12432861328125
1760201517543,1404170525,17584,10,-1.025390625,-0.11334228515625,-0.13018798828125
1760201517543,1404170525,17584,11,-1.027099609375,-0.11041259765625,-0.13677978515625
1760201517543,1404170525,17584,12,-1.01171875,-0.10894775390625,-0.16070556640625
1760201517543,1404170525,17584,13,-1.0126953125,-0.12481689453125,-0.17608642578125
1760201517543,1404170525,17584,14,-1.033203125,-0.12945556640625,-0.15313720703125
1760201517543,1404170525,17584,15,-1.005615234375,-0.12188720703125,-0.15704345703125
1760201517543,1404170525,17584,16,-1.02880859375,-0.10943603515625,-0.14459228515625
1760201517543,1404170525,17584,17,-1.015869140625,-0.11749267578125,-0.15093994140625
1760201517543,1404170525,17584,18,-1.020751953125,-0.12896728515625,-0.15533447265625
1760201517543,1404170525,17584,19,-1.03076171875,-0.12432861328125,-0.14727783203125
1760201517543,1404170525,17584,20,-1.015625,-0.11407470703125,-0.13165283203125
1760201517543,1404170525,17584,21,-1.026123046875,-0.11236572265625,-0.13433837890625
1760201517543,1404170525,17584,22,-1.017333984375,-0.11358642578125,-0.14630126953125
1760201517543,1404170525,17584,23,-1.01416015625,-0.11309814453125,-0.13531494140625
1760201517543,1404170525,17584,24,-1.0322265625,-0.12188720703125,-0.13165283203125
1760201517543,1404170525,17584,25,-1.013427734375,-0.12237548828125,-0.14361572265625
1760201517543,1404170525,17584,26,-1.030029296875,-0.11285400390625,-0.13555908203125
1760201517543,1404170525,17584,27,-1.0146484375,-0.11187744140625,-0.14483642578125
1760201517543,1404170525,17584,28,-1.023193359375,-0.11846923828125,-0.15509033203125
1760201517543,1404170525,17584,29,-1.025146484375,-0.12554931640625,-0.12750244140625
1760201517543,1404170525,17584,30,-1.021728515625,-0.11724853515625,-0.13360595703125
1760201517543,1404170525,17584,31,-1.023681640625,-0.11212158203125,-0.12603759765625
1760201520055,1404173098,17585,0,-1.040771484375,-0.12213134765625,-0.12091064453125
1760201520055,1404173098,17585,1,-1.011962890625,-0.11578369140625,-0.15338134765625
1760201520055,1404173098,17585,2,-1.02099609375,-0.11749267578125,-0.15704345703125
1760201520055,1404173098,17585,3,-1.010498046875,-0.12530517578125,-0.16778564453125
1760201520055,1404173098,17585,4,-1.006103515625,-0.12701416015625,-0.17340087890625
1760201520055,1404173098,17585,5,-1.023193359375,-0.13092041015625,-0.15509033203125
1760201520055,1404173098,17585,6,-1.01416015625,-0.11627197265625,-0.15338134765625
1760201520055,1404173098,17585,7,-1.02685546875,-0.11285400390625,-0.14874267578125
1760201520055,1404173098,17585,8,-1.019287109375,-0.12457275390625,-0.15509033203125
1760201520055,1404173098,17585,9,-1.02392578125,-0.13360595703125,-0.15118408203125
1760201520055,1404173098,17585,10,-1.020263671875,-0.13043212890625,-0.15435791015625
1760201520055,1404173098,17585,11,-1.017333984375,-0.11700439453125,-0.13580322265625
1760201520055,1404173098,17585,12,-1.02392578125,-0.11578369140625,-0.15167236328125
1760201520055,1404173098,17585,13,-1.020751953125,-0.12286376953125,-0.14630126953125
1760201520055,1404173098,17585,14,-1.021240234375,-0.12701416015625,-0.14434814453125
1760201520055,1404173098,17585,15,-1.0205078125,-0.12139892578125,-0.13531494140625
1760201520055,1404173098,17585,16,-1.022216796875,-0.11773681640625,-0.13458251953125
1760201520055,1404173098,17585,17,-1.021728515625,-0.11553955078125,-0.13970947265625
1760201520055,1404173098,17585,18,-1.0166015625,-0.12139892578125,-0.13970947265625
1760201520055,1404173098,17585,19,-1.01806640625,-0.12017822265625,-0.13433837890625
1760201520055,1404173098,17585,20,-1.029052734375,-0.12091064453125,-0.12750244140625
1760201520055,1404173098,17585,21,-1.018798828125,-0.12432861328125,-0.14361572265625
1760201520055,1404173098,17585,22,-1.020751953125,-0.12066650390625,-0.13824462890625
1760201520055,1404173098,17585,23,-1.02294921875,-0.12188720703125,-0.13238525390625
1760201520055,1404173098,17585,24,-1.020751953125,-0.12286376953125,-0.13165283203125
1760201520055,1404173098,17585,25,-1.021728515625,-0.12359619140625,-0.14141845703125
1760201520055,1404173098,17585,26,-1.022216796875,-0.11944580078125,-0.13555908203125
1760201520055,1404173098,17585,27,-1.0185546875,-0.12261962890625,-0.13287353515625
1760201520055,1404173098,17585,28,-1.02197265625,-0.12066650390625,-0.13726806640625
1760201520055,1404173098,17585,29,-1.023193359375,-0.12554931640625,-0.13922119140625
1760201520055,1404173098,17585,30,-1.016845703125,-0.12384033203125,-0.14068603515625
1760201520055,1404173098,17585,31,-1.02294921875,-0.11700439453125,-0.13214111328125
1760201522764,1404175671,17586,0,-1.025634765625,-0.12066650390625,-0.14044189453125
1760201522764,1404175671,17586,1,-1.0234375,-0.12237548828125,-0.13873291015625
1760201522764,1404175671,17586,2,-1.0244140625,-0.12677001953125,-0.13238525390625
1760201522764,1404175671,17586,3,-1.020263671875,-0.12213134765625,-0.13946533203125
1760201522764,1404175671,17586,4,-1.018798828125,-0.12164306640625,-0.13751220703125
1760201522764,1404175671,17586,5,-1.019287109375,-0.11676025390625,-0.14556884765625
1760201522764,1404175671,17586,6,-1.0234375,-0.12408447265625,-0.13311767578125
1760201522764,1404175671,17586,7,-1.01953125,-0.12188720703125,-0.13531494140625
1760201522764,1404175671,17586,8,-1.017822265625,-0.12261962890625,-0.14068603515625
1760201522764,1404175671,17586,9,-1.025146484375,-0.12115478515625,-0.13385009765625
1760201522764,1404175671,17586,10,-1.0205078125,-0.12286376953125,-0.13848876953125
1760201522764,1404175671,17586,11,-1.024169921875,-0.12139892578125,-0.13726806640625
1760201522764,1404175671,17586,12,-1.01953125,-0.11895751953125,-0.14093017578125
1760201522764,1404175671,17586,13,-1.02392578125,-0.12091064453125,-0.13580322265625
1760201522764,1404175671,17586,14,-1.02099609375,-0.12335205078125,-0.13507080078125
1760201522764,1404175671,17586,15,-1.02197265625,-0.12164306640625,-0.12725830078125
1760201522764,1404175671,17586,16,-1.02197265625,-0.11846923828125,-0.14361572265625
1760201522764,1404175671,17586,17,-1.01806640625,-0.11700439453125,-0.13214111328125
1760201522764,1404175671,17586,18,-1.028564453125,-0.12652587890625,-0.12799072265625
1760201522764,1404175671,17586,19,-1.024169921875,-0.11993408203125,-0.13262939453125
1760201522764,1404175671,17586,20,-1.017333984375,-0.11602783203125,-0.13995361328125
1760201522764,1404175671,17586,21,-1.03271484375,-0.13165283203125,-0.12188720703125
1760201522764,1404175671,17586,22,-1.0107421875,-0.11846923828125,-0.14508056640625
1760201522764,1404175671,17586,23,-1.028076171875,-0.11749267578125,-0.15509033203125
1760201522764,1404175671,17586,24,-1.02001953125,-0.13043212890625,-0.16314697265625
1760201522764,1404175671,17586,25,-1.01513671875,-0.12677001953125,-0.15655517578125
1760201522764,1404175671,17586,26,-1.00390625,-0.13287353515625,-0.18487548828125
1760201522764,1404175671,17586,27,-1.016357421875,-0.14117431640625,-0.17681884765625
1760201522764,1404175671,17586,28,-1.016845703125,-0.12725830078125,-0.16168212890625
1760201522764,1404175671,17586,29,-1.024658203125,-0.12042236328125,-0.15313720703125
1760201522764,1404175671,17586,30,-1.021484375,-0.12872314453125,-0.15777587890625
1760201522764,1404175671,17586,31,-1.01953125,-0.13458251953125,-0.16070556640625
1760201525283,1404178244,17587,0,-1.020751953125,-0.12994384765625,-0.15216064453125
1760201525283,1404178244,17587,1,-1.019287109375,-0.12432861328125,-0.14459228515625
1760201525283,1404178244,17587,2,-1.014404296875,-0.12359619140625,-0.14898681640625
1760201525283,1404178244,17587,3,-1.024658203125,-0.12310791015625,-0.15118408203125
1760201525283,1404178244,17587,4,-1.020263671875,-0.13043212890625,-0.15142822265625
1760201525283,1404178244,17587,5,-1.020263671875,-0.12945556640625,-0.14410400390625
1760201525283,1404178244,17587,6,-1.022705078125,-0.12628173828125,-0.14678955078125
1760201525283,1404178244,17587,7,-1.020263671875,-0.12359619140625,-0.14141845703125
1760201525283,1404178244,17587,8,-1.022216796875,-0.12481689453125,-0.14727783203125
1760201525283,1404178244,17587,9,-1.01953125,-0.12652587890625,-0.14849853515625
1760201525283,1404178244,17587,10,-1.021484375,-0.12457275390625,-0.13946533203125
1760201525283,1404178244,17587,11,-1.021728515625,-0.12115478515625,-0.12457275390625
1760201525283,1404178244,17587,12,-1.02587890625,-0.12384033203125,-0.13946533203125
1760201525283,1404178244,17587,13,-1.017578125,-0.12164306640625,-0.13165283203125
1760201525283,1404178244,17587,14,-1.02734375,-0.12823486328125,-0.14532470703125
1760201525283,1404178244,17587,15,-1.016357421875,-0.12628173828125,-0.14581298828125
1760201525283,1404178244,17587,16,-1.023193359375,-0.13165283203125,-0.15338134765625
1760201525283,1404178244,17587,17,-1.004150390625,-0.13214111328125,-0.15802001953125
1760201525283,1404178244,17587,18,-1.014892578125,-0.13555908203125,-0.16461181640625
1760201525283,1404178244,17587,19,-1.032470703125,-0.13287353515625,-0.13311767578125
1760201525283,1404178244,17587,20,-1.011962890625,-0.12042236328125,-0.12774658203125
1760201525283,1404178244,17587,21,-1.034423828125,-0.11822509765625,-0.12945556640625
1760201525283,1404178244,17587,22,-1.01953125,-0.12603759765625,-0.13946533203125
1760201525283,1404178244,17587,23,-1.021484375,-0.13433837890625,-0.13824462890625
1760201525283,1404178244,17587,24,-1.017822265625,-0.13360595703125,-0.13189697265625
1760201525283,1404178244,17587,25,-1.025390625,-0.12701416015625,-0.12774658203125
1760201525283,1404178244,17587,26,-1.021240234375,-0.12237548828125,-0.13092041015625
1760201525283,1404178244,17587,27,-1.0185546875,-0.12359619140625,-0.12725830078125
1760201525283,1404178244,17587,28,-1.027099609375,-0.12725830078125,-0.12921142578125
1760201525283,1404178244,17587,29,-1.021728515625,-0.12677001953125,-0.11602783203125
1760201525283,1404178244,17587,30,-1.019287109375,-0.13043212890625,-0.13311767578125
1760201525283,1404178244,17587,31,-1.021728515625,-0.12213134765625,-0.13946533203125
1760201527803,1404180817,17588,0,-1.024658203125,-0.12506103515625,-0.12872314453125
1760201527803,1404180817,17588,1,-1.01953125,-0.12408447265625,-0.12237548828125
1760201527803,1404180817,17588,2,-1.023681640625,-0.12530517578125,-0.12481689453125
1760201527803,1404180817,17588,3,-1.028076171875,-0.12579345703125,-0.12872314453125
1760201527803,1404180817,17588,4,-1.011474609375,-0.11676025390625,-0.13287353515625
1760201527803,1404180817,17588,5,-1.029052734375,-0.12530517578125,-0.11676025390625
1760201527803,1404180817,17588,6,-1.021484375,-0.12628173828125,-0.12847900390625
1760201527803,1404180817,17588,7,-1.021240234375,-0.12213134765625,-0.13458251953125
1760201527803,1404180817,17588,8,-1.022216796875,-0.11993408203125,-0.12213134765625
1760201527803,1404180817,17588,9,-1.02099609375,-0.12213134765625,-0.11968994140625
1760201527803,1404180817,17588,10,-1.020751953125,-0.11993408203125,-0.11822509765625
1760201527803,1404180817,17588,11,-1.026611328125,-0.12628173828125,-0.13092041015625
1760201527803,1404180817,17588,12,-1.022216796875,-0.12213134765625,-0.12530517578125
1760201527803,1404180817,17588,13,-1.023193359375,-0.11895751953125,-0.12530517578125
1760201527803,1404180817,17588,14,-1.019775390625,-0.12261962890625,-0.12213134765625
1760201527803,1404180817,17588,15,-1.0205078125,-0.12115478515625,-0.13458251953125
1760201527803,1404180817,17588,16,-1.022705078125,-0.12261962890625,-0.13067626953125
1760201527803,1404180817,17588,17,-1.023193359375,-0.12261962890625,-0.12188720703125
1760201527803,1404180817,17588,18,-1.02197265625,-0.12384033203125,-0.12481689453125
1760201527803,1404180817,17588,19,-1.02197265625,-0.12066650390625,-0.13262939453125
1760201527803,1404180817,17588,20,-1.024658203125,-0.11846923828125,-0.12652587890625
1760201527803,1404180817,17588,21,-1.020263671875,-0.11676025390625,-0.12969970703125
1760201527803,1404180817,17588,22,-1.020751953125,-0.12335205078125,-0.12945556640625
1760201527803,1404180817,17588,23,-1.02197265625,-0.12188720703125,-0.12701416015625
1760201527803,1404180817,17588,24,-1.025390625,-0.12139892578125,-0.12310791015625
1760201527803,1404180817,17588,25,-1.026123046875,-0.11676025390625,-0.12554931640625
1760201527803,1404180817,17588,26,-1.021240234375,-0.12310791015625,-0.13165283203125
1760201527803,1404180817,17588,27,-1.02490234375,-0.11724853515625,-0.11578369140625
1760201527803,1404180817,17588,28,-1.0244140625,-0.12481689453125,-0.13702392578125
1760201527803,1404180817,17588,29,-1.01953125,-0.11553955078125,-0.12847900390625
1760201527803,1404180817,17588,30,-1.021240234375,-0.12017822265625,-0.14190673828125
1760201527803,1404180817,17588,31,-1.027587890625,-0.12432861328125,-0.13165283203125
1760201530503,1404183391,17589,0,-1.02099609375,-0.11724853515625,-0.12725830078125
1760201530503,1404183391,17589,1,-1.0205078125,-0.11602783203125,-0.13140869140625
1760201530503,1404183391,17589,2,-1.0234375,-0.11724853515625,-0.12799072265625
1760201530503,1404183391,17589,3,-1.01953125,-0.12335205078125,-0.12750244140625
1760201530503,1404183391,17589,4,-1.021728515625,-0.12066650390625,-0.12579345703125
1760201530503,1404183391,17589,5,-1.029541015625,-0.11773681640625,-0.11846923828125
1760201530503,1404183391,17589,6,-1.00537109375,-0.11553955078125,-0.13409423828125
1760201530503,1404183391,17589,7,-1.044677734375,-0.12384033203125,-0.10626220703125
1760201530503,1404183391,17589,8,-1.025146484375,-0.12359619140625,-0.11016845703125
1760201530503,1404183391,17589,9,-1.012451171875,-0.11163330078125,-0.13043212890625
1760201530503,1404183391,17589,10,-1.028564453125,-0.11822509765625,-0.14068603515625
1760201530503,1404183391,17589,11,-1.0068359375,-0.11871337890625,-0.14068603515625
1760201530503,1404183391,17589,12,-1.02197265625,-0.13409423828125,-0.16705322265625
1760201530503,1404183391,17589,13,-1.021240234375,-0.12652587890625,-0.13214111328125
1760201530503,1404183391,17589,14,-1.01611328125,-0.12530517578125,-0.15338134765625
1760201530503,1404183391,17589,15,-1.028076171875,-0.11944580078125,-0.13360595703125
1760201530503,1404183391,17589,16,-1.0224609375,-0.12359619140625,-0.14093017578125
1760201530503,1404183391,17589,17,-1.01806640625,-0.12554931640625,-0.14239501953125
1760201530503,1404183391,17589,18,-1.032958984375,-0.12164306640625,-0.13458251953125
1760201530503,1404183391,17589,19,-1.026611328125,-0.12042236328125,-0.12237548828125
1760201530503,1404183391,17589,20,-1.028076171875,-0.12261962890625,-0.14385986328125
1760201530503,1404183391,17589,21,-1.01220703125,-0.11993408203125,-0.14434814453125
1760201530503,1404183391,17589,22,-1.021728515625,-0.12530517578125,-0.15533447265625
1760201530503,1404183391,17589,23,-1.01416015625,-0.12750244140625,-0.17071533203125
1760201530503,1404183391,17589,24,-1.013671875,-0.12994384765625,-0.16778564453125
1760201530503,1404183391,17589,25,-1.027099609375,-0.13214111328125,-0.15191650390625
1760201530503,1404183391,17589,26,-1.011962890625,-0.11309814453125,-0.15045166015625
1760201530503,1404183391,17589,27,-1.02880859375,-0.11480712890625,-0.14288330078125
1760201530503,1404183391,17589,28,-1.0107421875,-0.12603759765625,-0.15606689453125
1760201530503,1404183391,17589,29,-1.026611328125,-0.12945556640625,-0.14874267578125
1760201530503,1404183391,17589,30,-1.01904296875,-0.12432861328125,-0.14849853515625
1760201530503,1404183391,17589,31,-1.02001953125,-0.11602783203125,-0.13531494140625
1760201533024,1404185964,17590,0,-1.0224609375,-0.11822509765625,-0.14630126953125
1760201533024,1404185964,17590,1,-1.0185546875,-0.11944580078125,-0.14263916015625
1760201533024,1404185964,17590,2,-1.01904296875,-0.12725830078125,-0.13262939453125
1760201533024,1404185964,17590,3,-1.02587890625,-0.12310791015625,-0.13433837890625
1760201533024,1404185964,17590,4,-1.019775390625,-0.11480712890625,-0.13629150390625
1760201533024,1404185964,17590,5,-1.022216796875,-0.11602783203125,-0.12969970703125
1760201533024,1404185964,17590,6,-1.020263671875,-0.11895751953125,-0.13775634765625
1760201533024,1404185964,17590,7,-1.025146484375,-0.12261962890625,-0.12530517578125
1760201533024,1404185964,17590,8,-1.019775390625,-0.12310791015625,-0.14361572265625
1760201533024,1404185964,17590,9,-1.02001953125,-0.11212158203125,-0.13482666015625
1760201533024,1404185964,17590,10,-1.025146484375,-0.11895751953125,-0.13726806640625
1760201533024,1404185964,17590,11,-1.022705078125,-0.11993408203125,-0.12945556640625
1760201533024,1404185964,17590,12,-1.020263671875,-0.11968994140625,-0.13287353515625
1760201533024,1404185964,17590,13,-1.023193359375,-0.11798095703125,-0.13775634765625
1760201533024,1404185964,17590,14,-1.021484375,-0.11480712890625,-0.13336181640625
1760201533024,1404185964,17590,15,-1.023681640625,-0.11993408203125,-0.12969970703125
1760201533024,1404185964,17590,16,-1.023193359375,-0.11627197265625,-0.12921142578125
1760201533024,1404185964,17590,17,-1.02001953125,-0.11676025390625,-0.13531494140625
1760201533024,1404185964,17590,18,-1.0234375,-0.11749267578125,-0.12628173828125
1760201533024,1404185964,17590,19,-1.021728515625,-0.11627197265625,-0.13018798828125
1760201533024,1404185964,17590,20,-1.025146484375,-0.11871337890625,-0.12384033203125
1760201533024,1404185964,17590,21,-1.020751953125,-0.11920166015625,-0.12896728515625
1760201533024,1404185964,17590,22,-1.022216796875,-0.11627197265625,-0.12921142578125
1760201533024,1404185964,17590,23,-1.02294921875,-0.11358642578125,-0.13116455078125
1760201533024,1404185964,17590,24,-1.025390625,-0.12042236328125,-0.11871337890625
1760201533024,1404185964,17590,25,-1.021240234375,-0.12139892578125,-0.13189697265625
1760201533024,1404185964,17590,26,-1.020263671875,-0.11236572265625,-0.12945556640625
1760201533024,1404185964,17590,27,-1.030029296875,-0.11944580078125,-0.12310791015625
1760201533024,1404185964,17590,28,-1.026123046875,-0.11187744140625,-0.11968994140625
1760201533024,1404185964,17590,29,-1.0205078125,-0.12359619140625,-0.14215087890625
1760201533024,1404185964,17590,30,-1.020751953125,-0.12115478515625,-0.14581298828125
1760201533024,1404185964,17590,31,-1.01806640625,-0.12652587890625,-0.15777587890625
1760201535542,1404188537,17591,0,-1.008056640625,-0.12750244140625,-0.17340087890625
1760201535542,1404188537,17591,1,-1.02099609375,-0.13018798828125,-0.17022705078125
1760201535542,1404188537,17591,2,-1.018798828125,-0.13116455078125,-0.15728759765625
1760201535542,1404188537,17591,3,-1.017578125,-0.11895751953125,-0.15338134765625
1760201535542,1404188537,17591,4,-1.022705078125,-0.12017822265625,-0.15045166015625
1760201535542,1404188537,17591,5,-1.018310546875,-0.12725830078125,-0.15435791015625
1760201535542,1404188537,17591,6,-1.020751953125,-0.12921142578125,-0.15557861328125
1760201535542,1404188537,17591,7,-1.022705078125,-0.12628173828125,-0.14459228515625
1760201535542,1404188537,17591,8,-1.020751953125,-0.12091064453125,-0.14556884765625
1760201535542,1404188537,17591,9,-1.02392578125,-0.12286376953125,-0.14239501953125
1760201535542,1404188537,17591,10,-1.0205078125,-0.12384033203125,-0.14971923828125
1760201535542,1404188537,17591,11,-1.021240234375,-0.12384033203125,-0.14532470703125
1760201535542,1404188537,17591,12,-1.02490234375,-0.12261962890625,-0.14581298828125
1760201535542,1404188537,17591,13,-1.019287109375,-0.12237548828125,-0.13702392578125
1760201535542,1404188537,17591,14,-1.021728515625,-0.12310791015625,-0.14288330078125
1760201535542,1404188537,17591,15,-1.01953125,-0.11724853515625,-0.13238525390625
1760201535542,1404188537,17591,16,-1.029052734375,-0.12432861328125,-0.13580322265625
1760201535542,1404188537,17591,17,-1.014404296875,-0.11968994140625,-0.14581298828125
1760201535542,1404188537,17591,18,-1.026611328125,-0.12530517578125,-0.12628173828125
1760201535542,1404188537,17591,19,-1.019287109375,-0.12164306640625,-0.13726806640625
1760201535542,1404188537,17591,20,-1.024169921875,-0.11676025390625,-0.13067626953125
1760201535542,1404188537,17591,21,-1.021240234375,-0.11773681640625,-0.13018798828125
1760201535542,1404188537,17591,22,-1.024658203125,-0.12213134765625,-0.12750244140625
1760201535542,1404188537,17591,23,-1.02587890625,-0.11871337890625,-0.12774658203125
1760201535542,1404188537,17591,24,-1.01904296875,-0.11700439453125,-0.13555908203125
1760201535542,1404188537,17591,25,-1.0263671875,-0.12091064453125,-0.13238525390625
1760201535542,1404188537,17591,26,-1.030517578125,-0.11846923828125,-0.12310791015625
1760201535542,1404188537,17591,27,-1.018798828125,-0.12237548828125,-0.13409423828125
1760201535542,1404188537,17591,28,-1.022705078125,-0.12164306640625,-0.15997314453125
1760201535542,1404188537,17591,29,-1.0048828125,-0.12579345703125,-0.18927001953125
1760201535542,1404188537,17591,30,-1.008056640625,-0.13604736328125,-0.18927001953125
1760201535542,1404188537,17591,31,-1.028564453125,-0.13702392578125,-0.16656494140625
1760201538244,1404191110,17592,0,-1.00732421875,-0.12896728515625,-0.16607666015625
1760201538244,1404191110,17592,1,-1.020263671875,-0.11016845703125,-0.16387939453125
1760201538244,1404191110,17592,2,-1.023681640625,-0.12042236328125,-0.15972900390625
1760201538244,1404191110,17592,3,-1.019775390625,-0.13507080078125,-0.15142822265625
1760201538244,1404191110,17592,4,-1.020751953125,-0.12457275390625,-0.15093994140625
1760201538244,1404191110,17592,5,-1.02099609375,-0.12261962890625,-0.14898681640625
1760201538244,1404191110,17592,6,-1.02197265625,-0.12139892578125,-0.15020751953125
1760201538244,1404191110,17592,7,-1.0205078125,-0.12139892578125,-0.14556884765625
1760201538244,1404191110,17592,8,-1.025390625,-0.12506103515625,-0.14532470703125
1760201538244,1404191110,17592,9,-1.01904296875,-0.12261962890625,-0.13580322265625
1760201538244,1404191110,17592,10,-1.022705078125,-0.12261962890625,-0.13897705078125
1760201538244,1404191110,17592,11,-1.022705078125,-0.11651611328125,-0.12506103515625
1760201538244,1404191110,17592,12,-1.0205078125,-0.11993408203125,-0.14288330078125
1760201538244,1404191110,17592,13,-1.022216796875,-0.11724853515625,-0.13555908203125
1760201538244,1404191110,17592,14,-1.023193359375,-0.12457275390625,-0.13311767578125
1760201538244,1404191110,17592,15,-1.02392578125,-0.12213134765625,-0.13482666015625
1760201538244,1404191110,17592,16,-1.018310546875,-0.11895751953125,-0.14117431640625
1760201538244,1404191110,17592,17,-1.02880859375,-0.11627197265625,-0.12701416015625
1760201538244,1404191110,17592,18,-1.012451171875,-0.12725830078125,-0.15338134765625
1760201538244,1404191110,17592,19,-1.028564453125,-0.11651611328125,-0.12432861328125
1760201538244,1404191110,17592,20,-1.020263671875,-0.11773681640625,-0.13507080078125
1760201538244,1404191110,17592,21,-1.01953125,-0.11602783203125,-0.13214111328125
1760201538244,1404191110,17592,22,-1.02392578125,-0.11456298828125,-0.13677978515625
1760201538244,1404191110,17592,23,-1.0234375,-0.11993408203125,-0.12530517578125
1760201538244,1404191110,17592,24,-1.0263671875,-0.12286376953125,-0.12823486328125
1760201538244,1404191110,17592,25,-1.023681640625,-0.11285400390625,-0.11529541015625
1760201538244,1404191110,17592,26,-1.029052734375,-0.11822509765625,-0.11041259765625
1760201538244,1404191110,17592,27,-1.02783203125,-0.12237548828125,-0.14141845703125
1760201538244,1404191110,17592,28,-1.011474609375,-0.11309814453125,-0.13922119140625
1760201538244,1404191110,17592,29,-1.017578125,-0.12994384765625,-0.17218017578125
1760201538244,1404191110,17592,30,-1.008056640625,-0.12799072265625,-0.17242431640625
1760201538244,1404191110,17592,31,-1.0302734375,-0.13360595703125,-0.15557861328125
1760201540763,1404193683,17593,0,-1.0146484375,-0.12384033203125,-0.14678955078125
1760201540763,1404193683,17593,1,-1.0185546875,-0.10968017578125,-0.14141845703125
1760201540763,1404193683,17593,2,-1.0234375,-0.11773681640625,-0.15338134765625
1760201540763,1404193683,17593,3,-1.023681640625,-0.12896728515625,-0.14361572265625
1760201540763,1404193683,17593,4,-1.018310546875,-0.13092041015625,-0.14483642578125
1760201540763,1404193683,17593,5,-1.021728515625,-0.12091064453125,-0.12994384765625
1760201540763,1404193683,17593,6,-1.02294921875,-0.11505126953125,-0.13433837890625
1760201540763,1404193683,17593,7,-1.023681640625,-0.11846923828125,-0.13262939453125
1760201540763,1404193683,17593,8,-1.019775390625,-0.12042236328125,-0.14141845703125
1760201540763,1404193683,17593,9,-1.02880859375,-0.12530517578125,-0.12286376953125
1760201540763,1404193683,17593,10,-1.020263671875,-0.12042236328125,-0.13092041015625
1760201540763,1404193683,17593,11,-1.02392578125,-0.11627197265625,-0.12506103515625
1760201540763,1404193683,17593,12,-1.016845703125,-0.11993408203125,-0.13067626953125
1760201540763,1404193683,17593,13,-1.024169921875,-0.11749267578125,-0.11822509765625
1760201540763,1404193683,17593,14,-1.02587890625,-0.12188720703125,-0.12384033203125
1760201540763,1404193683,17593,15,-1.01806640625,-0.11920166015625,-0.13336181640625
1760201540763,1404193683,17593,16,-1.02392578125,-0.11798095703125,-0.12677001953125
1760201540763,1404193683,17593,17,-1.02001953125,-0.12042236328125,-0.12750244140625
1760201540763,1404193683,17593,18,-1.023193359375,-0.11822509765625,-0.12750244140625
1760201540763,1404193683,17593,19,-1.02197265625,-0.12384033203125,-0.13116455078125
1760201540763,1404193683,17593,20,-1.021728515625,-0.11676025390625,-0.12872314453125
1760201540763,1404193683,17593,21,-1.02490234375,-0.11529541015625,-0.12188720703125
1760201540763,1404193683,17593,22,-1.021728515625,-0.11651611328125,-0.12725830078125
1760201540763,1404193683,17593,23,-1.02587890625,-0.12335205078125,-0.12579345703125
1760201540763,1404193683,17593,24,-1.02392578125,-0.11993408203125,-0.12579345703125
1760201540763,1404193683,17593,25,-1.0224609375,-0.11627197265625,-0.12164306640625
1760201540763,1404193683,17593,26,-1.028076171875,-0.11431884765625,-0.12359619140625
1760201540763,1404193683,17593,27,-1.020263671875,-0.11871337890625,-0.11993408203125
1760201540763,1404193683,17593,28,-1.0361328125,-0.11968994140625,-0.11456298828125
1760201540763,1404193683,17593,29,-1.02197265625,-0.11676025390625,-0.12432861328125
1760201540763,1404193683,17593,30,-1.025146484375,-0.10845947265625,-0.12725830078125
1760201540763,1404193683,17593,31,-1.001953125,-0.12823486328125,-0.16314697265625
1760201543284,1404196256,17594,0,-1.026123046875,-0.13214111328125,-0.16680908203125
1760201543284,1404196256,17594,1,-1.0078125,-0.13238525390625,-0.18023681640625
1760201543284,1404196256,17594,2,-1.011474609375,-0.12774658203125,-0.18243408203125
1760201543284,1404196256,17594,3,-1.03564453125,-0.12603759765625,-0.14581298828125
1760201543284,1404196256,17594,4,-1.01220703125,-0.11798095703125,-0.15753173828125
1760201543284,1404196256,17594,5,-1.01953125,-0.10821533203125,-0.14923095703125
1760201543284,1404196256,17594,6,-1.0263671875,-0.12530517578125,-0.14117431640625
1760201543284,1404196256,17594,7,-1.01416015625,-0.13165283203125,-0.16241455078125
1760201543284,1404196256,17594,8,-1.025390625,-0.12164306640625,-0.13653564453125
1760201543284,1404196256,17594,9,-1.01806640625,-0.11773681640625,-0.15045166015625
1760201543284,1404196256,17594,10,-1.0224609375,-0.11212158203125,-0.13922119140625
1760201543284,1404196256,17594,11,-1.019775390625,-0.12213134765625,-0.14703369140625
1760201543284,1404196256,17594,12,-1.025390625,-0.12554931640625,-0.13946533203125
1760201543284,1404196256,17594,13,-1.02099609375,-0.12481689453125,-0.14117431640625
1760201543284,1404196256,17594,14,-1.02587890625,-0.11676025390625,-0.13751220703125
1760201543284,1404196256,17594,15,-1.020263671875,-0.11798095703125,-0.13214111328125
1760201543284,1404196256,17594,16,-1.02099609375,-0.11895751953125,-0.13726806640625
1760201543284,1404196256,17594,17,-1.023193359375,-0.12188720703125,-0.13970947265625
1760201543284,1404196256,17594,18,-1.024169921875,-0.12042236328125,-0.13214111328125
1760201543284,1404196256,17594,19,-1.025146484375,-0.12091064453125,-0.12628173828125
1760201543284,1404196256,17594,20,-1.02294921875,-0.11944580078125,-0.14434814453125
1760201543284,1404196256,17594,21,-1.007568359375,-0.11700439453125,-0.16705322265625
1760201543284,1404196256,17594,22,-1.0166015625,-0.12677001953125,-0.17047119140625
1760201543284,1404196256,17594,23,-1.02783203125,-0.13092041015625,-0.14361572265625
1760201543284,1404196256,17594,24,-1.017333984375,-0.12554931640625,-0.14971923828125
1760201543284,1404196256,17594,25,-1.029296875,-0.10992431640625,-0.13629150390625
1760201543284,1404196256,17594,26,-1.015625,-0.11480712890625,-0.14361572265625
1760201543284,1404196256,17594,27,-1.021728515625,-0.12652587890625,-0.14068603515625
1760201543284,1404196256,17594,28,-1.0224609375,-0.12872314453125,-0.13385009765625
1760201543284,1404196256,17594,29,-1.02197265625,-0.12579345703125,-0.14019775390625
1760201543284,1404196256,17594,30,-1.02197265625,-0.11309814453125,-0.13970947265625
1760201543284,1404196256,17594,31,-1.022216796875,-0.11529541015625,-0.13848876953125
1760201545803,1404198829,17595,0,-1.0244140625,-0.11993408203125,-0.13580322265625
1760201545803,1404198829,17595,1,-1.0234375,-0.12481689453125,-0.12774658203125
1760201545803,1404198829,17595,2,-1.02587890625,-0.11798095703125,-0.12530517578125
1760201545803,1404198829,17595,3,-1.023681640625,-0.11749267578125,-0.12652587890625
1760201545803,1404198829,17595,4,-1.023681640625,-0.11993408203125,-0.13824462890625
1760201545803,1404198829,17595,5,-1.0126953125,-0.12017822265625,-0.15948486328125
1760201545803,1404198829,17595,6,-1.02001953125,-0.12628173828125,-0.15679931640625
1760201545803,1404198829,17595,7,-1.0244140625,-0.12237548828125,-0.13702392578125
1760201545803,1404198829,17595,8,-1.020751953125,-0.11529541015625,-0.13067626953125
1760201545803,1404198829,17595,9,-1.02197265625,-0.11578369140625,-0.13873291015625
1760201545803,1404198829,17595,10,-1.0234375,-0.11505126953125,-0.13507080078125
1760201545803,1404198829,17595,11,-1.02099609375,-0.12188720703125,-0.13677978515625
1760201545803,1404198829,17595,12,-1.018798828125,-0.11895751953125,-0.13287353515625
1760201545803,1404198829,17595,13,-1.028564453125,-0.11798095703125,-0.12139892578125
1760201545803,1404198829,17595,14,-1.0185546875,-0.11700439453125,-0.13653564453125
1760201545803,1404198829,17595,15,-1.02783203125,-0.11651611328125,-0.12750244140625
1760201545803,1404198829,17595,16,-1.021484375,-0.12042236328125,-0.13433837890625
1760201545803,1404198829,17595,17,-1.024169921875,-0.11993408203125,-0.12530517578125
1760201545803,1404198829,17595,18,-1.020263671875,-0.11798095703125,-0.13116455078125
1760201545803,1404198829,17595,19,-1.0224609375,-0.11602783203125,-0.12799072265625
1760201545803,1404198829,17595,20,-1.02294921875,-0.11309814453125,-0.13262939453125
1760201545803,1404198829,17595,21,-1.020263671875,-0.11236572265625,-0.12481689453125
1760201545803,1404198829,17595,22,-1.0234375,-0.12310791015625,-0.12652587890625
