receivedPhoneTimestamp,respeckTimestamp,packetSeqNum,sampleSeqNum,accelX,accelY,accelZ
1759748094423,935393652,29614,0,0.086181640625,-0.10357666015625,-1.00299072265625
1759748094423,935393652,29614,1,0.08740234375,-0.10504150390625,-1.00909423828125
1759748094423,935393652,29614,2,0.0888671875,-0.10748291015625,-1.01739501953125
1759748094423,935393652,29614,3,0.087158203125,-0.10772705078125,-1.01788330078125
1759748094423,935393652,29614,4,0.085205078125,-0.11163330078125,-1.01495361328125
1759748094423,935393652,29614,5,0.08642578125,-0.10406494140625,-1.01031494140625
1759748094423,935393652,29614,6,0.089111328125,-0.10699462890625,-1.00640869140625
1759748094423,935393652,29614,7,0.095458984375,-0.10894775390625,-1.01055908203125
1759748094423,935393652,29614,8,0.093017578125,-0.10675048828125,-1.01275634765625
1759748094423,935393652,29614,9,0.090087890625,-0.11578369140625,-1.01544189453125
1759748094423,935393652,29614,10,0.09423828125,-0.10919189453125,-1.01934814453125
1759748094423,935393652,29614,11,0.088623046875,-0.10284423828125,-1.01055908203125
1759748094423,935393652,29614,12,0.08837890625,-0.10870361328125,-1.00054931640625
1759748094423,935393652,29614,13,0.078857421875,-0.10382080078125,-1.00982666015625
1759748094423,935393652,29614,14,0.077880859375,-0.10406494140625,-1.01177978515625
1759748094423,935393652,29614,15,0.082763671875,-0.09918212890625,-1.01519775390625
1759748094423,935393652,29614,16,0.0908203125,-0.10479736328125,-1.00982666015625
1759748094423,935393652,29614,17,0.087158203125,-0.09429931640625,-1.00982666015625
1759748094423,935393652,29614,18,0.085205078125,-0.10186767578125,-1.01007080078125
1759748094423,935393652,29614,19,0.082763671875,-0.09942626953125,-1.01812744140625
1759748094423,935393652,29614,20,0.07666015625,-0.09625244140625,-1.01202392578125
1759748094423,935393652,29614,21,0.082275390625,-0.09649658203125,-1.00494384765625
1759748094423,935393652,29614,22,0.07861328125,-0.10089111328125,-1.00592041015625
1759748094423,935393652,29614,23,0.08251953125,-0.10675048828125,-1.01739501953125
1759748094423,935393652,29614,24,0.081298828125,-0.10455322265625,-1.03228759765625
1759748094423,935393652,29614,25,0.07861328125,-0.09722900390625,-1.00762939453125
1759748094423,935393652,29614,26,0.074462890625,-0.09381103515625,-0.99981689453125
1759748094423,935393652,29614,27,0.079833984375,-0.09967041015625,-1.01544189453125
1759748094423,935393652,29614,28,0.08349609375,-0.09771728515625,-1.02008056640625
1759748094423,935393652,29614,29,0.082763671875,-0.09820556640625,-1.01617431640625
1759748094423,935393652,29614,30,0.073974609375,-0.09869384765625,-1.00787353515625
1759748094423,935393652,29614,31,0.07763671875,-0.09356689453125,-1.00250244140625
1759748097154,935396195,29615,0,0.072021484375,-0.09771728515625,-1.01373291015625
1759748097154,935396195,29615,1,0.079833984375,-0.09918212890625,-1.02276611328125
1759748097154,935396195,29615,2,0.07763671875,-0.10406494140625,-1.01495361328125
1759748097154,935396195,29615,3,0.081298828125,-0.10308837890625,-1.01324462890625
1759748097154,935396195,29615,4,0.078857421875,-0.10235595703125,-1.01348876953125
1759748097154,935396195,29615,5,0.080322265625,-0.10137939453125,-1.02056884765625
1759748097154,935396195,29615,6,0.078125,-0.10308837890625,-1.02081298828125
1759748097154,935396195,29615,7,0.07763671875,-0.10137939453125,-1.01055908203125
1759748097154,935396195,29615,8,0.084716796875,-0.10235595703125,-1.00616455078125
1759748097154,935396195,29615,9,0.087158203125,-0.10089111328125,-1.01812744140625
1759748097154,935396195,29615,10,0.087890625,-0.09722900390625,-1.00640869140625
1759748097154,935396195,29615,11,0.089111328125,-0.09869384765625,-1.00933837890625
1759748097154,935396195,29615,12,0.0908203125,-0.09918212890625,-1.00616455078125
1759748097154,935396195,29615,13,0.08984375,-0.09259033203125,-1.01739501953125
1759748097154,935396195,29615,14,0.0908203125,-0.08917236328125,-1.01373291015625
1759748097154,935396195,29615,15,0.087890625,-0.09136962890625,-1.01202392578125
1759748097154,935396195,29615,16,0.092041015625,-0.08990478515625,-1.01544189453125
1759748097154,935396195,29615,17,0.091064453125,-0.08624267578125,-1.02081298828125
1759748097154,935396195,29615,18,0.088134765625,-0.08526611328125,-1.01153564453125
1759748097154,935396195,29615,19,0.089599609375,-0.08477783203125,-1.01397705078125
1759748097154,935396195,29615,20,0.092529296875,-0.08526611328125,-1.01397705078125
1759748097154,935396195,29615,21,0.093017578125,-0.08526611328125,-1.01275634765625
1759748097154,935396195,29615,22,0.093994140625,-0.08502197265625,-1.01226806640625
1759748097154,935396195,29615,23,0.08837890625,-0.08428955078125,-1.01007080078125
1759748097154,935396195,29615,24,0.094970703125,-0.08526611328125,-1.00543212890625
1759748097154,935396195,29615,25,0.09033203125,-0.08428955078125,-1.00567626953125
1759748097154,935396195,29615,26,0.094482421875,-0.08795166015625,-1.02398681640625
1759748097154,935396195,29615,27,0.087158203125,-0.08428955078125,-1.01544189453125
1759748097154,935396195,29615,28,0.091796875,-0.08380126953125,-1.00567626953125
1759748097154,935396195,29615,29,0.09228515625,-0.08233642578125,-1.00299072265625
1759748097154,935396195,29615,30,0.09423828125,-0.08526611328125,-1.02349853515625
1759748097154,935396195,29615,31,0.095458984375,-0.08795166015625,-1.02178955078125
1759748099494,935398739,29616,0,0.09228515625,-0.08892822265625,-1.00860595703125
1759748099494,935398739,29616,1,0.095703125,-0.08526611328125,-1.00494384765625
1759748099494,935398739,29616,2,0.0947265625,-0.08404541015625,-1.01275634765625
1759748099494,935398739,29616,3,0.09912109375,-0.08599853515625,-1.01177978515625
1759748099494,935398739,29616,4,0.0927734375,-0.08648681640625,-1.00714111328125
1759748099494,935398739,29616,5,0.0908203125,-0.08843994140625,-1.01153564453125
1759748099494,935398739,29616,6,0.090576171875,-0.09112548828125,-1.01983642578125
1759748099494,935398739,29616,7,0.088134765625,-0.08868408203125,-1.02056884765625
1759748099494,935398739,29616,8,0.0869140625,-0.09039306640625,-1.00933837890625
1759748099494,935398739,29616,9,0.095947265625,-0.09210205078125,-1.00543212890625
1759748099494,935398739,29616,10,0.096435546875,-0.09136962890625,-1.01519775390625
1759748099494,935398739,29616,11,0.0966796875,-0.09234619140625,-1.01983642578125
1759748099494,935398739,29616,12,0.09326171875,-0.09356689453125,-1.00933837890625
1759748099494,935398739,29616,13,0.09423828125,-0.09478759765625,-1.00299072265625
1759748099494,935398739,29616,14,0.0966796875,-0.09332275390625,-1.01348876953125
1759748099494,935398739,29616,15,0.09375,-0.09136962890625,-1.01519775390625
1759748099494,935398739,29616,16,0.09521484375,-0.09259033203125,-1.00982666015625
1759748099494,935398739,29616,17,0.094970703125,-0.09234619140625,-1.01055908203125
1759748099494,935398739,29616,18,0.098388671875,-0.09136962890625,-1.01055908203125
1759748099494,935398739,29616,19,0.1015625,-0.09014892578125,-1.01568603515625
1759748099494,935398739,29616,20,0.099609375,-0.08892822265625,-1.01007080078125
1759748099494,935398739,29616,21,0.099853515625,-0.08819580078125,-1.00616455078125
1759748099494,935398739,29616,22,0.100830078125,-0.09136962890625,-1.01446533203125
1759748099494,935398739,29616,23,0.09765625,-0.08990478515625,-1.01593017578125
1759748099494,935398739,29616,24,0.097900390625,-0.08966064453125,-1.01202392578125
1759748099494,935398739,29616,25,0.101318359375,-0.08721923828125,-1.00128173828125
1759748099494,935398739,29616,26,0.103271484375,-0.08502197265625,-1.00445556640625
1759748099494,935398739,29616,27,0.099853515625,-0.09039306640625,-1.02008056640625
1759748099494,935398739,29616,28,0.09765625,-0.08868408203125,-1.02105712890625
1759748099494,935398739,29616,29,0.09228515625,-0.08917236328125,-1.00909423828125
1759748099494,935398739,29616,30,0.09716796875,-0.08648681640625,-1.00494384765625
1759748099494,935398739,29616,31,0.0966796875,-0.08428955078125,-1.01446533203125
1759748102029,935401282,29617,0,0.09326171875,-0.08502197265625,-1.01763916015625
1759748102029,935401282,29617,1,0.08984375,-0.09039306640625,-1.01153564453125
1759748102029,935401282,29617,2,0.091552734375,-0.09039306640625,-1.01617431640625
1759748102029,935401282,29617,3,0.094482421875,-0.08819580078125,-1.01397705078125
1759748102029,935401282,29617,4,0.093505859375,-0.08746337890625,-1.00665283203125
1759748102029,935401282,29617,5,0.09130859375,-0.09063720703125,-1.00567626953125
1759748102029,935401282,29617,6,0.09375,-0.08966064453125,-1.01226806640625
1759748102029,935401282,29617,7,0.095458984375,-0.08526611328125,-1.01153564453125
1759748102029,935401282,29617,8,0.09716796875,-0.08819580078125,-1.00738525390625
1759748102029,935401282,29617,9,0.099365234375,-0.09112548828125,-1.00860595703125
1759748102029,935401282,29617,10,0.09814453125,-0.09039306640625,-1.01348876953125
1759748102029,935401282,29617,11,0.095703125,-0.08721923828125,-1.01519775390625
1759748102029,935401282,29617,12,0.095458984375,-0.08819580078125,-1.01348876953125
1759748102029,935401282,29617,13,0.094482421875,-0.08697509765625,-1.01007080078125
1759748102029,935401282,29617,14,0.092041015625,-0.08697509765625,-1.00689697265625
1759748102029,935401282,29617,15,0.093505859375,-0.08917236328125,-1.01934814453125
1759748102029,935401282,29617,16,0.0908203125,-0.08990478515625,-1.01861572265625
1759748102029,935401282,29617,17,0.089599609375,-0.08721923828125,-1.00811767578125
1759748102029,935401282,29617,18,0.094482421875,-0.08624267578125,-1.01715087890625
1759748102029,935401282,29617,19,0.09619140625,-0.08551025390625,-1.01202392578125
1759748102029,935401282,29617,20,0.09423828125,-0.08331298828125,-1.00787353515625
1759748102029,935401282,29617,21,0.095458984375,-0.08404541015625,-1.01251220703125
1759748102029,935401282,29617,22,0.092041015625,-0.08502197265625,-1.01715087890625
1759748102029,935401282,29617,23,0.08935546875,-0.08624267578125,-1.01715087890625
1759748102029,935401282,29617,24,0.089111328125,-0.08502197265625,-1.01153564453125
1759748102029,935401282,29617,25,0.089599609375,-0.08721923828125,-1.01226806640625
1759748102029,935401282,29617,26,0.091796875,-0.08428955078125,-1.01080322265625
1759748102029,935401282,29617,27,0.093017578125,-0.08087158203125,-1.00494384765625
1759748102029,935401282,29617,28,0.092041015625,-0.08038330078125,-1.00372314453125
1759748102029,935401282,29617,29,0.096435546875,-0.08184814453125,-1.01324462890625
1759748102029,935401282,29617,30,0.09326171875,-0.08502197265625,-1.01690673828125
1759748102029,935401282,29617,31,0.092529296875,-0.08673095703125,-1.01324462890625
1759748104759,935403825,29618,0,0.090087890625,-0.08404541015625,-1.01568603515625
1759748104759,935403825,29618,1,0.088134765625,-0.09063720703125,-1.02301025390625
1759748104759,935403825,29618,2,0.087890625,-0.08990478515625,-1.01275634765625
1759748104759,935403825,29618,3,0.08056640625,-0.09283447265625,-1.00567626953125
1759748104759,935403825,29618,4,0.081298828125,-0.09405517578125,-1.00738525390625
1759748104759,935403825,29618,5,0.081787109375,-0.09429931640625,-1.01324462890625
1759748104759,935403825,29618,6,0.0859375,-0.09576416015625,-1.01885986328125
1759748104759,935403825,29618,7,0.083984375,-0.09698486328125,-1.01177978515625
1759748104759,935403825,29618,8,0.081787109375,-0.09405517578125,-1.00836181640625
1759748104759,935403825,29618,9,0.08251953125,-0.09136962890625,-1.01690673828125
1759748104759,935403825,29618,10,0.08447265625,-0.09283447265625,-1.01666259765625
1759748104759,935403825,29618,11,0.0849609375,-0.09307861328125,-1.01007080078125
1759748104759,935403825,29618,12,0.085693359375,-0.09234619140625,-1.00665283203125
1759748104759,935403825,29618,13,0.08544921875,-0.09259033203125,-1.01495361328125
1759748104759,935403825,29618,14,0.08642578125,-0.09088134765625,-1.01300048828125
1759748104759,935403825,29618,15,0.0869140625,-0.09161376953125,-1.01055908203125
1759748104759,935403825,29618,16,0.083984375,-0.09063720703125,-1.01007080078125
1759748104759,935403825,29618,17,0.086669921875,-0.09161376953125,-1.01007080078125
1759748104759,935403825,29618,18,0.0888671875,-0.08966064453125,-1.01641845703125
1759748104759,935403825,29618,19,0.08935546875,-0.09210205078125,-1.01300048828125
1759748104759,935403825,29618,20,0.087890625,-0.08917236328125,-1.01177978515625
1759748104759,935403825,29618,21,0.084716796875,-0.08966064453125,-1.01251220703125
1759748104759,935403825,29618,22,0.085205078125,-0.08624267578125,-1.01641845703125
1759748104759,935403825,29618,23,0.08740234375,-0.08624267578125,-1.01275634765625
1759748104759,935403825,29618,24,0.08544921875,-0.08697509765625,-1.01031494140625
1759748104759,935403825,29618,25,0.08935546875,-0.08624267578125,-1.01226806640625
1759748104759,935403825,29618,26,0.0869140625,-0.08624267578125,-1.02203369140625
1759748104759,935403825,29618,27,0.087158203125,-0.08648681640625,-1.00762939453125
1759748104759,935403825,29618,28,0.087158203125,-0.08331298828125,-1.00909423828125
1759748104759,935403825,29618,29,0.089599609375,-0.08380126953125,-1.01348876953125
1759748104759,935403825,29618,30,0.08984375,-0.08502197265625,-1.01324462890625
1759748104759,935403825,29618,31,0.089599609375,-0.08477783203125,-1.01568603515625
1759748107099,935406368,29619,0,0.083740234375,-0.08526611328125,-1.01251220703125
1759748107099,935406368,29619,1,0.08837890625,-0.08551025390625,-1.01251220703125
1759748107099,935406368,29619,2,0.087890625,-0.08209228515625,-1.01983642578125
1759748107099,935406368,29619,3,0.0849609375,-0.08282470703125,-1.01812744140625
1759748107099,935406368,29619,4,0.0859375,-0.08551025390625,-1.01007080078125
1759748107099,935406368,29619,5,0.083251953125,-0.08551025390625,-1.01519775390625
1759748107099,935406368,29619,6,0.0830078125,-0.08575439453125,-1.01885986328125
1759748107099,935406368,29619,7,0.080322265625,-0.08673095703125,-1.01373291015625
1759748107099,935406368,29619,8,0.083984375,-0.08453369140625,-1.01031494140625
1759748107099,935406368,29619,9,0.083740234375,-0.08209228515625,-1.01129150390625
1759748107099,935406368,29619,10,0.08154296875,-0.08404541015625,-1.01324462890625
1759748107099,935406368,29619,11,0.080810546875,-0.08575439453125,-1.01251220703125
1759748107099,935406368,29619,12,0.08251953125,-0.08380126953125,-1.01055908203125
1759748107099,935406368,29619,13,0.0849609375,-0.08062744140625,-1.01202392578125
1759748107099,935406368,29619,14,0.085205078125,-0.08160400390625,-1.01104736328125
1759748107099,935406368,29619,15,0.08642578125,-0.08380126953125,-1.01495361328125
1759748107099,935406368,29619,16,0.08349609375,-0.08111572265625,-1.01202392578125
1759748107099,935406368,29619,17,0.08349609375,-0.08087158203125,-1.01373291015625
1759748107099,935406368,29619,18,0.08984375,-0.08258056640625,-1.01837158203125
1759748107099,935406368,29619,19,0.09033203125,-0.08209228515625,-1.01617431640625
1759748107099,935406368,29619,20,0.094482421875,-0.08404541015625,-1.00225830078125
1759748107099,935406368,29619,21,0.090576171875,-0.08404541015625,-1.01251220703125
1759748107099,935406368,29619,22,0.092041015625,-0.08135986328125,-1.02130126953125
1759748107099,935406368,29619,23,0.093505859375,-0.08160400390625,-1.01739501953125
1759748107099,935406368,29619,24,0.0927734375,-0.08258056640625,-1.00494384765625
1759748107099,935406368,29619,25,0.093994140625,-0.07916259765625,-1.01226806640625
1759748107099,935406368,29619,26,0.093505859375,-0.08062744140625,-1.01641845703125
1759748107099,935406368,29619,27,0.092529296875,-0.08013916015625,-1.01885986328125
1759748107099,935406368,29619,28,0.094970703125,-0.08111572265625,-1.00811767578125
1759748107099,935406368,29619,29,0.093994140625,-0.08111572265625,-1.01177978515625
1759748107099,935406368,29619,30,0.0986328125,-0.07989501953125,-1.02081298828125
1759748107099,935406368,29619,31,0.093994140625,-0.07891845703125,-1.01129150390625
1759748109632,935408911,29620,0,0.09375,-0.07501220703125,-1.00836181640625
1759748109632,935408911,29620,1,0.08935546875,-0.07574462890625,-1.01177978515625
1759748109632,935408911,29620,2,0.093017578125,-0.07745361328125,-1.01837158203125
1759748109632,935408911,29620,3,0.089111328125,-0.07647705078125,-1.01983642578125
1759748109632,935408911,29620,4,0.08837890625,-0.07623291015625,-1.00494384765625
1759748109632,935408911,29620,5,0.090087890625,-0.07550048828125,-1.00396728515625
1759748109632,935408911,29620,6,0.092529296875,-0.07623291015625,-1.01495361328125
1759748109632,935408911,29620,7,0.09521484375,-0.07794189453125,-1.01739501953125
1759748109632,935408911,29620,8,0.090087890625,-0.07525634765625,-1.00592041015625
1759748109632,935408911,29620,9,0.091064453125,-0.07672119140625,-1.00958251953125
1759748109632,935408911,29620,10,0.091796875,-0.07745361328125,-1.01812744140625
1759748109632,935408911,29620,11,0.09375,-0.07623291015625,-1.01470947265625
1759748109632,935408911,29620,12,0.087890625,-0.07769775390625,-1.01226806640625
1759748109632,935408911,29620,13,0.0869140625,-0.07476806640625,-1.01397705078125
1759748109632,935408911,29620,14,0.0859375,-0.07574462890625,-1.01739501953125
1759748109632,935408911,29620,15,0.084716796875,-0.07891845703125,-1.01495361328125
1759748109632,935408911,29620,16,0.089599609375,-0.07867431640625,-1.01373291015625
1759748109632,935408911,29620,17,0.08837890625,-0.07794189453125,-1.01031494140625
1759748109632,935408911,29620,18,0.089599609375,-0.07867431640625,-1.00860595703125
1759748109632,935408911,29620,19,0.089599609375,-0.08062744140625,-1.01007080078125
1759748109632,935408911,29620,20,0.091796875,-0.08013916015625,-1.02056884765625
1759748109632,935408911,29620,21,0.09033203125,-0.07672119140625,-1.01275634765625
1759748109632,935408911,29620,22,0.087158203125,-0.08038330078125,-1.01202392578125
1759748109632,935408911,29620,23,0.08837890625,-0.07720947265625,-1.00738525390625
1759748109632,935408911,29620,24,0.09375,-0.07891845703125,-1.02032470703125
1759748109632,935408911,29620,25,0.092041015625,-0.07720947265625,-1.01910400390625
1759748109632,935408911,29620,26,0.093017578125,-0.07696533203125,-1.01446533203125
1759748109632,935408911,29620,27,0.093017578125,-0.07720947265625,-1.00836181640625
1759748109632,935408911,29620,28,0.0927734375,-0.07891845703125,-1.01495361328125
1759748109632,935408911,29620,29,0.093505859375,-0.08209228515625,-1.01666259765625
1759748109632,935408911,29620,30,0.093505859375,-0.08013916015625,-1.01177978515625
1759748109632,935408911,29620,31,0.095703125,-0.08111572265625,-1.01348876953125
1759748112169,935411454,29621,0,0.09716796875,-0.08184814453125,-1.01422119140625
1759748112169,935411454,29621,1,0.096923828125,-0.08160400390625,-1.00933837890625
1759748112169,935411454,29621,2,0.09716796875,-0.07916259765625,-1.00640869140625
1759748112169,935411454,29621,3,0.100341796875,-0.08013916015625,-1.01495361328125
1759748112169,935411454,29621,4,0.097412109375,-0.07989501953125,-1.01519775390625
1759748112169,935411454,29621,5,0.099365234375,-0.08111572265625,-1.01177978515625
1759748112169,935411454,29621,6,0.095458984375,-0.07940673828125,-1.01104736328125
1759748112169,935411454,29621,7,0.09765625,-0.08111572265625,-1.01202392578125
1759748112169,935411454,29621,8,0.095703125,-0.08209228515625,-1.01324462890625
1759748112169,935411454,29621,9,0.09619140625,-0.08062744140625,-1.01177978515625
1759748112169,935411454,29621,10,0.095947265625,-0.07745361328125,-1.00933837890625
1759748112169,935411454,29621,11,0.095703125,-0.08135986328125,-1.01837158203125
1759748112169,935411454,29621,12,0.093505859375,-0.07916259765625,-1.01690673828125
1759748112169,935411454,29621,13,0.095947265625,-0.07965087890625,-1.00933837890625
1759748112169,935411454,29621,14,0.09521484375,-0.08111572265625,-1.01300048828125
1759748112169,935411454,29621,15,0.094970703125,-0.08062744140625,-1.01739501953125
1759748112169,935411454,29621,16,0.09375,-0.08135986328125,-1.01080322265625
1759748112169,935411454,29621,17,0.089111328125,-0.08209228515625,-1.00860595703125
1759748112169,935411454,29621,18,0.090087890625,-0.07916259765625,-1.01348876953125
1759748112169,935411454,29621,19,0.097412109375,-0.08038330078125,-1.01446533203125
1759748112169,935411454,29621,20,0.09423828125,-0.07843017578125,-1.01275634765625
1759748112169,935411454,29621,21,0.094482421875,-0.07818603515625,-1.01641845703125
1759748112169,935411454,29621,22,0.09375,-0.07891845703125,-1.01763916015625
1759748112169,935411454,29621,23,0.093017578125,-0.07891845703125,-1.00762939453125
1759748112169,935411454,29621,24,0.098388671875,-0.07818603515625,-1.00958251953125
1759748112169,935411454,29621,25,0.0947265625,-0.07745361328125,-1.00811767578125
1759748112169,935411454,29621,26,0.09619140625,-0.08331298828125,-1.01251220703125
1759748112169,935411454,29621,27,0.091064453125,-0.07916259765625,-1.01593017578125
1759748112169,935411454,29621,28,0.091796875,-0.08184814453125,-1.01348876953125
1759748112169,935411454,29621,29,0.092529296875,-0.07891845703125,-1.01397705078125
1759748112169,935411454,29621,30,0.093505859375,-0.07769775390625,-1.01007080078125
1759748112169,935411454,29621,31,0.091796875,-0.07672119140625,-1.01544189453125
1759748114704,935413997,29622,0,0.090087890625,-0.07867431640625,-1.01422119140625
1759748114704,935413997,29622,1,0.089111328125,-0.07647705078125,-1.01007080078125
1759748114704,935413997,29622,2,0.09130859375,-0.07501220703125,-1.01202392578125
1759748114704,935413997,29622,3,0.09375,-0.07965087890625,-1.01177978515625
1759748114704,935413997,29622,4,0.091064453125,-0.07501220703125,-1.01690673828125
1759748114704,935413997,29622,5,0.090576171875,-0.07647705078125,-1.01690673828125
1759748114704,935413997,29622,6,0.090576171875,-0.07403564453125,-1.01251220703125
1759748114704,935413997,29622,7,0.09375,-0.07672119140625,-1.00885009765625
1759748114704,935413997,29622,8,0.08935546875,-0.07501220703125,-1.00714111328125
1759748114704,935413997,29622,9,0.09375,-0.07696533203125,-1.01519775390625
1759748114704,935413997,29622,10,0.092041015625,-0.07305908203125,-1.01861572265625
1759748114704,935413997,29622,11,0.093505859375,-0.07281494140625,-1.00738525390625
1759748114704,935413997,29622,12,0.09326171875,-0.07232666015625,-1.01129150390625
1759748114704,935413997,29622,13,0.095703125,-0.07281494140625,-1.01544189453125
1759748114704,935413997,29622,14,0.091552734375,-0.07208251953125,-1.01519775390625
1759748114704,935413997,29622,15,0.090087890625,-0.07452392578125,-1.01275634765625
1759748114704,935413997,29622,16,0.090087890625,-0.07550048828125,-1.00885009765625
1759748114704,935413997,29622,17,0.093505859375,-0.07623291015625,-1.01666259765625
1759748114704,935413997,29622,18,0.09619140625,-0.07525634765625,-1.01422119140625
1759748114704,935413997,29622,19,0.096435546875,-0.07452392578125,-1.01275634765625
1759748114704,935413997,29622,20,0.09814453125,-0.07257080078125,-1.01055908203125
1759748114704,935413997,29622,21,0.096923828125,-0.07550048828125,-1.01348876953125
1759748114704,935413997,29622,22,0.09716796875,-0.07574462890625,-1.01031494140625
1759748114704,935413997,29622,23,0.095458984375,-0.07843017578125,-1.01470947265625
1759748114704,935413997,29622,24,0.09375,-0.07598876953125,-1.01055908203125
1759748114704,935413997,29622,25,0.09521484375,-0.07696533203125,-1.00982666015625
1759748114704,935413997,29622,26,0.096435546875,-0.07940673828125,-1.01055908203125
1759748114704,935413997,29622,27,0.095703125,-0.07745361328125,-1.01153564453125
1759748114704,935413997,29622,28,0.095458984375,-0.08038330078125,-1.01202392578125
1759748114704,935413997,29622,29,0.09375,-0.07672119140625,-1.01226806640625
1759748114704,935413997,29622,30,0.093505859375,-0.07867431640625,-1.01226806640625
1759748114704,935413997,29622,31,0.09619140625,-0.07672119140625,-1.01446533203125
1759748117239,935416540,29623,0,0.0947265625,-0.07940673828125,-1.01715087890625
1759748117239,935416540,29623,1,0.0927734375,-0.08111572265625,-1.00885009765625
1759748117239,935416540,29623,2,0.09228515625,-0.08062744140625,-1.01031494140625
1759748117239,935416540,29623,3,0.09130859375,-0.07525634765625,-1.00933837890625
1759748117239,935416540,29623,4,0.091796875,-0.07940673828125,-1.01470947265625
1759748117239,935416540,29623,5,0.08984375,-0.07940673828125,-1.01153564453125
1759748117239,935416540,29623,6,0.091796875,-0.07965087890625,-1.01031494140625
1759748117239,935416540,29623,7,0.09375,-0.07867431640625,-1.01812744140625
1759748117239,935416540,29623,8,0.09375,-0.07940673828125,-1.01300048828125
1759748117239,935416540,29623,9,0.093994140625,-0.08184814453125,-1.01080322265625
1759748117239,935416540,29623,10,0.09326171875,-0.07794189453125,-1.01324462890625
1759748117239,935416540,29623,11,0.091552734375,-0.08209228515625,-1.01593017578125
1759748117239,935416540,29623,12,0.0947265625,-0.08087158203125,-1.01104736328125
1759748117239,935416540,29623,13,0.093017578125,-0.08184814453125,-1.01397705078125
1759748117239,935416540,29623,14,0.093994140625,-0.08233642578125,-1.01519775390625
1759748117239,935416540,29623,15,0.09130859375,-0.08038330078125,-1.01422119140625
1759748117239,935416540,29623,16,0.09033203125,-0.08013916015625,-1.01177978515625
1759748117239,935416540,29623,17,0.095458984375,-0.07891845703125,-1.01202392578125
1759748117239,935416540,29623,18,0.092041015625,-0.07818603515625,-1.01226806640625
1759748117239,935416540,29623,19,0.090576171875,-0.07916259765625,-1.01251220703125
1759748117239,935416540,29623,20,0.09130859375,-0.07720947265625,-1.01666259765625
1759748117239,935416540,29623,21,0.090576171875,-0.07672119140625,-1.01324462890625
1759748117239,935416540,29623,22,0.087646484375,-0.07427978515625,-1.01275634765625
1759748117239,935416540,29623,23,0.087158203125,-0.07769775390625,-1.01104736328125
1759748117239,935416540,29623,24,0.09033203125,-0.07672119140625,-1.01055908203125
1759748117239,935416540,29623,25,0.09228515625,-0.07476806640625,-1.01812744140625
1759748117239,935416540,29623,26,0.09326171875,-0.07794189453125,-1.01568603515625
1759748117239,935416540,29623,27,0.089599609375,-0.07696533203125,-1.01251220703125
1759748117239,935416540,29623,28,0.08984375,-0.07818603515625,-1.00714111328125
1759748117239,935416540,29623,29,0.088134765625,-0.07354736328125,-1.01324462890625
1759748117239,935416540,29623,30,0.09033203125,-0.07647705078125,-1.01910400390625
1759748117239,935416540,29623,31,0.08935546875,-0.07867431640625,-1.01568603515625
1759748119968,935419083,29624,0,0.089599609375,-0.07672119140625,-1.00885009765625
1759748119968,935419083,29624,1,0.091552734375,-0.07989501953125,-1.01568603515625
1759748119968,935419083,29624,2,0.090087890625,-0.07916259765625,-1.01373291015625
1759748119968,935419083,29624,3,0.091064453125,-0.07867431640625,-1.01666259765625
1759748119968,935419083,29624,4,0.08984375,-0.07867431640625,-1.00567626953125
1759748119968,935419083,29624,5,0.08935546875,-0.08013916015625,-1.01348876953125
1759748119968,935419083,29624,6,0.09130859375,-0.08355712890625,-1.01837158203125
1759748119968,935419083,29624,7,0.092041015625,-0.07940673828125,-1.01641845703125
1759748119968,935419083,29624,8,0.0908203125,-0.07965087890625,-1.00836181640625
1759748119968,935419083,29624,9,0.094482421875,-0.07843017578125,-1.01715087890625
1759748119968,935419083,29624,10,0.091796875,-0.07965087890625,-1.01617431640625
1759748119968,935419083,29624,11,0.091796875,-0.08331298828125,-1.01519775390625
1759748119968,935419083,29624,12,0.091552734375,-0.07818603515625,-1.01080322265625
1759748119968,935419083,29624,13,0.0888671875,-0.07745361328125,-1.01129150390625
1759748119968,935419083,29624,14,0.09423828125,-0.08355712890625,-1.01837158203125
1759748119968,935419083,29624,15,0.091796875,-0.07940673828125,-1.01275634765625
1759748119968,935419083,29624,16,0.091552734375,-0.08038330078125,-1.00982666015625
1759748119968,935419083,29624,17,0.0927734375,-0.07989501953125,-1.01153564453125
1759748119968,935419083,29624,18,0.091796875,-0.07965087890625,-1.01251220703125
1759748119968,935419083,29624,19,0.092041015625,-0.07940673828125,-1.01348876953125
1759748119968,935419083,29624,20,0.09228515625,-0.07843017578125,-1.01080322265625
1759748119968,935419083,29624,21,0.092529296875,-0.07965087890625,-1.00958251953125
1759748119968,935419083,29624,22,0.093994140625,-0.07867431640625,-1.01202392578125
1759748119968,935419083,29624,23,0.091796875,-0.07794189453125,-1.01300048828125
1759748119968,935419083,29624,24,0.091064453125,-0.07647705078125,-1.01446533203125
1759748119968,935419083,29624,25,0.08984375,-0.07965087890625,-1.01275634765625
1759748119968,935419083,29624,26,0.094482421875,-0.07940673828125,-1.01715087890625
1759748119968,935419083,29624,27,0.09228515625,-0.07745361328125,-1.01324462890625
1759748119968,935419083,29624,28,0.091064453125,-0.07574462890625,-1.01324462890625
1759748119968,935419083,29624,29,0.091064453125,-0.07550048828125,-1.01275634765625
