receivedPhoneTimestamp,respeckTimestamp,packetSeqNum,sampleSeqNum,accelX,accelY,accelZ
1759965564180,475891621,13507,0,-0.029541015625,-1.00762939453125,0.14764404296875
1759965564180,475891621,13507,1,-0.039794921875,-1.00372314453125,0.16351318359375
1759965564180,475891621,13507,2,-0.017333984375,-0.99713134765625,0.18255615234375
1759965564180,475891621,13507,3,-0.028076171875,-1.00030517578125,0.17498779296875
1759965564180,475891621,13507,4,-0.02001953125,-0.99420166015625,0.15594482421875
1759965564180,475891621,13507,5,-0.0244140625,-1.00299072265625,0.16741943359375
1759965564180,475891621,13507,6,-0.03564453125,-1.00567626953125,0.16180419921875
1759965564180,475891621,13507,7,-0.01806640625,-1.00933837890625,0.15887451171875
1759965564180,475891621,13507,8,-0.029052734375,-1.00372314453125,0.15008544921875
1759965564180,475891621,13507,9,-0.030029296875,-1.00811767578125,0.15472412109375
1759965564180,475891621,13507,10,-0.03369140625,-1.01104736328125,0.15521240234375
1759965564180,475891621,13507,11,-0.03076171875,-1.00592041015625,0.15545654296875
1759965564180,475891621,13507,12,-0.031982421875,-1.01031494140625,0.15667724609375
1759965564180,475891621,13507,13,-0.034423828125,-1.00885009765625,0.15155029296875
1759965564180,475891621,13507,14,-0.0361328125,-1.01031494140625,0.15057373046875
1759965564180,475891621,13507,15,-0.039794921875,-1.00665283203125,0.14959716796875
1759965564180,475891621,13507,16,-0.031494140625,-1.01300048828125,0.15374755859375
1759965564180,475891621,13507,17,-0.0341796875,-1.00982666015625,0.15325927734375
1759965564180,475891621,13507,18,-0.04150390625,-1.01129150390625,0.15667724609375
1759965564180,475891621,13507,19,-0.02978515625,-1.00933837890625,0.16009521484375
1759965564180,475891621,13507,20,-0.020263671875,-0.99273681640625,0.14984130859375
1759965564180,475891621,13507,21,-0.05810546875,-0.99786376953125,0.15155029296875
1759965564180,475891621,13507,22,-0.052490234375,-1.00616455078125,0.15325927734375
1759965564180,475891621,13507,23,-0.0361328125,-1.00860595703125,0.15032958984375
1759965564180,475891621,13507,24,-0.035888671875,-1.01202392578125,0.14886474609375
1759965564180,475891621,13507,25,-0.033935546875,-1.01373291015625,0.14617919921875
1759965564180,475891621,13507,26,-0.053466796875,-1.00885009765625,0.13055419921875
1759965564180,475891621,13507,27,-0.052490234375,-1.01690673828125,0.12713623046875
1759965564180,475891621,13507,28,-0.0224609375,-1.01104736328125,0.13421630859375
1759965564180,475891621,13507,29,-0.0400390625,-1.00738525390625,0.13763427734375
1759965564180,475891621,13507,30,-0.070068359375,-1.01275634765625,0.14080810546875
1759965564180,475891621,13507,31,-0.0537109375,-1.00543212890625,0.13812255859375
1759965566758,475894188,13508,0,-0.045166015625,-1.01812744140625,0.14300537109375
1759965566758,475894188,13508,1,-0.0673828125,-1.00689697265625,0.14593505859375
1759965566758,475894188,13508,2,-0.065673828125,-1.00836181640625,0.13909912109375
1759965566758,475894188,13508,3,-0.04443359375,-1.01763916015625,0.14154052734375
1759965566758,475894188,13508,4,-0.035400390625,-0.98614501953125,0.14862060546875
1759965566758,475894188,13508,5,-0.0390625,-1.00811767578125,0.14837646484375
1759965566758,475894188,13508,6,-0.047607421875,-1.00982666015625,0.15692138671875
1759965566758,475894188,13508,7,-0.055419921875,-1.01568603515625,0.14300537109375
1759965566758,475894188,13508,8,-0.0302734375,-1.01422119140625,0.11395263671875
1759965566758,475894188,13508,9,-0.0244140625,-1.01495361328125,0.11761474609375
1759965566758,475894188,13508,10,-0.027099609375,-1.01715087890625,0.13006591796875
1759965566758,475894188,13508,11,-0.0361328125,-1.01495361328125,0.12127685546875
1759965566758,475894188,13508,12,-0.0546875,-1.01470947265625,0.11590576171875
1759965566758,475894188,13508,13,-0.048828125,-1.01251220703125,0.11737060546875
1759965566758,475894188,13508,14,-0.052734375,-1.01739501953125,0.11663818359375
1759965566758,475894188,13508,15,-0.05517578125,-1.01397705078125,0.11663818359375
1759965566758,475894188,13508,16,-0.06298828125,-1.01153564453125,0.11956787109375
1759965566758,475894188,13508,17,-0.066650390625,-1.01641845703125,0.13348388671875
1759965566758,475894188,13508,18,-0.0634765625,-1.00958251953125,0.14666748046875
1759965566758,475894188,13508,19,-0.05322265625,-1.00421142578125,0.13909912109375
1759965566758,475894188,13508,20,-0.036865234375,-1.00592041015625,0.12567138671875
1759965566758,475894188,13508,21,-0.032958984375,-1.01593017578125,0.11810302734375
1759965566758,475894188,13508,22,-0.025634765625,-1.02008056640625,0.10833740234375
1759965566758,475894188,13508,23,-0.03125,-1.02178955078125,0.10247802734375
1759965566758,475894188,13508,24,-0.03955078125,-1.01837158203125,0.10296630859375
1759965566758,475894188,13508,25,-0.043212890625,-1.01739501953125,0.10955810546875
1759965566758,475894188,13508,26,-0.044677734375,-1.01715087890625,0.10882568359375
1759965566758,475894188,13508,27,-0.04736328125,-1.02154541015625,0.11737060546875
1759965566758,475894188,13508,28,-0.0400390625,-1.01226806640625,0.12274169921875
1759965566758,475894188,13508,29,-0.04736328125,-1.01422119140625,0.12908935546875
1759965566758,475894188,13508,30,-0.047607421875,-1.01397705078125,0.13470458984375
1759965566758,475894188,13508,31,-0.048095703125,-1.01446533203125,0.14324951171875
1759965569345,475896750,13509,0,-0.043212890625,-1.01690673828125,0.15496826171875
1759965569345,475896750,13509,1,-0.033447265625,-1.00225830078125,0.15643310546875
1759965569345,475896750,13509,2,-0.03369140625,-1.01153564453125,0.16912841796875
1759965569345,475896750,13509,3,-0.038330078125,-0.98956298828125,0.15057373046875
1759965569345,475896750,13509,4,-0.02783203125,-0.99322509765625,0.15155029296875
1759965569345,475896750,13509,5,-0.032958984375,-1.00909423828125,0.15472412109375
1759965569345,475896750,13509,6,-0.0419921875,-1.00567626953125,0.15716552734375
1759965569345,475896750,13509,7,-0.0439453125,-1.00836181640625,0.15399169921875
1759965569345,475896750,13509,8,-0.044921875,-1.01031494140625,0.15740966796875
1759965569345,475896750,13509,9,-0.04443359375,-1.01495361328125,0.15301513671875
1759965569345,475896750,13509,10,-0.0458984375,-1.01446533203125,0.15545654296875
1759965569345,475896750,13509,11,-0.030517578125,-1.00689697265625,0.15911865234375
1759965569345,475896750,13509,12,-0.033935546875,-1.00836181640625,0.15301513671875
1759965569345,475896750,13509,13,-0.04248046875,-0.99835205078125,0.15521240234375
1759965569345,475896750,13509,14,-0.039306640625,-1.00347900390625,0.14739990234375
1759965569345,475896750,13509,15,-0.03759765625,-1.00372314453125,0.15789794921875
1759965569345,475896750,13509,16,-0.0400390625,-0.99053955078125,0.14202880859375
1759965569345,475896750,13509,17,-0.039306640625,-1.00811767578125,0.14422607421875
1759965569345,475896750,13509,18,-0.04150390625,-1.01373291015625,0.14959716796875
1759965569345,475896750,13509,19,-0.0478515625,-1.01373291015625,0.14691162109375
1759965569345,475896750,13509,20,-0.047119140625,-1.00860595703125,0.14544677734375
1759965569345,475896750,13509,21,-0.05078125,-1.00933837890625,0.13885498046875
1759965569345,475896750,13509,22,-0.040771484375,-1.01055908203125,0.14837646484375
1759965569345,475896750,13509,23,-0.041259765625,-1.01226806640625,0.15130615234375
1759965569345,475896750,13509,24,-0.0439453125,-1.00494384765625,0.15277099609375
1759965569345,475896750,13509,25,-0.049072265625,-1.00469970703125,0.14495849609375
1759965569345,475896750,13509,26,-0.037353515625,-1.01080322265625,0.15447998046875
1759965569345,475896750,13509,27,-0.05078125,-1.01031494140625,0.15447998046875
1759965569345,475896750,13509,28,-0.047607421875,-1.00323486328125,0.16375732421875
1759965569345,475896750,13509,29,-0.053466796875,-1.00860595703125,0.15252685546875
1759965569345,475896750,13509,30,-0.04248046875,-1.00543212890625,0.15081787109375
1759965569345,475896750,13509,31,-0.020751953125,-1.01202392578125,0.15618896484375
1759965571724,475899311,13510,0,-0.043212890625,-1.01153564453125,0.15081787109375
1759965571724,475899311,13510,1,-0.043212890625,-1.01251220703125,0.16058349609375
1759965571724,475899311,13510,2,-0.050048828125,-0.99835205078125,0.14056396484375
1759965571724,475899311,13510,3,-0.0361328125,-1.00030517578125,0.15765380859375
1759965571724,475899311,13510,4,-0.043212890625,-1.00909423828125,0.15863037109375
1759965571724,475899311,13510,5,-0.04931640625,-1.00592041015625,0.15887451171875
1759965571724,475899311,13510,6,-0.048095703125,-1.00860595703125,0.15496826171875
1759965571724,475899311,13510,7,-0.045166015625,-1.00469970703125,0.15740966796875
1759965571724,475899311,13510,8,-0.038818359375,-1.00445556640625,0.15643310546875
1759965571724,475899311,13510,9,-0.0390625,-1.00714111328125,0.15692138671875
1759965571724,475899311,13510,10,-0.041259765625,-1.00762939453125,0.16546630859375
1759965571724,475899311,13510,11,-0.037109375,-1.00030517578125,0.16839599609375
1759965571724,475899311,13510,12,-0.03857421875,-1.01251220703125,0.15667724609375
1759965571724,475899311,13510,13,-0.045166015625,-1.00909423828125,0.15350341796875
1759965571724,475899311,13510,14,-0.038818359375,-1.00299072265625,0.16278076171875
1759965571724,475899311,13510,15,-0.038818359375,-1.00445556640625,0.17498779296875
1759965571724,475899311,13510,16,-0.040771484375,-1.00445556640625,0.16619873046875
1759965571724,475899311,13510,17,-0.03759765625,-0.99908447265625,0.16326904296875
1759965571724,475899311,13510,18,-0.041015625,-1.00640869140625,0.17230224609375
1759965571724,475899311,13510,19,-0.04150390625,-0.99371337890625,0.17132568359375
1759965571724,475899311,13510,20,-0.042724609375,-1.00469970703125,0.17987060546875
1759965571724,475899311,13510,21,-0.04345703125,-0.99932861328125,0.17523193359375
1759965571724,475899311,13510,22,-0.044189453125,-1.00396728515625,0.16522216796875
1759965571724,475899311,13510,23,-0.0361328125,-1.00103759765625,0.16815185546875
1759965571724,475899311,13510,24,-0.0341796875,-1.00762939453125,0.17303466796875
1759965571724,475899311,13510,25,-0.036865234375,-1.00128173828125,0.17474365234375
1759965571724,475899311,13510,26,-0.048095703125,-1.00885009765625,0.16766357421875
1759965571724,475899311,13510,27,-0.048095703125,-1.01153564453125,0.18524169921875
1759965571724,475899311,13510,28,-0.02978515625,-0.98712158203125,0.16180419921875
1759965571724,475899311,13510,29,-0.047607421875,-0.99639892578125,0.17254638671875
1759965571724,475899311,13510,30,-0.035888671875,-0.99517822265625,0.17816162109375
1759965571724,475899311,13510,31,-0.048828125,-1.01007080078125,0.17718505859375
1759965574309,475901878,13511,0,-0.0390625,-1.00299072265625,0.16766357421875
1759965574309,475901878,13511,1,-0.038818359375,-1.00299072265625,0.17718505859375
1759965574309,475901878,13511,2,-0.034912109375,-1.00177001953125,0.17718505859375
1759965574309,475901878,13511,3,-0.040771484375,-1.00152587890625,0.17864990234375
1759965574309,475901878,13511,4,-0.030517578125,-1.00469970703125,0.17767333984375
1759965574309,475901878,13511,5,-0.03955078125,-0.99713134765625,0.16839599609375
1759965574309,475901878,13511,6,-0.049072265625,-1.00811767578125,0.16595458984375
1759965574309,475901878,13511,7,-0.04248046875,-0.99493408203125,0.17449951171875
1759965574309,475901878,13511,8,-0.03369140625,-1.00811767578125,0.18328857421875
1759965574309,475901878,13511,9,-0.038330078125,-0.99835205078125,0.17279052734375
1759965574309,475901878,13511,10,-0.03466796875,-1.00030517578125,0.17254638671875
1759965574309,475901878,13511,11,-0.0419921875,-1.00567626953125,0.17108154296875
1759965574309,475901878,13511,12,-0.04150390625,-1.00006103515625,0.16790771484375
1759965574309,475901878,13511,13,-0.030517578125,-0.99908447265625,0.17669677734375
1759965574309,475901878,13511,14,-0.03173828125,-1.00421142578125,0.18084716796875
1759965574309,475901878,13511,15,-0.038330078125,-0.99981689453125,0.17572021484375
1759965574309,475901878,13511,16,-0.043701171875,-1.00250244140625,0.16473388671875
1759965574309,475901878,13511,17,-0.045654296875,-1.00347900390625,0.16839599609375
1759965574309,475901878,13511,18,-0.03125,-1.00006103515625,0.18621826171875
1759965574309,475901878,13511,19,-0.0361328125,-1.00714111328125,0.17913818359375
1759965574309,475901878,13511,20,-0.0478515625,-1.02349853515625,0.19622802734375
1759965574309,475901878,13511,21,-0.037109375,-0.99517822265625,0.16815185546875
1759965574309,475901878,13511,22,-0.031982421875,-0.98638916015625,0.14495849609375
1759965574309,475901878,13511,23,-0.04150390625,-0.98760986328125,0.15887451171875
1759965574309,475901878,13511,24,-0.041259765625,-1.01788330078125,0.18719482421875
1759965574309,475901878,13511,25,-0.055419921875,-1.01153564453125,0.15985107421875
1759965574309,475901878,13511,26,-0.057373046875,-0.99200439453125,0.17108154296875
1759965574309,475901878,13511,27,-0.052001953125,-1.00909423828125,0.17547607421875
1759965574309,475901878,13511,28,-0.041748046875,-0.99957275390625,0.17864990234375
1759965574309,475901878,13511,29,-0.0380859375,-1.00079345703125,0.17352294921875
1759965574309,475901878,13511,30,-0.04248046875,-0.99468994140625,0.17303466796875
1759965574309,475901878,13511,31,-0.035888671875,-1.00592041015625,0.17864990234375
1759965576897,475904439,13512,0,-0.049560546875,-1.00152587890625,0.17645263671875
1759965576897,475904439,13512,1,-0.04541015625,-0.99517822265625,0.17205810546875
1759965576897,475904439,13512,2,-0.05029296875,-1.00274658203125,0.18402099609375
1759965576897,475904439,13512,3,-0.038330078125,-0.99249267578125,0.19207763671875
1759965576897,475904439,13512,4,-0.03564453125,-0.99713134765625,0.18524169921875
1759965576897,475904439,13512,5,-0.05712890625,-1.00982666015625,0.17816162109375
1759965576897,475904439,13512,6,-0.05419921875,-0.99566650390625,0.17156982421875
1759965576897,475904439,13512,7,-0.044189453125,-1.00396728515625,0.18304443359375
1759965576897,475904439,13512,8,-0.04296875,-1.00006103515625,0.17547607421875
1759965576897,475904439,13512,9,-0.04833984375,-0.99639892578125,0.18011474609375
1759965576897,475904439,13512,10,-0.05029296875,-0.99908447265625,0.17864990234375
1759965576897,475904439,13512,11,-0.0458984375,-1.00421142578125,0.18035888671875
1759965576897,475904439,13512,12,-0.04833984375,-1.00421142578125,0.16888427734375
1759965576897,475904439,13512,13,-0.04638671875,-1.00201416015625,0.16424560546875
1759965576897,475904439,13512,14,-0.048095703125,-1.00421142578125,0.16912841796875
1759965576897,475904439,13512,15,-0.048095703125,-1.00640869140625,0.17718505859375
1759965576897,475904439,13512,16,-0.043701171875,-0.99786376953125,0.17230224609375
1759965576897,475904439,13512,17,-0.05126953125,-0.99981689453125,0.17132568359375
1759965576897,475904439,13512,18,-0.0546875,-1.00665283203125,0.16912841796875
1759965576897,475904439,13512,19,-0.052734375,-1.00079345703125,0.17449951171875
1759965576897,475904439,13512,20,-0.047119140625,-1.00396728515625,0.18280029296875
1759965576897,475904439,13512,21,-0.046875,-1.00445556640625,0.17620849609375
1759965576897,475904439,13512,22,-0.04541015625,-1.03155517578125,0.20501708984375
1759965576897,475904439,13512,23,-0.049560546875,-0.97979736328125,0.14886474609375
1759965576897,475904439,13512,24,-0.04248046875,-0.99029541015625,0.16302490234375
1759965576897,475904439,13512,25,-0.043701171875,-1.00030517578125,0.17572021484375
1759965576897,475904439,13512,26,-0.0478515625,-1.01324462890625,0.16839599609375
1759965576897,475904439,13512,27,-0.044921875,-1.00201416015625,0.16546630859375
1759965576897,475904439,13512,28,-0.0478515625,-1.00714111328125,0.17352294921875
1759965576897,475904439,13512,29,-0.048095703125,-1.00323486328125,0.16571044921875
1759965576897,475904439,13512,30,-0.05224609375,-1.00738525390625,0.16058349609375
1759965576897,475904439,13512,31,-0.0498046875,-1.00396728515625,0.17010498046875
1759965579481,475907000,13513,0,-0.04833984375,-0.99761962890625,0.18157958984375
1759965579481,475907000,13513,1,-0.0439453125,-1.00299072265625,0.16815185546875
1759965579481,475907000,13513,2,-0.052001953125,-1.00689697265625,0.15496826171875
1759965579481,475907000,13513,3,-0.05029296875,-0.99810791015625,0.16156005859375
1759965579481,475907000,13513,4,-0.04248046875,-1.00250244140625,0.17669677734375
1759965579481,475907000,13513,5,-0.037353515625,-1.00567626953125,0.18060302734375
1759965579481,475907000,13513,6,-0.051513671875,-0.99908447265625,0.16619873046875
1759965579481,475907000,13513,7,-0.052490234375,-1.00518798828125,0.16400146484375
1759965579481,475907000,13513,8,-0.05126953125,-1.00128173828125,0.17108154296875
1759965579481,475907000,13513,9,-0.034423828125,-1.01275634765625,0.17376708984375
1759965579481,475907000,13513,10,-0.0419921875,-1.00274658203125,0.15911865234375
1759965579481,475907000,13513,11,-0.05810546875,-1.00860595703125,0.15301513671875
1759965579481,475907000,13513,12,-0.056640625,-1.00079345703125,0.16033935546875
1759965579481,475907000,13513,13,-0.04296875,-1.00347900390625,0.17767333984375
1759965579481,475907000,13513,14,-0.049560546875,-1.00494384765625,0.17327880859375
1759965579481,475907000,13513,15,-0.0537109375,-1.00250244140625,0.16229248046875
1759965579481,475907000,13513,16,-0.060302734375,-1.00445556640625,0.16278076171875
1759965579481,475907000,13513,17,-0.04541015625,-1.00152587890625,0.16180419921875
1759965579481,475907000,13513,18,-0.03271484375,-1.00714111328125,0.16937255859375
1759965579481,475907000,13513,19,-0.041748046875,-1.01129150390625,0.15887451171875
1759965579481,475907000,13513,20,-0.052978515625,-0.99932861328125,0.15692138671875
1759965579481,475907000,13513,21,-0.056884765625,-0.99737548828125,0.17376708984375
1759965579481,475907000,13513,22,-0.052978515625,-1.00201416015625,0.18353271484375
1759965579481,475907000,13513,23,-0.049560546875,-1.00421142578125,0.17596435546875
1759965579481,475907000,13513,24,-0.054443359375,-1.01080322265625,0.15032958984375
1759965579481,475907000,13513,25,-0.048828125,-1.00616455078125,0.14715576171875
1759965579481,475907000,13513,26,-0.04638671875,-1.00567626953125,0.17059326171875
1759965579481,475907000,13513,27,-0.04296875,-1.00469970703125,0.17352294921875
1759965579481,475907000,13513,28,-0.050537109375,-1.00299072265625,0.16400146484375
1759965579481,475907000,13513,29,-0.0478515625,-1.00860595703125,0.15325927734375
1759965579481,475907000,13513,30,-0.051025390625,-1.00225830078125,0.15423583984375
1759965579481,475907000,13513,31,-0.047607421875,-1.00616455078125,0.16619873046875
1759965582064,475909561,13514,0,-0.0478515625,-1.00323486328125,0.15936279296875
1759965582064,475909561,13514,1,-0.05224609375,-1.00909423828125,0.15643310546875
1759965582064,475909561,13514,2,-0.0595703125,-1.00909423828125,0.15472412109375
1759965582064,475909561,13514,3,-0.04443359375,-0.99468994140625,0.16766357421875
1759965582064,475909561,13514,4,-0.043701171875,-1.00909423828125,0.17596435546875
1759965582064,475909561,13514,5,-0.052978515625,-1.00103759765625,0.16009521484375
1759965582064,475909561,13514,6,-0.0498046875,-1.00738525390625,0.15887451171875
1759965582064,475909561,13514,7,-0.044921875,-1.00299072265625,0.17327880859375
1759965582064,475909561,13514,8,-0.0390625,-1.00079345703125,0.17303466796875
1759965582064,475909561,13514,9,-0.044921875,-1.00640869140625,0.16204833984375
1759965582064,475909561,13514,10,-0.044677734375,-1.00201416015625,0.16082763671875
1759965582064,475909561,13514,11,-0.03515625,-1.00250244140625,0.17254638671875
1759965582064,475909561,13514,12,-0.044677734375,-1.00982666015625,0.15863037109375
1759965582064,475909561,13514,13,-0.048583984375,-1.00518798828125,0.15032958984375
1759965582064,475909561,13514,14,-0.039794921875,-0.99908447265625,0.17401123046875
1759965582064,475909561,13514,15,-0.03515625,-1.00762939453125,0.18524169921875
1759965582064,475909561,13514,16,-0.047607421875,-1.00396728515625,0.16790771484375
1759965582064,475909561,13514,17,-0.041259765625,-1.00445556640625,0.15496826171875
1759965582064,475909561,13514,18,-0.033447265625,-1.00738525390625,0.16473388671875
1759965582064,475909561,13514,19,-0.0390625,-1.00030517578125,0.16619873046875
1759965582064,475909561,13514,20,-0.044677734375,-1.00323486328125,0.16497802734375
1759965582064,475909561,13514,21,-0.026123046875,-0.99981689453125,0.17816162109375
1759965582064,475909561,13514,22,-0.027099609375,-0.99957275390625,0.17987060546875
1759965582064,475909561,13514,23,-0.03857421875,-1.00030517578125,0.16864013671875
1759965582064,475909561,13514,24,-0.034912109375,-1.02471923828125,0.19647216796875
1759965582064,475909561,13514,25,-0.025146484375,-0.99835205078125,0.15155029296875
1759965582064,475909561,13514,26,-0.048828125,-0.99102783203125,0.15472412109375
1759965582064,475909561,13514,27,-0.0478515625,-0.98077392578125,0.17352294921875
1759965582064,475909561,13514,28,-0.050537109375,-1.00494384765625,0.19769287109375
1759965582064,475909561,13514,29,-0.056396484375,-1.00616455078125,0.17742919921875
1759965582064,475909561,13514,30,-0.0439453125,-1.00079345703125,0.16497802734375
1759965582064,475909561,13514,31,-0.0498046875,-1.00494384765625,0.16937255859375
1759965584846,475912122,13515,0,-0.03955078125,-1.01055908203125,0.16595458984375
1759965584846,475912122,13515,1,-0.048828125,-1.01031494140625,0.15521240234375
1759965584846,475912122,13515,2,-0.058349609375,-1.00885009765625,0.13958740234375
1759965584846,475912122,13515,3,-0.055419921875,-1.01055908203125,0.14080810546875
1759965584846,475912122,13515,4,-0.039306640625,-1.01495361328125,0.14788818359375
1759965584846,475912122,13515,5,-0.036865234375,-1.00860595703125,0.14080810546875
1759965584846,475912122,13515,6,-0.06787109375,-1.01495361328125,0.13616943359375
1759965584846,475912122,13515,7,-0.0673828125,-1.01007080078125,0.13909912109375
1759965584846,475912122,13515,8,-0.05859375,-1.00982666015625,0.14886474609375
1759965584846,475912122,13515,9,-0.047119140625,-1.01007080078125,0.15399169921875
1759965584846,475912122,13515,10,-0.051025390625,-1.00640869140625,0.14447021484375
1759965584846,475912122,13515,11,-0.06201171875,-1.01104736328125,0.13299560546875
1759965584846,475912122,13515,12,-0.052490234375,-1.00982666015625,0.13568115234375
1759965584846,475912122,13515,13,-0.052734375,-1.00762939453125,0.13690185546875
1759965584846,475912122,13515,14,-0.039794921875,-1.01568603515625,0.13690185546875
1759965584846,475912122,13515,15,-0.054443359375,-1.01397705078125,0.12371826171875
1759965584846,475912122,13515,16,-0.04833984375,-1.01593017578125,0.11810302734375
1759965584846,475912122,13515,17,-0.05419921875,-1.01202392578125,0.12445068359375
1759965584846,475912122,13515,18,-0.05322265625,-1.01422119140625,0.13323974609375
1759965584846,475912122,13515,19,-0.05810546875,-1.01055908203125,0.13665771484375
1759965584846,475912122,13515,20,-0.056884765625,-1.00885009765625,0.14178466796875
1759965584846,475912122,13515,21,-0.06884765625,-1.01300048828125,0.14056396484375
1759965584846,475912122,13515,22,-0.052490234375,-1.00347900390625,0.14324951171875
1759965584846,475912122,13515,23,-0.043701171875,-1.01495361328125,0.14105224609375
1759965584846,475912122,13515,24,-0.044921875,-1.01055908203125,0.13397216796875
1759965584846,475912122,13515,25,-0.05859375,-1.02227783203125,0.14105224609375
1759965584846,475912122,13515,26,-0.029296875,-1.02667236328125,0.16693115234375
1759965584846,475912122,13515,27,-0.037841796875,-1.00445556640625,0.13665771484375
1759965584846,475912122,13515,28,-0.05517578125,-0.99053955078125,0.13055419921875
1759965584846,475912122,13515,29,-0.049560546875,-0.98956298828125,0.14202880859375
1759965584846,475912122,13515,30,-0.060302734375,-1.01373291015625,0.16741943359375
1759965584846,475912122,13515,31,-0.064453125,-1.01348876953125,0.17645263671875
1759965587235,475914683,13516,0,-0.065185546875,-0.99786376953125,0.15423583984375
1759965587235,475914683,13516,1,-0.054931640625,-1.02032470703125,0.12884521484375
1759965587235,475914683,13516,2,-0.050537109375,-1.00885009765625,0.13543701171875
1759965587235,475914683,13516,3,-0.054443359375,-1.01251220703125,0.13372802734375
1759965587235,475914683,13516,4,-0.055908203125,-1.01641845703125,0.13934326171875
1759965587235,475914683,13516,5,-0.06201171875,-1.01275634765625,0.12396240234375
1759965587235,475914683,13516,6,-0.056396484375,-1.01129150390625,0.12249755859375
1759965587235,475914683,13516,7,-0.056396484375,-1.01251220703125,0.12225341796875
1759965587235,475914683,13516,8,-0.04736328125,-1.02008056640625,0.12908935546875
1759965587235,475914683,13516,9,-0.0517578125,-1.01177978515625,0.12640380859375
1759965587235,475914683,13516,10,-0.069580078125,-1.01251220703125,0.12249755859375
1759965587235,475914683,13516,11,-0.05908203125,-1.00909423828125,0.13446044921875
1759965587235,475914683,13516,12,-0.04736328125,-1.01568603515625,0.13836669921875
1759965587235,475914683,13516,13,-0.06005859375,-1.00836181640625,0.13201904296875
1759965587235,475914683,13516,14,-0.06787109375,-1.01202392578125,0.12347412109375
1759965587235,475914683,13516,15,-0.0595703125,-1.01055908203125,0.12493896484375
1759965587235,475914683,13516,16,-0.046630859375,-1.01739501953125,0.12274169921875
1759965587235,475914683,13516,17,-0.048095703125,-1.01519775390625,0.11273193359375
1759965587235,475914683,13516,18,-0.05712890625,-1.01373291015625,0.10565185546875
1759965587235,475914683,13516,19,-0.053466796875,-1.02105712890625,0.10687255859375
1759965587235,475914683,13516,20,-0.051025390625,-1.01812744140625,0.11273193359375
1759965587235,475914683,13516,21,-0.05517578125,-1.01251220703125,0.11590576171875
1759965587235,475914683,13516,22,-0.05908203125,-1.01055908203125,0.12713623046875
1759965587235,475914683,13516,23,-0.061767578125,-1.01446533203125,0.12982177734375
1759965587235,475914683,13516,24,-0.0634765625,-1.01129150390625,0.13421630859375
1759965587235,475914683,13516,25,-0.062744140625,-1.01666259765625,0.13568115234375
1759965587235,475914683,13516,26,-0.0517578125,-1.01568603515625,0.11566162109375
1759965587235,475914683,13516,27,-0.037353515625,-1.03765869140625,0.15960693359375
1759965587235,475914683,13516,28,-0.0478515625,-0.98980712890625,0.07562255859375
1759965587235,475914683,13516,29,-0.040283203125,-1.00933837890625,0.09881591796875
1759965587235,475914683,13516,30,-0.055908203125,-1.00494384765625,0.11102294921875
1759965587235,475914683,13516,31,-0.0576171875,-1.02447509765625,0.11956787109375
1759965589816,475917244,13517,0,-0.048583984375,-1.01324462890625,0.11444091796875
1759965589816,475917244,13517,1,-0.029541015625,-1.01983642578125,0.11810302734375
1759965589816,475917244,13517,2,-0.0439453125,-1.01641845703125,0.10736083984375
1759965589816,475917244,13517,3,-0.04833984375,-1.01666259765625,0.09808349609375
1759965589816,475917244,13517,4,-0.047607421875,-1.01885986328125,0.11639404296875
1759965589816,475917244,13517,5,-0.047119140625,-1.01812744140625,0.11395263671875
1759965589816,475917244,13517,6,-0.04248046875,-1.01690673828125,0.11346435546875
1759965589816,475917244,13517,7,-0.048095703125,-1.01275634765625,0.11346435546875
1759965589816,475917244,13517,8,-0.05419921875,-1.01739501953125,0.12762451171875
1759965589816,475917244,13517,9,-0.053466796875,-1.01104736328125,0.13592529296875
1759965589816,475917244,13517,10,-0.059326171875,-1.01153564453125,0.12762451171875
1759965589816,475917244,13517,11,-0.06591796875,-1.01373291015625,0.11541748046875
1759965589816,475917244,13517,12,-0.062744140625,-1.01177978515625,0.12005615234375
1759965589816,475917244,13517,13,-0.06494140625,-1.01275634765625,0.11810302734375
1759965589816,475917244,13517,14,-0.0595703125,-1.00958251953125,0.11956787109375
1759965589816,475917244,13517,15,-0.052001953125,-1.01495361328125,0.12371826171875
1759965589816,475917244,13517,16,-0.04736328125,-1.01324462890625,0.11517333984375
1759965589816,475917244,13517,17,-0.046630859375,-1.01739501953125,0.11175537109375
1759965589816,475917244,13517,18,-0.044189453125,-1.01617431640625,0.10882568359375
1759965589816,475917244,13517,19,-0.044677734375,-1.01910400390625,0.10321044921875
1759965589816,475917244,13517,20,-0.042236328125,-1.01812744140625,0.10784912109375
1759965589816,475917244,13517,21,-0.04443359375,-1.01910400390625,0.11273193359375
1759965589816,475917244,13517,22,-0.04150390625,-1.02154541015625,0.11541748046875
1759965589816,475917244,13517,23,-0.04443359375,-1.01544189453125,0.12005615234375
1759965589816,475917244,13517,24,-0.04541015625,-1.00933837890625,0.12274169921875
1759965589816,475917244,13517,25,-0.048583984375,-1.02081298828125,0.11907958984375
1759965589816,475917244,13517,26,-0.051513671875,-1.01177978515625,0.12103271484375
1759965589816,475917244,13517,27,-0.049560546875,-1.01641845703125,0.12176513671875
1759965589816,475917244,13517,28,-0.05517578125,-1.01885986328125,0.11566162109375
1759965589816,475917244,13517,29,-0.053466796875,-1.02667236328125,0.16009521484375
1759965589816,475917244,13517,30,-0.055908203125,-0.98736572265625,0.08587646484375
1759965589816,475917244,13517,31,-0.037841796875,-1.00909423828125,0.11859130859375
1759965592401,475919805,13518,0,-0.047119140625,-1.01422119140625,0.11492919921875
1759965592401,475919805,13518,1,-0.056640625,-1.02154541015625,0.11297607421875
1759965592401,475919805,13518,2,-0.041748046875,-1.01007080078125,0.11468505859375
1759965592401,475919805,13518,3,-0.045166015625,-1.02349853515625,0.11346435546875
1759965592401,475919805,13518,4,-0.04296875,-1.01544189453125,0.10809326171875
1759965592401,475919805,13518,5,-0.04296875,-1.01666259765625,0.11175537109375
1759965592401,475919805,13518,6,-0.051513671875,-1.01861572265625,0.11688232421875
1759965592401,475919805,13518,7,-0.052734375,-1.01568603515625,0.11248779296875
1759965592401,475919805,13518,8,-0.053466796875,-1.01617431640625,0.11810302734375
1759965592401,475919805,13518,9,-0.059814453125,-1.01300048828125,0.12640380859375
1759965592401,475919805,13518,10,-0.0634765625,-1.00982666015625,0.12786865234375
1759965592401,475919805,13518,11,-0.05908203125,-1.01422119140625,0.12396240234375
1759965592401,475919805,13518,12,-0.0615234375,-1.01446533203125,0.11712646484375
1759965592401,475919805,13518,13,-0.046630859375,-1.01495361328125,0.11566162109375
1759965592401,475919805,13518,14,-0.05126953125,-1.01739501953125,0.10809326171875
1759965592401,475919805,13518,15,-0.054931640625,-1.01934814453125,0.10809326171875
1759965592401,475919805,13518,16,-0.05126953125,-1.01568603515625,0.11444091796875
1759965592401,475919805,13518,17,-0.055908203125,-1.01373291015625,0.12030029296875
1759965592401,475919805,13518,18,-0.05859375,-1.01202392578125,0.12103271484375
1759965592401,475919805,13518,19,-0.058349609375,-1.01544189453125,0.12396240234375
1759965592401,475919805,13518,20,-0.06689453125,-1.01593017578125,0.11932373046875
1759965592401,475919805,13518,21,-0.055908203125,-1.01007080078125,0.12615966796875
1759965592401,475919805,13518,22,-0.06103515625,-1.01519775390625,0.11859130859375
1759965592401,475919805,13518,23,-0.05859375,-1.01715087890625,0.10882568359375
1759965592401,475919805,13518,24,-0.04833984375,-1.01641845703125,0.10931396484375
1759965592401,475919805,13518,25,-0.054931640625,-1.01763916015625,0.10906982421875
1759965592401,475919805,13518,26,-0.052490234375,-1.01397705078125,0.11053466796875
1759965592401,475919805,13518,27,-0.055908203125,-1.01495361328125,0.11492919921875
1759965592401,475919805,13518,28,-0.0625,-1.01519775390625,0.11810302734375
1759965592401,475919805,13518,29,-0.055908203125,-1.01153564453125,0.12811279296875
1759965592401,475919805,13518,30,-0.063720703125,-1.03057861328125,0.14251708984375
1759965592401,475919805,13518,31,-0.0498046875,-0.99591064453125,0.09637451171875
1759965594985,475922367,13519,0,-0.055908203125,-1.01007080078125,0.11785888671875
1759965594985,475922367,13519,1,-0.060791015625,-1.01153564453125,0.11224365234375
1759965594985,475922367,13519,2,-0.062255859375,-1.01568603515625,0.11785888671875
1759965594985,475922367,13519,3,-0.05712890625,-1.01641845703125,0.12518310546875
1759965594985,475922367,13519,4,-0.05419921875,-1.01202392578125,0.12493896484375
1759965594985,475922367,13519,5,-0.052978515625,-1.01373291015625,0.12152099609375
