receivedPhoneTimestamp,respeckTimestamp,packetSeqNum,sampleSeqNum,accelX,accelY,accelZ
1688533555991,1052187436,37232,16,-0.09716796875,-0.02740478515625,0.93304443359375
1688533555991,1052187436,37232,17,-0.0908203125,-0.02471923828125,0.92938232421875
1688533555991,1052187436,37232,18,-0.09765625,-0.02642822265625,0.94525146484375
1688533555991,1052187436,37232,19,-0.0927734375,-0.01983642578125,0.93597412109375
1688533555991,1052187436,37232,20,-0.097412109375,-0.02105712890625,0.94110107421875
1688533555991,1052187436,37232,21,-0.08642578125,-0.01202392578125,0.92645263671875
1688533555991,1052187436,37232,22,-0.097900390625,-0.00738525390625,0.93768310546875
1688533555991,1052187436,37232,23,-0.1025390625,0.00067138671875,0.92327880859375
1688533555991,1052187436,37232,24,-0.100341796875,0.00384521484375,0.91619873046875
1688533555991,1052187436,37232,25,-0.10888671875,0.01556396484375,0.93524169921875
1688533555991,1052187436,37232,26,-0.093505859375,0.01922607421875,0.91229248046875
1688533555991,1052187436,37232,27,-0.111572265625,0.00555419921875,0.95941162109375
1688533555991,1052187436,37232,28,-0.11181640625,0.00213623046875,0.91595458984375
1688533555991,1052187436,37232,29,-0.10986328125,0.01190185546875,0.92889404296875
1688533555991,1052187436,37232,30,-0.081787109375,-0.00567626953125,0.93548583984375
1688533558720,1052189973,37233,10,-0.08544921875,0.00677490234375,0.93743896484375
1688533558720,1052189973,37233,11,-0.085693359375,0.00189208984375,0.93182373046875
1688533558720,1052189973,37233,12,-0.091552734375,0.00164794921875,0.93792724609375
1688533558720,1052189973,37233,13,-0.092041015625,0.00579833984375,0.92889404296875
1688533558720,1052189973,37233,14,-0.087890625,0.00067138671875,0.92864990234375
1688533558720,1052189973,37233,15,-0.086669921875,-0.00079345703125,0.93011474609375
1688533558720,1052189973,37233,16,-0.088134765625,-0.00225830078125,0.94036865234375
1688533558720,1052189973,37233,17,-0.0849609375,0.00018310546875,0.95648193359375
1688533558720,1052189973,37233,18,-0.09130859375,0.00433349609375,0.92083740234375
1688533558720,1052189973,37233,19,-0.0791015625,0.00775146484375,0.93719482421875
1688533558720,1052189973,37233,20,-0.08837890625,0.00628662109375,0.92401123046875
1688533558720,1052189973,37233,21,-0.091552734375,0.01483154296875,0.91009521484375
1688533558720,1052189973,37233,22,-0.090087890625,0.00384521484375,0.92352294921875
1688533558720,1052189973,37233,23,-0.0986328125,0.00360107421875,0.94793701171875
1688533558720,1052189973,37233,24,-0.09521484375,0.01019287109375,0.93060302734375
1688533558720,1052189973,37233,25,-0.091796875,-0.00714111328125,0.93450927734375
1688533558720,1052189973,37233,26,-0.100830078125,-0.00201416015625,0.93206787109375
1688533558720,1052189973,37233,27,-0.102783203125,-6.103515625e-05,0.93255615234375
1688533558720,1052189973,37233,28,-0.09912109375,-0.00421142578125,0.93695068359375
1688533558720,1052189973,37233,29,-0.093505859375,-0.00079345703125,0.92718505859375
1688533558720,1052189973,37233,30,-0.095947265625,0.00091552734375,0.93450927734375
1688533558720,1052189973,37233,31,-0.09521484375,-0.00152587890625,0.93182373046875
1688533561256,1052192510,37234,0,-0.100830078125,-0.00518798828125,0.93353271484375
1688533561256,1052192510,37234,1,-0.098876953125,-0.00592041015625,0.92425537109375
1688533561256,1052192510,37234,2,-0.097412109375,-0.01300048828125,0.93572998046875
1688533561256,1052192510,37234,3,-0.103515625,-0.00933837890625,0.93963623046875
1688533561256,1052192510,37234,4,-0.096923828125,-0.01593017578125,0.93280029296875
1688533561256,1052192510,37234,5,-0.09814453125,-0.01251220703125,0.94012451171875
1688533561256,1052192510,37234,6,-0.096435546875,-0.00933837890625,0.92449951171875
1688533561256,1052192510,37234,7,-0.09912109375,-0.01153564453125,0.92352294921875
1688533561256,1052192510,37234,8,-0.09375,-0.01446533203125,0.92694091796875
1688533561256,1052192510,37234,9,-0.10302734375,-0.02154541015625,0.93304443359375
1688533561256,1052192510,37234,10,-0.09912109375,-0.01861572265625,0.92767333984375
1688533561256,1052192510,37234,11,-0.095947265625,-0.02911376953125,0.95233154296875
1688533561256,1052192510,37234,12,-0.095947265625,-0.02105712890625,0.93817138671875
1688533561256,1052192510,37234,13,-0.0986328125,-0.02471923828125,0.91668701171875
1688533561256,1052192510,37234,14,-0.096923828125,-0.02886962890625,0.94769287109375
1688533561256,1052192510,37234,15,-0.101318359375,-0.02056884765625,0.93133544921875
1688533561256,1052192510,37234,16,-0.096923828125,-0.01910400390625,0.92401123046875
1688533561256,1052192510,37234,17,-0.10205078125,-0.02252197265625,0.93280029296875
1688533561256,1052192510,37234,18,-0.10205078125,-0.01959228515625,0.92816162109375
1688533561256,1052192510,37234,19,-0.099609375,-0.01983642578125,0.93182373046875
1688533561256,1052192510,37234,20,-0.09765625,-0.02032470703125,0.93011474609375
1688533561256,1052192510,37234,21,-0.101318359375,-0.01544189453125,0.93695068359375
1688533561256,1052192510,37234,22,-0.106201171875,-0.01788330078125,0.93719482421875
1688533561256,1052192510,37234,23,-0.099365234375,-0.01885986328125,0.92230224609375
1688533561256,1052192510,37234,24,-0.100830078125,-0.01861572265625,0.94305419921875
1688533561256,1052192510,37234,25,-0.099853515625,-0.02325439453125,0.94354248046875
1688533561256,1052192510,37234,26,-0.08984375,-0.00982666015625,0.94525146484375
1688533561256,1052192510,37234,27,-0.091552734375,-0.01202392578125,0.92401123046875
1688533561256,1052192510,37234,28,-0.082763671875,-0.00030517578125,0.93353271484375
1688533561256,1052192510,37234,29,-0.07763671875,0.00408935546875,0.93743896484375
1688533561256,1052192510,37234,30,-0.076904296875,0.00946044921875,0.91644287109375
1688533561256,1052192510,37234,31,-0.07666015625,0.01556396484375,0.91156005859375
1688533563597,1052195047,37235,0,-0.081787109375,0.00018310546875,0.93353271484375
1688533563597,1052195047,37235,1,-0.083740234375,-0.00079345703125,0.92694091796875
1688533563597,1052195047,37235,2,-0.08544921875,-0.00250244140625,0.93841552734375
1688533563597,1052195047,37235,3,-0.083251953125,-0.01177978515625,0.93206787109375
1688533563597,1052195047,37235,4,-0.09033203125,-0.01544189453125,0.92523193359375
1688533563597,1052195047,37235,5,-0.0947265625,-0.02056884765625,0.94793701171875
1688533563597,1052195047,37235,6,-0.0888671875,-0.02935791015625,0.91546630859375
1688533563597,1052195047,37235,7,-0.0908203125,-0.02471923828125,0.94622802734375
1688533563597,1052195047,37235,8,-0.08740234375,-0.02911376953125,0.94549560546875
1688533563597,1052195047,37235,9,-0.08740234375,-0.03057861328125,0.93255615234375
1688533563597,1052195047,37235,10,-0.083251953125,-0.03643798828125,0.93499755859375
1688533563597,1052195047,37235,11,-0.085693359375,-0.02325439453125,0.92669677734375
1688533563597,1052195047,37235,12,-0.080322265625,-0.02862548828125,0.93548583984375
1688533563597,1052195047,37235,13,-0.084716796875,-0.03033447265625,0.92913818359375
1688533563597,1052195047,37235,14,-0.083251953125,-0.02886962890625,0.93865966796875
1688533563597,1052195047,37235,15,-0.08447265625,-0.02960205078125,0.92449951171875
1688533563597,1052195047,37235,16,-0.08349609375,-0.02325439453125,0.93109130859375
1688533563597,1052195047,37235,17,-0.087890625,-0.02862548828125,0.93133544921875
1688533563597,1052195047,37235,18,-0.083740234375,-0.03253173828125,0.93109130859375
1688533563597,1052195047,37235,19,-0.0830078125,-0.03619384765625,0.94183349609375
1688533563597,1052195047,37235,20,-0.085693359375,-0.04058837890625,0.95159912109375
1688533563597,1052195047,37235,21,-0.083984375,-0.04278564453125,0.94500732421875
1688533563597,1052195047,37235,22,-0.08349609375,-0.03741455078125,0.93963623046875
1688533563597,1052195047,37235,23,-0.07666015625,-0.02423095703125,0.93817138671875
1688533563597,1052195047,37235,24,-0.0732421875,-0.01275634765625,0.93255615234375
1688533563597,1052195047,37235,25,-0.078369140625,-0.00323486328125,0.90789794921875
1688533563597,1052195047,37235,26,-0.076171875,0.00213623046875,0.91448974609375
1688533563597,1052195047,37235,27,-0.078857421875,-0.00469970703125,0.93328857421875
1688533563597,1052195047,37235,28,-0.08642578125,-0.00738525390625,0.94476318359375
1688533563597,1052195047,37235,29,-0.078857421875,-0.00933837890625,0.92547607421875
1688533563597,1052195047,37235,30,-0.089111328125,-0.02935791015625,0.94378662109375
1688533563597,1052195047,37235,31,-0.09423828125,-0.02496337890625,0.92694091796875
1688533566132,1052197584,37236,0,-0.092529296875,-0.03253173828125,0.92840576171875
1688533566132,1052197584,37236,1,-0.08349609375,-0.04010009765625,0.93328857421875
1688533566132,1052197584,37236,2,-0.0888671875,-0.04132080078125,0.94061279296875
1688533566132,1052197584,37236,3,-0.08935546875,-0.04107666015625,0.93865966796875
1688533566132,1052197584,37236,4,-0.085205078125,-0.04522705078125,0.92669677734375
1688533566132,1052197584,37236,5,-0.090087890625,-0.04937744140625,0.92840576171875
1688533566132,1052197584,37236,6,-0.08349609375,-0.04937744140625,0.94207763671875
1688533566132,1052197584,37236,7,-0.08447265625,-0.04937744140625,0.94256591796875
1688533566132,1052197584,37236,8,-0.086669921875,-0.05157470703125,0.91815185546875
1688533566132,1052197584,37236,9,-0.07958984375,-0.04376220703125,0.95989990234375
1688533566132,1052197584,37236,10,-0.0751953125,-0.03228759765625,0.92327880859375
1688533566132,1052197584,37236,11,-0.08203125,-0.03179931640625,0.94158935546875
1688533566132,1052197584,37236,12,-0.07666015625,-0.01641845703125,0.93646240234375
1688533566132,1052197584,37236,13,-0.0751953125,-0.00860595703125,0.91888427734375
1688533566132,1052197584,37236,14,-0.077392578125,-0.00665283203125,0.92425537109375
1688533566132,1052197584,37236,15,-0.07421875,-0.00103759765625,0.91522216796875
1688533566132,1052197584,37236,16,-0.080078125,-0.00738525390625,0.95086669921875
1688533566132,1052197584,37236,17,-0.080322265625,-0.00689697265625,0.92034912109375
1688533566132,1052197584,37236,18,-0.083740234375,-0.01617431640625,0.94085693359375
1688533566132,1052197584,37236,19,-0.082275390625,-0.01470947265625,0.93060302734375
1688533566132,1052197584,37236,20,-0.085693359375,-0.02447509765625,0.93499755859375
1688533566132,1052197584,37236,21,-0.08837890625,-0.02008056640625,0.93719482421875
1688533566132,1052197584,37236,22,-0.089111328125,-0.02496337890625,0.92572021484375
1688533566132,1052197584,37236,23,-0.085693359375,-0.02569580078125,0.94500732421875
1688533566132,1052197584,37236,24,-0.08544921875,-0.02496337890625,0.92523193359375
1688533566132,1052197584,37236,25,-0.08642578125,-0.03497314453125,0.94061279296875
1688533566132,1052197584,37236,26,-0.0869140625,-0.03399658203125,0.93255615234375
1688533566132,1052197584,37236,27,-0.086181640625,-0.03790283203125,0.92474365234375
1688533566132,1052197584,37236,28,-0.082763671875,-0.04034423828125,0.93572998046875
1688533566132,1052197584,37236,29,-0.08251953125,-0.04010009765625,0.93402099609375
1688533566132,1052197584,37236,30,-0.082763671875,-0.04669189453125,0.93377685546875
1688533566132,1052197584,37236,31,-0.0810546875,-0.04595947265625,0.94036865234375
1688533568664,1052200122,37237,0,-0.077392578125,-0.04888916015625,0.93109130859375
1688533568664,1052200122,37237,1,-0.078369140625,-0.04766845703125,0.93450927734375
1688533568664,1052200122,37237,2,-0.079833984375,-0.04669189453125,0.93328857421875
1688533568664,1052200122,37237,3,-0.078369140625,-0.04840087890625,0.93475341796875
1688533568664,1052200122,37237,4,-0.0791015625,-0.04742431640625,0.93231201171875
1688533568664,1052200122,37237,5,-0.080078125,-0.04791259765625,0.93548583984375
1688533568664,1052200122,37237,6,-0.07861328125,-0.05328369140625,0.93865966796875
1688533568664,1052200122,37237,7,-0.081787109375,-0.04278564453125,0.93157958984375
1688533568664,1052200122,37237,8,-0.08203125,-0.05206298828125,0.93597412109375
1688533568664,1052200122,37237,9,-0.08447265625,-0.04669189453125,0.93524169921875
1688533568664,1052200122,37237,10,-0.0849609375,-0.04693603515625,0.91864013671875
1688533568664,1052200122,37237,11,-0.08154296875,-0.05938720703125,0.94671630859375
1688533568664,1052200122,37237,12,-0.08056640625,-0.04986572265625,0.93743896484375
1688533568664,1052200122,37237,13,-0.08349609375,-0.05157470703125,0.93939208984375
1688533568664,1052200122,37237,14,-0.08056640625,-0.05938720703125,0.92938232421875
1688533568664,1052200122,37237,15,-0.078369140625,-0.05523681640625,0.96136474609375
1688533568664,1052200122,37237,16,-0.076904296875,-0.04351806640625,0.91546630859375
1688533568664,1052200122,37237,17,-0.076171875,-0.03424072265625,0.94940185546875
1688533568664,1052200122,37237,18,-0.067626953125,-0.02569580078125,0.93572998046875
1688533568664,1052200122,37237,19,-0.075439453125,-0.00933837890625,0.91546630859375
1688533568664,1052200122,37237,20,-0.070556640625,-0.00665283203125,0.92303466796875
1688533568664,1052200122,37237,21,-0.066162109375,-0.00592041015625,0.90496826171875
1688533568664,1052200122,37237,22,-0.071044921875,-0.01177978515625,0.94354248046875
1688533568664,1052200122,37237,23,-0.07470703125,-0.01275634765625,0.94183349609375
1688533568664,1052200122,37237,24,-0.078857421875,-0.02105712890625,0.92987060546875
1688533568664,1052200122,37237,25,-0.083740234375,-0.03399658203125,0.94036865234375
1688533568664,1052200122,37237,26,-0.082275390625,-0.02886962890625,0.92645263671875
1688533568664,1052200122,37237,27,-0.084228515625,-0.02886962890625,0.93402099609375
1688533568664,1052200122,37237,28,-0.08349609375,-0.04083251953125,0.94158935546875
1688533568664,1052200122,37237,29,-0.083740234375,-0.03009033203125,0.92645263671875
1688533568664,1052200122,37237,30,-0.081787109375,-0.03472900390625,0.93597412109375
1688533568664,1052200122,37237,31,-0.08203125,-0.03424072265625,0.92620849609375
1688533571202,1052202659,37238,0,-0.07958984375,-0.03375244140625,0.93035888671875
1688533571202,1052202659,37238,1,-0.085693359375,-0.03936767578125,0.93768310546875
1688533571202,1052202659,37238,2,-0.08251953125,-0.03741455078125,0.92474365234375
1688533571202,1052202659,37238,3,-0.08349609375,-0.04083251953125,0.93890380859375
1688533571202,1052202659,37238,4,-0.083740234375,-0.04449462890625,0.93231201171875
1688533571202,1052202659,37238,5,-0.084716796875,-0.03961181640625,0.93499755859375
1688533571202,1052202659,37238,6,-0.079345703125,-0.04644775390625,0.93597412109375
1688533571202,1052202659,37238,7,-0.083984375,-0.03717041015625,0.94281005859375
1688533571202,1052202659,37238,8,-0.08056640625,-0.04010009765625,0.94110107421875
1688533571202,1052202659,37238,9,-0.078125,-0.03814697265625,0.92596435546875
1688533571202,1052202659,37238,10,-0.07421875,-0.02642822265625,0.94744873046875
1688533571202,1052202659,37238,11,-0.07568359375,-0.01519775390625,0.92791748046875
1688533571202,1052202659,37238,12,-0.0712890625,-0.00811767578125,0.92864990234375
1688533571202,1052202659,37238,13,-0.06640625,0.00238037109375,0.90936279296875
1688533571202,1052202659,37238,14,-0.068115234375,-0.00860595703125,0.92010498046875
1688533571202,1052202659,37238,15,-0.07666015625,-0.01495361328125,0.95086669921875
1688533571202,1052202659,37238,16,-0.077392578125,-0.02178955078125,0.92718505859375
1688533571202,1052202659,37238,17,-0.08251953125,-0.02203369140625,0.93353271484375
1688533571202,1052202659,37238,18,-0.07958984375,-0.02398681640625,0.93060302734375
1688533571202,1052202659,37238,19,-0.080078125,-0.02618408203125,0.93621826171875
1688533571202,1052202659,37238,20,-0.079833984375,-0.03448486328125,0.93182373046875
1688533571202,1052202659,37238,21,-0.081298828125,-0.03057861328125,0.93402099609375
1688533571202,1052202659,37238,22,-0.08154296875,-0.02838134765625,0.92474365234375
1688533571202,1052202659,37238,23,-0.083251953125,-0.03643798828125,0.93719482421875
1688533571202,1052202659,37238,24,-0.080810546875,-0.03985595703125,0.92474365234375
1688533571202,1052202659,37238,25,-0.080810546875,-0.04693603515625,0.94378662109375
1688533571202,1052202659,37238,26,-0.08056640625,-0.04571533203125,0.92962646484375
1688533571202,1052202659,37238,27,-0.076171875,-0.05181884765625,0.93499755859375
1688533571202,1052202659,37238,28,-0.078857421875,-0.05133056640625,0.94842529296875
1688533571202,1052202659,37238,29,-0.077880859375,-0.05206298828125,0.94134521484375
1688533571202,1052202659,37238,30,-0.072998046875,-0.04425048828125,0.94281005859375
1688533571202,1052202659,37238,31,-0.07177734375,-0.03009033203125,0.93939208984375
1688533573737,1052205196,37239,0,-0.0751953125,-0.01788330078125,0.91204833984375
1688533573737,1052205196,37239,1,-0.06689453125,-0.01055908203125,0.92303466796875
1688533573737,1052205196,37239,2,-0.067626953125,-0.00738525390625,0.90521240234375
1688533573737,1052205196,37239,3,-0.07421875,-0.01788330078125,0.95574951171875
1688533573737,1052205196,37239,4,-0.07421875,-0.01031494140625,0.92181396484375
1688533573737,1052205196,37239,5,-0.07666015625,-0.02398681640625,0.94012451171875
1688533573737,1052205196,37239,6,-0.079345703125,-0.02252197265625,0.94110107421875
1688533573737,1052205196,37239,7,-0.079345703125,-0.02642822265625,0.92816162109375
1688533573737,1052205196,37239,8,-0.080078125,-0.02691650390625,0.93597412109375
1688533573737,1052205196,37239,9,-0.077880859375,-0.02789306640625,0.93914794921875
1688533573737,1052205196,37239,10,-0.08203125,-0.02447509765625,0.93035888671875
1688533573737,1052205196,37239,11,-0.079345703125,-0.03228759765625,0.93353271484375
1688533573737,1052205196,37239,12,-0.080078125,-0.02642822265625,0.92669677734375
1688533573737,1052205196,37239,13,-0.086181640625,-0.03399658203125,0.93377685546875
1688533573737,1052205196,37239,14,-0.0791015625,-0.03619384765625,0.93597412109375
1688533573737,1052205196,37239,15,-0.0791015625,-0.03228759765625,0.92767333984375
1688533573737,1052205196,37239,16,-0.08154296875,-0.04302978515625,0.93621826171875
1688533573737,1052205196,37239,17,-0.08447265625,-0.03961181640625,0.93157958984375
1688533573737,1052205196,37239,18,-0.079345703125,-0.04547119140625,0.93377685546875
1688533573737,1052205196,37239,19,-0.07861328125,-0.05157470703125,0.94158935546875
1688533573737,1052205196,37239,20,-0.080078125,-0.04522705078125,0.92816162109375
1688533573737,1052205196,37239,21,-0.075927734375,-0.05108642578125,0.93670654296875
1688533573737,1052205196,37239,22,-0.08154296875,-0.04766845703125,0.93841552734375
1688533573737,1052205196,37239,23,-0.078125,-0.05035400390625,0.92059326171875
1688533573737,1052205196,37239,24,-0.079345703125,-0.05670166015625,0.95062255859375
1688533573737,1052205196,37239,25,-0.07763671875,-0.04644775390625,0.91448974609375
1688533573737,1052205196,37239,26,-0.08154296875,-0.05718994140625,0.94012451171875
1688533573737,1052205196,37239,27,-0.0810546875,-0.04864501953125,0.92645263671875
1688533573737,1052205196,37239,28,-0.076904296875,-0.05548095703125,0.94134521484375
1688533573737,1052205196,37239,29,-0.07763671875,-0.05450439453125,0.93182373046875
1688533573737,1052205196,37239,30,-0.078369140625,-0.05181884765625,0.93499755859375
1688533573737,1052205196,37239,31,-0.07958984375,-0.05328369140625,0.93157958984375
1688533576272,1052207733,37240,0,-0.077880859375,-0.05010986328125,0.92523193359375
1688533576272,1052207733,37240,1,-0.078857421875,-0.04913330078125,0.95330810546875
1688533576272,1052207733,37240,2,-0.07763671875,-0.03936767578125,0.93353271484375
1688533576272,1052207733,37240,3,-0.07470703125,-0.03228759765625,0.92596435546875
1688533576272,1052207733,37240,4,-0.072265625,-0.03082275390625,0.93817138671875
1688533576272,1052207733,37240,5,-0.07421875,-0.01593017578125,0.90936279296875
1688533576272,1052207733,37240,6,-0.07275390625,-0.02667236328125,0.94232177734375
1688533576272,1052207733,37240,7,-0.070068359375,-0.02374267578125,0.92938232421875
1688533576272,1052207733,37240,8,-0.086669921875,-0.03033447265625,0.92913818359375
1688533576272,1052207733,37240,9,-0.07470703125,-0.03302001953125,0.93792724609375
1688533576272,1052207733,37240,10,-0.084228515625,-0.02960205078125,0.93817138671875
1688533576272,1052207733,37240,11,-0.081787109375,-0.02984619140625,0.92572021484375
1688533576272,1052207733,37240,12,-0.0771484375,-0.02960205078125,0.94134521484375
1688533576272,1052207733,37240,13,-0.08349609375,-0.02642822265625,0.93524169921875
1688533576272,1052207733,37240,14,-0.06787109375,-0.02667236328125,0.93719482421875
1688533576272,1052207733,37240,15,-0.071533203125,-0.02105712890625,0.92596435546875
1688533576272,1052207733,37240,16,-0.062744140625,-0.02593994140625,0.93109130859375
1688533576272,1052207733,37240,17,-0.072509765625,-0.02276611328125,0.93231201171875
1688533576272,1052207733,37240,18,-0.072265625,-0.01519775390625,0.93768310546875
1688533576272,1052207733,37240,19,-0.0673828125,-0.01910400390625,0.93280029296875
1688533576272,1052207733,37240,20,-0.066650390625,-0.01715087890625,0.93695068359375
1688533576272,1052207733,37240,21,-0.06982421875,-0.01617431640625,0.93475341796875
1688533576272,1052207733,37240,22,-0.068359375,-0.01568603515625,0.93157958984375
1688533576272,1052207733,37240,23,-0.067138671875,-0.02130126953125,0.94329833984375
1688533576272,1052207733,37240,24,-0.068603515625,-0.01275634765625,0.93280029296875
1688533576272,1052207733,37240,25,-0.064208984375,-0.00982666015625,0.93402099609375
1688533576272,1052207733,37240,26,-0.064453125,-0.01422119140625,0.92547607421875
1688533576272,1052207733,37240,27,-0.06689453125,-0.01593017578125,0.94183349609375
1688533576272,1052207733,37240,28,-0.068359375,-0.01055908203125,0.92645263671875
1688533576272,1052207733,37240,29,-0.068115234375,-0.01568603515625,0.93475341796875
1688533576272,1052207733,37240,30,-0.07421875,-0.01373291015625,0.93084716796875
1688533576272,1052207733,37240,31,-0.07080078125,-0.01837158203125,0.93597412109375
1688533578807,1052210270,37241,0,-0.06884765625,-0.01885986328125,0.94134521484375
1688533578807,1052210270,37241,1,-0.068115234375,-0.01690673828125,0.94451904296875
1688533578807,1052210270,37241,2,-0.066650390625,0.00067138671875,0.92108154296875
1688533578807,1052210270,37241,3,-0.060302734375,-0.00738525390625,0.93353271484375
1688533578807,1052210270,37241,4,-0.057373046875,-0.00421142578125,0.93475341796875
1688533578807,1052210270,37241,5,-0.0634765625,0.00384521484375,0.91424560546875
1688533578807,1052210270,37241,6,-0.06689453125,0.00067138671875,0.94476318359375
1688533578807,1052210270,37241,7,-0.0693359375,-0.00201416015625,0.92523193359375
1688533578807,1052210270,37241,8,-0.0693359375,-0.00689697265625,0.94110107421875
1688533578807,1052210270,37241,9,-0.0673828125,-0.00518798828125,0.93792724609375
1688533578807,1052210270,37241,10,-0.0673828125,-0.00592041015625,0.92767333984375
1688533578807,1052210270,37241,11,-0.07421875,-0.00958251953125,0.93914794921875
1688533578807,1052210270,37241,12,-0.07275390625,-6.103515625e-05,0.93011474609375
1688533578807,1052210270,37241,13,-0.07421875,-0.00811767578125,0.93890380859375
1688533578807,1052210270,37241,14,-0.071533203125,-0.01129150390625,0.93133544921875
1688533578807,1052210270,37241,15,-0.070068359375,-0.00274658203125,0.93499755859375
1688533578807,1052210270,37241,16,-0.07275390625,-0.00494384765625,0.93792724609375
1688533578807,1052210270,37241,17,-0.071533203125,-0.01007080078125,0.93670654296875
1688533578807,1052210270,37241,18,-0.074462890625,-0.00762939453125,0.93499755859375
1688533578807,1052210270,37241,19,-0.076416015625,-0.00933837890625,0.93255615234375
1688533578807,1052210270,37241,20,-0.06787109375,-0.00885009765625,0.92791748046875
1688533578807,1052210270,37241,21,-0.074462890625,-0.01593017578125,0.95428466796875
1688533578807,1052210270,37241,22,-0.076904296875,-0.00128173828125,0.93792724609375
1688533578807,1052210270,37241,23,-0.068603515625,-6.103515625e-05,0.93084716796875
1688533578807,1052210270,37241,24,-0.056396484375,0.00531005859375,0.94158935546875
1688533578807,1052210270,37241,25,-0.056640625,0.01580810546875,0.92669677734375
1688533578807,1052210270,37241,26,-0.057373046875,0.01409912109375,0.90643310546875
1688533578807,1052210270,37241,27,-0.067626953125,0.00091552734375,0.95159912109375
1688533578807,1052210270,37241,28,-0.06494140625,0.00213623046875,0.93231201171875
1688533578807,1052210270,37241,29,-0.068115234375,-0.00836181640625,0.93060302734375
1688533578807,1052210270,37241,30,-0.068603515625,-0.01031494140625,0.93206787109375
1688533578807,1052210270,37241,31,-0.076416015625,-0.01763916015625,0.94134521484375
1688533581342,1052212807,37242,0,-0.0673828125,-0.01153564453125,0.93402099609375
1688533581342,1052212807,37242,1,-0.068115234375,-0.02325439453125,0.92742919921875
1688533581342,1052212807,37242,2,-0.072265625,-0.02496337890625,0.93475341796875
1688533581342,1052212807,37242,3,-0.074951171875,-0.01763916015625,0.93402099609375
1688533581342,1052212807,37242,4,-0.07373046875,-0.02691650390625,0.93084716796875
1688533581342,1052212807,37242,5,-0.06982421875,-0.03009033203125,0.93646240234375
1688533581342,1052212807,37242,6,-0.065185546875,-0.03302001953125,0.92938232421875
1688533581342,1052212807,37242,7,-0.0712890625,-0.03765869140625,0.94085693359375
1688533581342,1052212807,37242,8,-0.0712890625,-0.04034423828125,0.92864990234375
1688533581342,1052212807,37242,9,-0.06787109375,-0.04205322265625,0.93353271484375
1688533581342,1052212807,37242,10,-0.067626953125,-0.03863525390625,0.93255615234375
1688533581342,1052212807,37242,11,-0.063720703125,-0.04400634765625,0.92938232421875
1688533581342,1052212807,37242,12,-0.066162109375,-0.04571533203125,0.94061279296875
1688533581342,1052212807,37242,13,-0.065185546875,-0.04888916015625,0.95159912109375
1688533581342,1052212807,37242,14,-0.05615234375,-0.03424072265625,0.92816162109375
1688533581342,1052212807,37242,15,-0.054443359375,-0.03399658203125,0.94158935546875
1688533581342,1052212807,37242,16,-0.05224609375,-0.02520751953125,0.93157958984375
1688533581342,1052212807,37242,17,-0.053955078125,-0.01666259765625,0.92449951171875
1688533581342,1052212807,37242,18,-0.04833984375,-0.01007080078125,0.91522216796875
1688533581342,1052212807,37242,19,-0.052001953125,-0.01983642578125,0.94549560546875
1688533581342,1052212807,37242,20,-0.057861328125,-0.00933837890625,0.93280029296875
1688533581342,1052212807,37242,21,-0.05322265625,-0.01226806640625,0.93109130859375
1688533581342,1052212807,37242,22,-0.058349609375,-0.02227783203125,0.93939208984375
1688533581342,1052212807,37242,23,-0.053466796875,-0.01910400390625,0.93255615234375
1688533581342,1052212807,37242,24,-0.054931640625,-0.01446533203125,0.93402099609375
1688533581342,1052212807,37242,25,-0.06396484375,-0.02545166015625,0.93597412109375
1688533581342,1052212807,37242,26,-0.05859375,-0.02496337890625,0.94036865234375
1688533581342,1052212807,37242,27,-0.057373046875,-0.02423095703125,0.93670654296875
1688533581342,1052212807,37242,28,-0.060302734375,-0.02130126953125,0.93402099609375
1688533581342,1052212807,37242,29,-0.05615234375,-0.03204345703125,0.93695068359375
1688533581342,1052212807,37242,30,-0.0615234375,-0.02178955078125,0.91644287109375
1688533581342,1052212807,37242,31,-0.06201171875,-0.03375244140625,0.95086669921875
1688533584267,1052215344,37243,0,-0.06103515625,-0.03204345703125,0.92913818359375
1688533584267,1052215344,37243,1,-0.06103515625,-0.03302001953125,0.93768310546875
1688533584267,1052215344,37243,2,-0.059326171875,-0.03155517578125,0.92742919921875
1688533584267,1052215344,37243,3,-0.062255859375,-0.03668212890625,0.93890380859375
1688533584267,1052215344,37243,4,-0.060791015625,-0.03570556640625,0.93182373046875
1688533584267,1052215344,37243,5,-0.06298828125,-0.04425048828125,0.93841552734375
1688533584267,1052215344,37243,6,-0.0576171875,-0.03936767578125,0.92694091796875
1688533584267,1052215344,37243,7,-0.060546875,-0.04620361328125,0.93963623046875
1688533584267,1052215344,37243,8,-0.06005859375,-0.03912353515625,0.93597412109375
1688533584267,1052215344,37243,9,-0.056884765625,-0.04327392578125,0.94622802734375
1688533584267,1052215344,37243,10,-0.055908203125,-0.04278564453125,0.94403076171875
1688533584267,1052215344,37243,11,-0.055419921875,-0.03619384765625,0.92816162109375
1688533584267,1052215344,37243,12,-0.05517578125,-0.02886962890625,0.94207763671875
1688533584267,1052215344,37243,13,-0.052978515625,-0.02423095703125,0.92303466796875
1688533584267,1052215344,37243,14,-0.045654296875,-0.02447509765625,0.91693115234375
1688533584267,1052215344,37243,15,-0.04931640625,-0.02838134765625,0.94061279296875
1688533584267,1052215344,37243,16,-0.06396484375,-0.02301025390625,0.92572021484375
1688533584267,1052215344,37243,17,-0.059326171875,-0.03302001953125,0.94793701171875
1688533584267,1052215344,37243,18,-0.059326171875,-0.02471923828125,0.93328857421875
1688533584267,1052215344,37243,19,-0.052001953125,-0.03082275390625,0.93743896484375
1688533584267,1052215344,37243,20,-0.056640625,-0.02886962890625,0.92425537109375
1688533584267,1052215344,37243,21,-0.0634765625,-0.02667236328125,0.93377685546875
1688533584267,1052215344,37243,22,-0.05810546875,-0.02569580078125,0.94158935546875
1688533584267,1052215344,37243,23,-0.0576171875,-0.03277587890625,0.93719482421875
1688533584267,1052215344,37243,24,-0.054931640625,-0.03277587890625,0.93768310546875
1688533584267,1052215344,37243,25,-0.064208984375,-0.03155517578125,0.93060302734375
1688533584267,1052215344,37243,26,-0.05908203125,-0.03204345703125,0.93231201171875
1688533584267,1052215344,37243,27,-0.061279296875,-0.03497314453125,0.93133544921875
1688533584267,1052215344,37243,28,-0.06591796875,-0.03033447265625,0.93280029296875
1688533584267,1052215344,37243,29,-0.052978515625,-0.03399658203125,0.93817138671875
1688533584267,1052215344,37243,30,-0.052734375,-0.03424072265625,0.95672607421875
1688533584267,1052215344,37243,31,-0.0478515625,-0.02838134765625,0.93011474609375
1688533586799,1052217881,37244,0,-0.05615234375,-0.02691650390625,0.93524169921875
1688533586799,1052217881,37244,1,-0.05810546875,-0.01348876953125,0.92889404296875
1688533586799,1052217881,37244,2,-0.059814453125,-0.01129150390625,0.91448974609375
1688533586799,1052217881,37244,3,-0.055419921875,-0.01519775390625,0.91619873046875
1688533586799,1052217881,37244,4,-0.06201171875,-0.01788330078125,0.94476318359375
1688533586799,1052217881,37244,5,-0.0576171875,-0.02642822265625,0.94281005859375
1688533586799,1052217881,37244,6,-0.063720703125,-0.02716064453125,0.94232177734375
1688533586799,1052217881,37244,7,-0.0576171875,-0.03375244140625,0.94061279296875
1688533586799,1052217881,37244,8,-0.0625,-0.03546142578125,0.93475341796875
1688533586799,1052217881,37244,9,-0.062255859375,-0.03204345703125,0.93011474609375
1688533586799,1052217881,37244,10,-0.061767578125,-0.03302001953125,0.93475341796875
1688533586799,1052217881,37244,11,-0.06591796875,-0.03253173828125,0.93499755859375
1688533586799,1052217881,37244,12,-0.06298828125,-0.03521728515625,0.93182373046875
1688533586799,1052217881,37244,13,-0.06591796875,-0.03790283203125,0.93377685546875
1688533586799,1052217881,37244,14,-0.06640625,-0.03204345703125,0.93084716796875
1688533586799,1052217881,37244,15,-0.070068359375,-0.04107666015625,0.94158935546875
