receivedPhoneTimestamp,respeckTimestamp,packetSeqNum,sampleSeqNum,accelX,accelY,accelZ
1759597204536,698722230,13662,0,-0.823486328125,-0.20977783203125,0.53778076171875
1759597204536,698722230,13662,1,-0.82177734375,-0.21417236328125,0.54217529296875
1759597204536,698722230,13662,2,-0.821533203125,-0.21295166015625,0.54559326171875
1759597204536,698722230,13662,3,-0.819580078125,-0.21221923828125,0.54486083984375
1759597204536,698722230,13662,4,-0.8251953125,-0.21295166015625,0.54095458984375
1759597204536,698722230,13662,5,-0.82177734375,-0.21514892578125,0.54388427734375
1759597204536,698722230,13662,6,-0.822265625,-0.21319580078125,0.54583740234375
1759597204536,698722230,13662,7,-0.82177734375,-0.21343994140625,0.54168701171875
1759597204536,698722230,13662,8,-0.822998046875,-0.21270751953125,0.54339599609375
1759597204536,698722230,13662,9,-0.82080078125,-0.21807861328125,0.54461669921875
1759597204536,698722230,13662,10,-0.825439453125,-0.20880126953125,0.54168701171875
1759597204536,698722230,13662,11,-0.822021484375,-0.21343994140625,0.54217529296875
1759597204536,698722230,13662,12,-0.82568359375,-0.21441650390625,0.54461669921875
1759597204536,698722230,13662,13,-0.820068359375,-0.21221923828125,0.54437255859375
1759597204536,698722230,13662,14,-0.82373046875,-0.21417236328125,0.54412841796875
1759597204536,698722230,13662,15,-0.82275390625,-0.21588134765625,0.54583740234375
1759597204536,698722230,13662,16,-0.823974609375,-0.21514892578125,0.54339599609375
1759597204536,698722230,13662,17,-0.8212890625,-0.21051025390625,0.54315185546875
1759597204536,698722230,13662,18,-0.82373046875,-0.21929931640625,0.55194091796875
1759597204536,698722230,13662,19,-0.81689453125,-0.21221923828125,0.54168701171875
1759597204536,698722230,13662,20,-0.823974609375,-0.21124267578125,0.54119873046875
1759597204536,698722230,13662,21,-0.819580078125,-0.21539306640625,0.54046630859375
1759597204536,698722230,13662,22,-0.821533203125,-0.21051025390625,0.53460693359375
1759597204536,698722230,13662,23,-0.82080078125,-0.20831298828125,0.54046630859375
1759597204536,698722230,13662,24,-0.822021484375,-0.21343994140625,0.54266357421875
1759597204536,698722230,13662,25,-0.826171875,-0.21148681640625,0.54119873046875
1759597204536,698722230,13662,26,-0.82421875,-0.21173095703125,0.53875732421875
1759597204536,698722230,13662,27,-0.826904296875,-0.21368408203125,0.53973388671875
1759597204536,698722230,13662,28,-0.824951171875,-0.22857666015625,0.54266357421875
1759597204536,698722230,13662,29,-0.831298828125,-0.21075439453125,0.54437255859375
1759597204536,698722230,13662,30,-0.823486328125,-0.21246337890625,0.53387451171875
1759597204536,698722230,13662,31,-0.831298828125,-0.22589111328125,0.53363037109375
1759597207055,698724797,13663,0,-0.831787109375,-0.21636962890625,0.52874755859375
1759597207055,698724797,13663,1,-0.842041015625,-0.20538330078125,0.53094482421875
1759597207055,698724797,13663,2,-0.8291015625,-0.20880126953125,0.52703857421875
1759597207055,698724797,13663,3,-0.83740234375,-0.19952392578125,0.52044677734375
1759597207055,698724797,13663,4,-0.841552734375,-0.19586181640625,0.50848388671875
1759597207055,698724797,13663,5,-0.843994140625,-0.20196533203125,0.51263427734375
1759597207055,698724797,13663,6,-0.825439453125,-0.19439697265625,0.49749755859375
1759597207055,698724797,13663,7,-0.86474609375,-0.19683837890625,0.50286865234375
1759597207055,698724797,13663,8,-0.842041015625,-0.18267822265625,0.53045654296875
1759597207055,698724797,13663,9,-0.851806640625,-0.21759033203125,0.50091552734375
1759597207055,698724797,13663,10,-0.84228515625,-0.21002197265625,0.49676513671875
1759597207055,698724797,13663,11,-0.8681640625,-0.18048095703125,0.52996826171875
1759597207055,698724797,13663,12,-0.84326171875,-0.17730712890625,0.51116943359375
1759597207055,698724797,13663,13,-0.84326171875,-0.18145751953125,0.52288818359375
1759597207055,698724797,13663,14,-0.856689453125,-0.20196533203125,0.51995849609375
1759597207055,698724797,13663,15,-0.833251953125,-0.21295166015625,0.49505615234375
1759597207055,698724797,13663,16,-0.8720703125,-0.19732666015625,0.51312255859375
1759597207055,698724797,13663,17,-0.8154296875,-0.18560791015625,0.52606201171875
1759597207055,698724797,13663,18,-0.83056640625,-0.20831298828125,0.51629638671875
1759597207055,698724797,13663,19,-0.839599609375,-0.20904541015625,0.52825927734375
1759597207055,698724797,13663,20,-0.861083984375,-0.18341064453125,0.51873779296875
1759597207055,698724797,13663,21,-0.83251953125,-0.18487548828125,0.52166748046875
1759597207055,698724797,13663,22,-0.852783203125,-0.20123291015625,0.51434326171875
1759597207055,698724797,13663,23,-0.83984375,-0.20733642578125,0.53216552734375
1759597207055,698724797,13663,24,-0.8330078125,-0.18609619140625,0.52850341796875
1759597207055,698724797,13663,25,-0.8447265625,-0.20416259765625,0.52239990234375
1759597207055,698724797,13663,26,-0.831787109375,-0.21148681640625,0.52947998046875
1759597207055,698724797,13663,27,-0.81640625,-0.19195556640625,0.54144287109375
1759597207055,698724797,13663,28,-0.82763671875,-0.20513916015625,0.53729248046875
1759597207055,698724797,13663,29,-0.83349609375,-0.23834228515625,0.54315185546875
1759597207055,698724797,13663,30,-0.81591796875,-0.19854736328125,0.52679443359375
1759597207055,698724797,13663,31,-0.841064453125,-0.19586181640625,0.53289794921875
1759597209573,698727365,13664,0,-0.82373046875,-0.20025634765625,0.52655029296875
1759597209573,698727365,13664,1,-0.82421875,-0.23077392578125,0.54681396484375
1759597209573,698727365,13664,2,-0.83642578125,-0.20953369140625,0.52972412109375
1759597209573,698727365,13664,3,-0.833740234375,-0.21661376953125,0.52264404296875
1759597209573,698727365,13664,4,-0.84130859375,-0.20147705078125,0.52386474609375
1759597209573,698727365,13664,5,-0.828857421875,-0.20220947265625,0.52166748046875
1759597209573,698727365,13664,6,-0.836181640625,-0.20806884765625,0.52410888671875
1759597209573,698727365,13664,7,-0.845947265625,-0.19683837890625,0.52679443359375
1759597209573,698727365,13664,8,-0.83447265625,-0.18463134765625,0.52337646484375
1759597209573,698727365,13664,9,-0.84228515625,-0.20172119140625,0.52166748046875
1759597209573,698727365,13664,10,-0.840087890625,-0.20880126953125,0.52679443359375
1759597209573,698727365,13664,11,-0.8291015625,-0.19268798828125,0.52313232421875
1759597209573,698727365,13664,12,-0.84375,-0.20977783203125,0.52874755859375
1759597209573,698727365,13664,13,-0.835693359375,-0.20416259765625,0.52166748046875
1759597209573,698727365,13664,14,-0.838623046875,-0.20880126953125,0.53192138671875
1759597209573,698727365,13664,15,-0.823486328125,-0.20977783203125,0.53314208984375
1759597209573,698727365,13664,16,-0.830810546875,-0.21612548828125,0.52679443359375
1759597209573,698727365,13664,17,-0.8388671875,-0.20831298828125,0.52606201171875
1759597209573,698727365,13664,18,-0.845703125,-0.19586181640625,0.51678466796875
1759597209573,698727365,13664,19,-0.834228515625,-0.20367431640625,0.52581787109375
1759597209573,698727365,13664,20,-0.840576171875,-0.20806884765625,0.52532958984375
1759597209573,698727365,13664,21,-0.850341796875,-0.20123291015625,0.54754638671875
1759597209573,698727365,13664,22,-0.8173828125,-0.20294189453125,0.52142333984375
1759597209573,698727365,13664,23,-0.810546875,-0.21051025390625,0.52069091796875
1759597209573,698727365,13664,24,-0.8408203125,-0.22271728515625,0.52532958984375
1759597209573,698727365,13664,25,-0.85205078125,-0.17535400390625,0.52752685546875
1759597209573,698727365,13664,26,-0.82421875,-0.19024658203125,0.52093505859375
1759597209573,698727365,13664,27,-0.83984375,-0.23052978515625,0.52069091796875
1759597209573,698727365,13664,28,-0.837646484375,-0.22515869140625,0.53485107421875
1759597209573,698727365,13664,29,-0.83447265625,-0.18072509765625,0.52777099609375
1759597209573,698727365,13664,30,-0.83447265625,-0.21246337890625,0.52728271484375
1759597209573,698727365,13664,31,-0.84423828125,-0.21343994140625,0.53216552734375
1759597212273,698729932,13665,0,-0.823486328125,-0.20440673828125,0.51629638671875
1759597212273,698729932,13665,1,-0.83154296875,-0.22027587890625,0.53900146484375
1759597212273,698729932,13665,2,-0.8251953125,-0.20928955078125,0.53631591796875
1759597212273,698729932,13665,3,-0.8369140625,-0.20977783203125,0.53338623046875
1759597212273,698729932,13665,4,-0.82763671875,-0.21026611328125,0.52703857421875
1759597212273,698729932,13665,5,-0.841064453125,-0.21368408203125,0.52801513671875
1759597212273,698729932,13665,6,-0.8369140625,-0.20440673828125,0.52313232421875
1759597212273,698729932,13665,7,-0.830078125,-0.21343994140625,0.52899169921875
1759597212273,698729932,13665,8,-0.832763671875,-0.21148681640625,0.52825927734375
1759597212273,698729932,13665,9,-0.83203125,-0.20416259765625,0.52874755859375
1759597212273,698729932,13665,10,-0.833740234375,-0.20831298828125,0.52484130859375
1759597212273,698729932,13665,11,-0.836181640625,-0.20831298828125,0.52728271484375
1759597212273,698729932,13665,12,-0.832275390625,-0.20709228515625,0.52728271484375
1759597212273,698729932,13665,13,-0.833740234375,-0.21319580078125,0.53070068359375
1759597212273,698729932,13665,14,-0.835205078125,-0.21343994140625,0.53021240234375
1759597212273,698729932,13665,15,-0.832275390625,-0.20904541015625,0.52801513671875
1759597212273,698729932,13665,16,-0.8359375,-0.21417236328125,0.53338623046875
1759597212273,698729932,13665,17,-0.83251953125,-0.21051025390625,0.52850341796875
1759597212273,698729932,13665,18,-0.8330078125,-0.21051025390625,0.53167724609375
1759597212273,698729932,13665,19,-0.83154296875,-0.20953369140625,0.53094482421875
1759597212273,698729932,13665,20,-0.833251953125,-0.21173095703125,0.52728271484375
1759597212273,698729932,13665,21,-0.8330078125,-0.20758056640625,0.52996826171875
1759597212273,698729932,13665,22,-0.83349609375,-0.20831298828125,0.52581787109375
1759597212273,698729932,13665,23,-0.82861328125,-0.21417236328125,0.53387451171875
1759597212273,698729932,13665,24,-0.8291015625,-0.20562744140625,0.52972412109375
1759597212273,698729932,13665,25,-0.836669921875,-0.21441650390625,0.53021240234375
1759597212273,698729932,13665,26,-0.849365234375,-0.21466064453125,0.51654052734375
1759597212273,698729932,13665,27,-0.8369140625,-0.21197509765625,0.52215576171875
1759597212273,698729932,13665,28,-0.821044921875,-0.20977783203125,0.53533935546875
1759597212273,698729932,13665,29,-0.823486328125,-0.21490478515625,0.53851318359375
1759597212273,698729932,13665,30,-0.81591796875,-0.21466064453125,0.53826904296875
1759597212273,698729932,13665,31,-0.836669921875,-0.21075439453125,0.52996826171875
1759597214796,698732499,13666,0,-0.835205078125,-0.21392822265625,0.52410888671875
1759597214796,698732499,13666,1,-0.82861328125,-0.21026611328125,0.52557373046875
1759597214796,698732499,13666,2,-0.832275390625,-0.21441650390625,0.53704833984375
1759597214796,698732499,13666,3,-0.82177734375,-0.21173095703125,0.53948974609375
1759597214796,698732499,13666,4,-0.830078125,-0.21514892578125,0.53826904296875
1759597214796,698732499,13666,5,-0.84228515625,-0.22637939453125,0.54339599609375
1759597214796,698732499,13666,6,-0.82177734375,-0.21368408203125,0.53680419921875
1759597214796,698732499,13666,7,-0.837890625,-0.22149658203125,0.53680419921875
1759597214796,698732499,13666,8,-0.81201171875,-0.20123291015625,0.52777099609375
1759597214796,698732499,13666,9,-0.82275390625,-0.20562744140625,0.53289794921875
1759597214796,698732499,13666,10,-0.81298828125,-0.20416259765625,0.52410888671875
1759597214796,698732499,13666,11,-0.849365234375,-0.21612548828125,0.52777099609375
1759597214796,698732499,13666,12,-0.8291015625,-0.19561767578125,0.53314208984375
1759597214796,698732499,13666,13,-0.83349609375,-0.21466064453125,0.53021240234375
1759597214796,698732499,13666,14,-0.829833984375,-0.21710205078125,0.52777099609375
1759597214796,698732499,13666,15,-0.833740234375,-0.20684814453125,0.51995849609375
1759597214796,698732499,13666,16,-0.83544921875,-0.20782470703125,0.53021240234375
1759597214796,698732499,13666,17,-0.837646484375,-0.21051025390625,0.52679443359375
1759597214796,698732499,13666,18,-0.831787109375,-0.21026611328125,0.52972412109375
1759597214796,698732499,13666,19,-0.835693359375,-0.20562744140625,0.52923583984375
1759597214796,698732499,13666,20,-0.829833984375,-0.21466064453125,0.52972412109375
1759597214796,698732499,13666,21,-0.8310546875,-0.21075439453125,0.52899169921875
1759597214796,698732499,13666,22,-0.832763671875,-0.20733642578125,0.53094482421875
1759597214796,698732499,13666,23,-0.832763671875,-0.21246337890625,0.53094482421875
1759597214796,698732499,13666,24,-0.836181640625,-0.21343994140625,0.52874755859375
1759597214796,698732499,13666,25,-0.8271484375,-0.21295166015625,0.52630615234375
1759597214796,698732499,13666,26,-0.833984375,-0.21148681640625,0.52850341796875
1759597214796,698732499,13666,27,-0.8271484375,-0.21588134765625,0.53265380859375
1759597214796,698732499,13666,28,-0.833984375,-0.21099853515625,0.52874755859375
1759597214796,698732499,13666,29,-0.828857421875,-0.21490478515625,0.53021240234375
1759597214796,698732499,13666,30,-0.830322265625,-0.20782470703125,0.52752685546875
1759597214796,698732499,13666,31,-0.831298828125,-0.21343994140625,0.53192138671875
1759597217319,698735066,13667,0,-0.828857421875,-0.21075439453125,0.53070068359375
1759597217319,698735066,13667,1,-0.833984375,-0.20928955078125,0.53387451171875
1759597217319,698735066,13667,2,-0.828369140625,-0.21075439453125,0.52874755859375
1759597217319,698735066,13667,3,-0.83447265625,-0.20953369140625,0.53118896484375
1759597217319,698735066,13667,4,-0.832275390625,-0.21588134765625,0.53240966796875
1759597217319,698735066,13667,5,-0.83251953125,-0.20489501953125,0.53485107421875
1759597217319,698735066,13667,6,-0.827880859375,-0.21441650390625,0.52996826171875
1759597217319,698735066,13667,7,-0.82861328125,-0.21417236328125,0.53216552734375
1759597217319,698735066,13667,8,-0.82958984375,-0.20953369140625,0.53314208984375
1759597217319,698735066,13667,9,-0.82958984375,-0.21270751953125,0.53070068359375
1759597217319,698735066,13667,10,-0.830078125,-0.21417236328125,0.52874755859375
1759597217319,698735066,13667,11,-0.8330078125,-0.21197509765625,0.53411865234375
1759597217319,698735066,13667,12,-0.831298828125,-0.21270751953125,0.53167724609375
1759597217319,698735066,13667,13,-0.83251953125,-0.21075439453125,0.52459716796875
1759597217319,698735066,13667,14,-0.830078125,-0.21368408203125,0.53021240234375
1759597217319,698735066,13667,15,-0.8271484375,-0.21124267578125,0.53240966796875
1759597217319,698735066,13667,16,-0.8310546875,-0.21881103515625,0.53289794921875
1759597217319,698735066,13667,17,-0.830078125,-0.20831298828125,0.52996826171875
1759597217319,698735066,13667,18,-0.843017578125,-0.20758056640625,0.54290771484375
1759597217319,698735066,13667,19,-0.837158203125,-0.22637939453125,0.53851318359375
1759597217319,698735066,13667,20,-0.79345703125,-0.20391845703125,0.52728271484375
1759597217319,698735066,13667,21,-0.8291015625,-0.21563720703125,0.52996826171875
1759597217319,698735066,13667,22,-0.822265625,-0.20684814453125,0.53900146484375
1759597217319,698735066,13667,23,-0.832275390625,-0.22052001953125,0.53778076171875
1759597217319,698735066,13667,24,-0.833740234375,-0.20147705078125,0.52923583984375
1759597217319,698735066,13667,25,-0.8310546875,-0.21319580078125,0.52679443359375
1759597217319,698735066,13667,26,-0.833251953125,-0.21173095703125,0.53997802734375
1759597217319,698735066,13667,27,-0.825927734375,-0.20684814453125,0.53265380859375
1759597217319,698735066,13667,28,-0.831787109375,-0.21051025390625,0.53021240234375
1759597217319,698735066,13667,29,-0.83447265625,-0.21954345703125,0.52850341796875
1759597217319,698735066,13667,30,-0.8212890625,-0.19903564453125,0.53802490234375
1759597217319,698735066,13667,31,-0.842041015625,-0.22198486328125,0.55047607421875
1759597219836,698737633,13668,0,-0.8212890625,-0.21490478515625,0.54461669921875
1759597219836,698737633,13668,1,-0.7998046875,-0.20660400390625,0.52069091796875
1759597219836,698737633,13668,2,-0.827392578125,-0.21881103515625,0.53167724609375
1759597219836,698737633,13668,3,-0.83056640625,-0.20001220703125,0.54241943359375
1759597219836,698737633,13668,4,-0.83251953125,-0.20977783203125,0.53118896484375
1759597219836,698737633,13668,5,-0.829833984375,-0.21759033203125,0.52899169921875
1759597219836,698737633,13668,6,-0.829345703125,-0.20416259765625,0.52825927734375
1759597219836,698737633,13668,7,-0.830810546875,-0.21148681640625,0.52801513671875
1759597219836,698737633,13668,8,-0.83642578125,-0.21392822265625,0.52972412109375
1759597219836,698737633,13668,9,-0.825927734375,-0.20147705078125,0.53192138671875
1759597219836,698737633,13668,10,-0.8369140625,-0.21856689453125,0.53558349609375
1759597219836,698737633,13668,11,-0.833740234375,-0.21099853515625,0.52923583984375
1759597219836,698737633,13668,12,-0.831298828125,-0.20904541015625,0.53314208984375
1759597219836,698737633,13668,13,-0.833251953125,-0.21270751953125,0.52899169921875
1759597219836,698737633,13668,14,-0.829833984375,-0.21221923828125,0.53167724609375
1759597219836,698737633,13668,15,-0.8330078125,-0.20855712890625,0.52557373046875
1759597219836,698737633,13668,16,-0.831787109375,-0.21319580078125,0.52996826171875
1759597219836,698737633,13668,17,-0.833984375,-0.21002197265625,0.53216552734375
1759597219836,698737633,13668,18,-0.830078125,-0.21563720703125,0.53192138671875
1759597219836,698737633,13668,19,-0.82763671875,-0.21148681640625,0.52459716796875
1759597219836,698737633,13668,20,-0.830810546875,-0.21221923828125,0.53631591796875
1759597219836,698737633,13668,21,-0.835205078125,-0.21295166015625,0.53485107421875
1759597219836,698737633,13668,22,-0.83251953125,-0.21246337890625,0.53289794921875
1759597219836,698737633,13668,23,-0.823974609375,-0.21051025390625,0.53851318359375
1759597219836,698737633,13668,24,-0.834228515625,-0.21246337890625,0.53533935546875
1759597219836,698737633,13668,25,-0.820068359375,-0.22052001953125,0.53021240234375
1759597219836,698737633,13668,26,-0.836181640625,-0.21563720703125,0.53240966796875
1759597219836,698737633,13668,27,-0.83203125,-0.21124267578125,0.53289794921875
1759597219836,698737633,13668,28,-0.82470703125,-0.21295166015625,0.52996826171875
1759597219836,698737633,13668,29,-0.828857421875,-0.21783447265625,0.53411865234375
1759597219836,698737633,13668,30,-0.830810546875,-0.21002197265625,0.53118896484375
1759597219836,698737633,13668,31,-0.826416015625,-0.21246337890625,0.53240966796875
1759597222539,698740200,13669,0,-0.826904296875,-0.21392822265625,0.53411865234375
1759597222539,698740200,13669,1,-0.826904296875,-0.21124267578125,0.53118896484375
1759597222539,698740200,13669,2,-0.82373046875,-0.21051025390625,0.53387451171875
1759597222539,698740200,13669,3,-0.837890625,-0.21856689453125,0.54046630859375
1759597222539,698740200,13669,4,-0.82421875,-0.20782470703125,0.53338623046875
1759597222539,698740200,13669,5,-0.827880859375,-0.21539306640625,0.53192138671875
1759597222539,698740200,13669,6,-0.829345703125,-0.21270751953125,0.53533935546875
1759597222539,698740200,13669,7,-0.826904296875,-0.20587158203125,0.53436279296875
1759597222539,698740200,13669,8,-0.835205078125,-0.21148681640625,0.53485107421875
1759597222539,698740200,13669,9,-0.8212890625,-0.21075439453125,0.53363037109375
1759597222539,698740200,13669,10,-0.832763671875,-0.21807861328125,0.53656005859375
1759597222539,698740200,13669,11,-0.83056640625,-0.20928955078125,0.53680419921875
1759597222539,698740200,13669,12,-0.827392578125,-0.21221923828125,0.53094482421875
1759597222539,698740200,13669,13,-0.83154296875,-0.21636962890625,0.53387451171875
1759597222539,698740200,13669,14,-0.828369140625,-0.20587158203125,0.53851318359375
1759597222539,698740200,13669,15,-0.82373046875,-0.21295166015625,0.52899169921875
1759597222539,698740200,13669,16,-0.8310546875,-0.22296142578125,0.53509521484375
1759597222539,698740200,13669,17,-0.8271484375,-0.20269775390625,0.53729248046875
1759597222539,698740200,13669,18,-0.823486328125,-0.21417236328125,0.53948974609375
1759597222539,698740200,13669,19,-0.828369140625,-0.21685791015625,0.53607177734375
1759597222539,698740200,13669,20,-0.8271484375,-0.20733642578125,0.53558349609375
1759597222539,698740200,13669,21,-0.827392578125,-0.21490478515625,0.53411865234375
1759597222539,698740200,13669,22,-0.82763671875,-0.21295166015625,0.53607177734375
1759597222539,698740200,13669,23,-0.828369140625,-0.21124267578125,0.53460693359375
1759597222539,698740200,13669,24,-0.826416015625,-0.21612548828125,0.53460693359375
1759597222539,698740200,13669,25,-0.828857421875,-0.21197509765625,0.54437255859375
1759597222539,698740200,13669,26,-0.826171875,-0.20880126953125,0.52801513671875
1759597222539,698740200,13669,27,-0.822265625,-0.21783447265625,0.54364013671875
1759597222539,698740200,13669,28,-0.827880859375,-0.21466064453125,0.53240966796875
1759597222539,698740200,13669,29,-0.82763671875,-0.20367431640625,0.53704833984375
1759597222539,698740200,13669,30,-0.831298828125,-0.21636962890625,0.54022216796875
1759597222539,698740200,13669,31,-0.826904296875,-0.20538330078125,0.53363037109375
1759597225055,698742767,13670,0,-0.8251953125,-0.21368408203125,0.53802490234375
1759597225055,698742767,13670,1,-0.830078125,-0.22003173828125,0.53558349609375
1759597225055,698742767,13670,2,-0.825927734375,-0.19781494140625,0.53118896484375
1759597225055,698742767,13670,3,-0.827880859375,-0.20123291015625,0.53631591796875
1759597225055,698742767,13670,4,-0.832763671875,-0.21539306640625,0.53094482421875
1759597225055,698742767,13670,5,-0.8271484375,-0.20465087890625,0.53363037109375
1759597225055,698742767,13670,6,-0.83544921875,-0.20294189453125,0.52923583984375
1759597225055,698742767,13670,7,-0.830810546875,-0.20977783203125,0.53240966796875
1759597225055,698742767,13670,8,-0.861083984375,-0.22052001953125,0.51824951171875
1759597225055,698742767,13670,9,-0.80859375,-0.19219970703125,0.53582763671875
1759597225055,698742767,13670,10,-0.824951171875,-0.20343017578125,0.50897216796875
1759597225055,698742767,13670,11,-0.859130859375,-0.21710205078125,0.51849365234375
1759597225055,698742767,13670,12,-0.836669921875,-0.20001220703125,0.51092529296875
1759597225055,698742767,13670,13,-0.8408203125,-0.21856689453125,0.53485107421875
1759597225055,698742767,13670,14,-0.8193359375,-0.20220947265625,0.53387451171875
1759597225055,698742767,13670,15,-0.837646484375,-0.21539306640625,0.52777099609375
1759597225055,698742767,13670,16,-0.83740234375,-0.20489501953125,0.52630615234375
1759597225055,698742767,13670,17,-0.83740234375,-0.20709228515625,0.52142333984375
1759597225055,698742767,13670,18,-0.8330078125,-0.21441650390625,0.53094482421875
1759597225055,698742767,13670,19,-0.83349609375,-0.20489501953125,0.53094482421875
1759597225055,698742767,13670,20,-0.832275390625,-0.20684814453125,0.52362060546875
1759597225055,698742767,13670,21,-0.8427734375,-0.21319580078125,0.52508544921875
1759597225055,698742767,13670,22,-0.83447265625,-0.19488525390625,0.51409912109375
1759597225055,698742767,13670,23,-0.841064453125,-0.21099853515625,0.52386474609375
1759597225055,698742767,13670,24,-0.83447265625,-0.20904541015625,0.52777099609375
1759597225055,698742767,13670,25,-0.843017578125,-0.21099853515625,0.52728271484375
1759597225055,698742767,13670,26,-0.83447265625,-0.21636962890625,0.52459716796875
1759597225055,698742767,13670,27,-0.83642578125,-0.20928955078125,0.52581787109375
1759597225055,698742767,13670,28,-0.83349609375,-0.20660400390625,0.53070068359375
1759597225055,698742767,13670,29,-0.83740234375,-0.21563720703125,0.53143310546875
1759597225055,698742767,13670,30,-0.836181640625,-0.20513916015625,0.52410888671875
1759597225055,698742767,13670,31,-0.825439453125,-0.21319580078125,0.52703857421875
1759597227575,698745334,13671,0,-0.83642578125,-0.21319580078125,0.52752685546875
1759597227575,698745334,13671,1,-0.82861328125,-0.20440673828125,0.52923583984375
1759597227575,698745334,13671,2,-0.834228515625,-0.21563720703125,0.52996826171875
1759597227575,698745334,13671,3,-0.833251953125,-0.20855712890625,0.53045654296875
1759597227575,698745334,13671,4,-0.833251953125,-0.20953369140625,0.52825927734375
1759597227575,698745334,13671,5,-0.8310546875,-0.20977783203125,0.52508544921875
1759597227575,698745334,13671,6,-0.838134765625,-0.20831298828125,0.52606201171875
1759597227575,698745334,13671,7,-0.8408203125,-0.21417236328125,0.53070068359375
1759597227575,698745334,13671,8,-0.831787109375,-0.20904541015625,0.52655029296875
1759597227575,698745334,13671,9,-0.8291015625,-0.20977783203125,0.52532958984375
1759597227575,698745334,13671,10,-0.82666015625,-0.21978759765625,0.52508544921875
1759597227575,698745334,13671,11,-0.8388671875,-0.20562744140625,0.53070068359375
1759597227575,698745334,13671,12,-0.830322265625,-0.22222900390625,0.53240966796875
1759597227575,698745334,13671,13,-0.826171875,-0.21612548828125,0.53118896484375
1759597227575,698745334,13671,14,-0.836669921875,-0.20977783203125,0.53118896484375
1759597227575,698745334,13671,15,-0.830322265625,-0.20904541015625,0.52679443359375
1759597227575,698745334,13671,16,-0.838134765625,-0.20977783203125,0.52899169921875
1759597227575,698745334,13671,17,-0.82861328125,-0.20831298828125,0.52801513671875
1759597227575,698745334,13671,18,-0.836181640625,-0.20928955078125,0.53265380859375
1759597227575,698745334,13671,19,-0.831298828125,-0.20294189453125,0.52752685546875
1759597227575,698745334,13671,20,-0.83154296875,-0.21343994140625,0.52386474609375
1759597227575,698745334,13671,21,-0.83203125,-0.21368408203125,0.53851318359375
1759597227575,698745334,13671,22,-0.825927734375,-0.21051025390625,0.52874755859375
1759597227575,698745334,13671,23,-0.832763671875,-0.21343994140625,0.53363037109375
1759597227575,698745334,13671,24,-0.83203125,-0.20806884765625,0.53460693359375
1759597227575,698745334,13671,25,-0.828125,-0.21563720703125,0.53143310546875
1759597227575,698745334,13671,26,-0.831787109375,-0.20806884765625,0.52996826171875
1759597227575,698745334,13671,27,-0.8291015625,-0.21490478515625,0.53192138671875
1759597227575,698745334,13671,28,-0.830322265625,-0.21124267578125,0.52874755859375
1759597227575,698745334,13671,29,-0.82958984375,-0.21807861328125,0.53094482421875
1759597227575,698745334,13671,30,-0.830322265625,-0.21026611328125,0.52996826171875
1759597227575,698745334,13671,31,-0.83349609375,-0.21197509765625,0.53363037109375
1759597230277,698747901,13672,0,-0.828857421875,-0.21734619140625,0.53143310546875
1759597230277,698747901,13672,1,-0.829833984375,-0.21173095703125,0.52655029296875
1759597230277,698747901,13672,2,-0.83984375,-0.21099853515625,0.52532958984375
1759597230277,698747901,13672,3,-0.838134765625,-0.21075439453125,0.51702880859375
1759597230277,698747901,13672,4,-0.840576171875,-0.21783447265625,0.52362060546875
1759597230277,698747901,13672,5,-0.84619140625,-0.21197509765625,0.52679443359375
1759597230277,698747901,13672,6,-0.839599609375,-0.21246337890625,0.52679443359375
1759597230277,698747901,13672,7,-0.79931640625,-0.21417236328125,0.53948974609375
1759597230277,698747901,13672,8,-0.85400390625,-0.21661376953125,0.55145263671875
1759597230277,698747901,13672,9,-0.799072265625,-0.16802978515625,0.52117919921875
1759597230277,698747901,13672,10,-0.841552734375,-0.23077392578125,0.51214599609375
1759597230277,698747901,13672,11,-0.82763671875,-0.20001220703125,0.53460693359375
1759597230277,698747901,13672,12,-0.837890625,-0.21343994140625,0.53656005859375
1759597230277,698747901,13672,13,-0.814208984375,-0.20806884765625,0.54095458984375
1759597230277,698747901,13672,14,-0.831787109375,-0.21466064453125,0.54315185546875
1759597230277,698747901,13672,15,-0.829345703125,-0.20172119140625,0.53289794921875
1759597230277,698747901,13672,16,-0.83544921875,-0.21148681640625,0.52996826171875
1759597230277,698747901,13672,17,-0.827392578125,-0.20831298828125,0.53607177734375
1759597230277,698747901,13672,18,-0.828857421875,-0.21026611328125,0.53533935546875
1759597230277,698747901,13672,19,-0.830810546875,-0.20904541015625,0.53143310546875
1759597230277,698747901,13672,20,-0.830078125,-0.20953369140625,0.52972412109375
1759597230277,698747901,13672,21,-0.833251953125,-0.20220947265625,0.52899169921875
1759597230277,698747901,13672,22,-0.827392578125,-0.21343994140625,0.53656005859375
1759597230277,698747901,13672,23,-0.82763671875,-0.21148681640625,0.53289794921875
1759597230277,698747901,13672,24,-0.83056640625,-0.20611572265625,0.53607177734375
1759597230277,698747901,13672,25,-0.83154296875,-0.20928955078125,0.53216552734375
1759597230277,698747901,13672,26,-0.8330078125,-0.21466064453125,0.54071044921875
1759597230277,698747901,13672,27,-0.82421875,-0.20587158203125,0.53485107421875
1759597230277,698747901,13672,28,-0.829833984375,-0.21563720703125,0.53656005859375
1759597230277,698747901,13672,29,-0.83740234375,-0.21978759765625,0.55340576171875
1759597230277,698747901,13672,30,-0.83349609375,-0.21612548828125,0.54095458984375
1759597230277,698747901,13672,31,-0.80810546875,-0.21343994140625,0.54315185546875
1759597232796,698750469,13673,0,-0.81689453125,-0.21173095703125,0.53314208984375
1759597232796,698750469,13673,1,-0.809326171875,-0.18951416015625,0.52703857421875
1759597232796,698750469,13673,2,-0.84423828125,-0.21466064453125,0.53851318359375
1759597232796,698750469,13673,3,-0.8310546875,-0.19024658203125,0.53240966796875
1759597232796,698750469,13673,4,-0.83642578125,-0.21197509765625,0.52459716796875
1759597232796,698750469,13673,5,-0.839599609375,-0.21734619140625,0.53070068359375
1759597232796,698750469,13673,6,-0.8330078125,-0.18902587890625,0.53094482421875
1759597232796,698750469,13673,7,-0.826904296875,-0.20709228515625,0.53338623046875
1759597232796,698750469,13673,8,-0.83447265625,-0.21124267578125,0.53265380859375
1759597232796,698750469,13673,9,-0.836181640625,-0.19781494140625,0.52752685546875
1759597232796,698750469,13673,10,-0.838134765625,-0.20684814453125,0.52777099609375
1759597232796,698750469,13673,11,-0.831298828125,-0.21002197265625,0.52825927734375
1759597232796,698750469,13673,12,-0.831298828125,-0.20001220703125,0.52996826171875
1759597232796,698750469,13673,13,-0.833251953125,-0.21368408203125,0.53265380859375
1759597232796,698750469,13673,14,-0.8330078125,-0.19781494140625,0.52752685546875
1759597232796,698750469,13673,15,-0.83642578125,-0.21075439453125,0.52874755859375
1759597232796,698750469,13673,16,-0.82861328125,-0.20709228515625,0.53314208984375
1759597232796,698750469,13673,17,-0.830322265625,-0.20684814453125,0.53094482421875
1759597232796,698750469,13673,18,-0.83544921875,-0.21051025390625,0.53289794921875
1759597232796,698750469,13673,19,-0.83544921875,-0.20269775390625,0.52825927734375
1759597232796,698750469,13673,20,-0.831787109375,-0.20513916015625,0.52801513671875
1759597232796,698750469,13673,21,-0.833984375,-0.21612548828125,0.52581787109375
1759597232796,698750469,13673,22,-0.829833984375,-0.21246337890625,0.52923583984375
1759597232796,698750469,13673,23,-0.8359375,-0.20196533203125,0.53314208984375
1759597232796,698750469,13673,24,-0.830322265625,-0.21319580078125,0.53607177734375
1759597232796,698750469,13673,25,-0.831298828125,-0.21051025390625,0.53192138671875
1759597232796,698750469,13673,26,-0.828369140625,-0.20831298828125,0.53192138671875
