receivedPhoneTimestamp,respeckTimestamp,packetSeqNum,sampleSeqNum,accelX,accelY,accelZ
1759493844965,4202794,1639,8,0.13525390625,-1.01910400390625,-0.00860595703125
1759493844965,4202794,1639,9,0.1298828125,-1.02667236328125,-0.00787353515625
1759493844965,4202794,1639,10,0.173095703125,-0.98248291015625,-0.10552978515625
1759493844965,4202794,1639,11,0.088134765625,-1.04425048828125,-0.00421142578125
1759493844965,4202794,1639,12,0.15576171875,-1.02154541015625,-0.02081298828125
1759493844965,4202794,1639,13,0.140869140625,-1.02056884765625,-0.01885986328125
1759493844965,4202794,1639,14,0.14111328125,-1.01275634765625,-0.00128173828125
1759493844965,4202794,1639,15,0.118408203125,-1.00738525390625,0.01654052734375
1759493844965,4202794,1639,16,0.13818359375,-1.02691650390625,0.04510498046875
1759493844965,4202794,1639,17,-0.0283203125,-1.01446533203125,0.06414794921875
1759493844965,4202794,1639,18,-0.0361328125,-1.01153564453125,0.11492919921875
1759493844965,4202794,1639,19,0.0126953125,-1.02593994140625,0.08099365234375
1759493844965,4202794,1639,20,0.0625,-1.01812744140625,0.08636474609375
1759493844965,4202794,1639,21,-0.001220703125,-0.98199462890625,0.11395263671875
1759493844965,4202794,1639,22,-0.0302734375,-1.02105712890625,0.15106201171875
1759493844965,4202794,1639,23,0.09033203125,-0.97760009765625,0.04144287109375
1759493844965,4202794,1639,24,0.28564453125,-0.96221923828125,0.02557373046875
1759493844965,4202794,1639,25,0.23193359375,-1.05279541015625,0.01776123046875
1759493844965,4202794,1639,26,0.0166015625,-0.99053955078125,-0.02374267578125
1759493844965,4202794,1639,27,0.117431640625,-1.07354736328125,-0.05718994140625
1759493844965,4202794,1639,28,0.06005859375,-1.01715087890625,-0.32598876953125
1759493844965,4202794,1639,29,0.189697265625,-1.01007080078125,-0.25616455078125
1759493844965,4202794,1639,30,0.171875,-1.02105712890625,-0.20904541015625
1759493844965,4202794,1639,31,0.16162109375,-0.95147705078125,-0.31939697265625
1759493847551,4205356,1640,0,0.16064453125,-0.94805908203125,-0.31182861328125
1759493847551,4205356,1640,1,0.365234375,-0.98663330078125,-0.12969970703125
1759493847551,4205356,1640,2,0.194091796875,-1.09576416015625,0.04193115234375
1759493847551,4205356,1640,3,0.104736328125,-1.04742431640625,0.07684326171875
1759493847551,4205356,1640,4,0.165771484375,-0.95904541015625,0.10125732421875
1759493847551,4205356,1640,5,0.156494140625,-0.99615478515625,0.08880615234375
1759493847551,4205356,1640,6,0.2060546875,-0.99810791015625,0.10809326171875
1759493847551,4205356,1640,7,0.458251953125,-0.79473876953125,-0.13946533203125
1759493847551,4205356,1640,8,0.0849609375,-1.09210205078125,0.07342529296875
1759493847551,4205356,1640,9,0.193359375,-0.99468994140625,0.01043701171875
1759493847551,4205356,1640,10,0.077392578125,-0.99566650390625,-0.00030517578125
1759493847551,4205356,1640,11,0.16796875,-1.01129150390625,-0.00079345703125
1759493847551,4205356,1640,12,0.180908203125,-0.92852783203125,-0.05743408203125
1759493847551,4205356,1640,13,0.114990234375,-1.07818603515625,0.02801513671875
1759493847551,4205356,1640,14,0.120361328125,-1.04718017578125,-0.00689697265625
1759493847551,4205356,1640,15,0.0771484375,-0.99346923828125,0.06170654296875
1759493847551,4205356,1640,16,0.1533203125,-0.99102783203125,0.00604248046875
1759493847551,4205356,1640,17,0.159912109375,-0.96832275390625,-0.03326416015625
1759493847551,4205356,1640,18,0.16943359375,-1.01617431640625,0.00433349609375
1759493847551,4205356,1640,19,0.0615234375,-1.16876220703125,-0.00079345703125
1759493847551,4205356,1640,20,0.222900390625,-0.90802001953125,-0.12066650390625
1759493847551,4205356,1640,21,0.168212890625,-1.00421142578125,-0.04449462890625
1759493847551,4205356,1640,22,0.14501953125,-1.04449462890625,-0.01617431640625
1759493847551,4205356,1640,23,0.15771484375,-0.98126220703125,-0.02691650390625
1759493847551,4205356,1640,24,0.170166015625,-1.03253173828125,0.00360107421875
1759493847551,4205356,1640,25,0.11279296875,-0.99517822265625,0.00823974609375
1759493847551,4205356,1640,26,0.167724609375,-1.01348876953125,0.01263427734375
1759493847551,4205356,1640,27,0.149169921875,-1.01397705078125,-0.04229736328125
1759493847551,4205356,1640,28,0.12548828125,-1.02203369140625,0.02874755859375
1759493847551,4205356,1640,29,0.15869140625,-1.01837158203125,-0.01153564453125
1759493847551,4205356,1640,30,0.19921875,-1.01275634765625,-0.00323486328125
1759493847551,4205356,1640,31,0.14208984375,-0.95513916015625,0.01702880859375
1759493850127,4207917,1641,0,0.104736328125,-1.07647705078125,0.00457763671875
1759493850127,4207917,1641,1,0.18212890625,-0.98760986328125,0.00115966796875
1759493850127,4207917,1641,2,0.16162109375,-0.98590087890625,-0.03863525390625
1759493850127,4207917,1641,3,0.126708984375,-1.03790283203125,0.00140380859375
1759493850127,4207917,1641,4,0.14453125,-1.00982666015625,0.00042724609375
1759493850127,4207917,1641,5,0.133544921875,-1.00372314453125,0.00579833984375
1759493850127,4207917,1641,6,0.154296875,-1.01104736328125,-0.00665283203125
1759493850127,4207917,1641,7,0.083984375,-1.02691650390625,0.05877685546875
1759493850127,4207917,1641,8,0.099365234375,-0.99395751953125,0.06927490234375
1759493850127,4207917,1641,9,0.104248046875,-1.03033447265625,0.03094482421875
1759493850127,4207917,1641,10,0.110595703125,-1.00494384765625,0.04071044921875
1759493850127,4207917,1641,11,0.138916015625,-1.01104736328125,0.02532958984375
1759493850127,4207917,1641,12,0.104736328125,-1.01617431640625,0.02362060546875
1759493850127,4207917,1641,13,0.175048828125,-1.02276611328125,-0.01690673828125
1759493850127,4207917,1641,14,0.13525390625,-1.00128173828125,-0.00982666015625
1759493850127,4207917,1641,15,0.112548828125,-1.02130126953125,-0.01519775390625
1759493850127,4207917,1641,16,0.084716796875,-1.02618408203125,0.01312255859375
1759493850127,4207917,1641,17,0.096435546875,-1.02276611328125,0.01800537109375
1759493850127,4207917,1641,18,0.11279296875,-1.01324462890625,0.01824951171875
1759493850127,4207917,1641,19,0.084716796875,-1.02935791015625,0.04290771484375
1759493850127,4207917,1641,20,0.121826171875,-1.00250244140625,0.04486083984375
1759493850127,4207917,1641,21,0.1904296875,-0.98028564453125,-0.04986572265625
1759493850127,4207917,1641,22,0.124267578125,-1.05718994140625,0.01043701171875
1759493850127,4207917,1641,23,0.04931640625,-1.03790283203125,0.06292724609375
1759493850127,4207917,1641,24,0.1328125,-1.00250244140625,-0.01739501953125
1759493850127,4207917,1641,25,0.182373046875,-0.99884033203125,-0.01568603515625
1759493850127,4207917,1641,26,0.17529296875,-0.99957275390625,-0.03057861328125
1759493850127,4207917,1641,27,0.15771484375,-1.02130126953125,-0.01422119140625
1759493850127,4207917,1641,28,0.08056640625,-1.00225830078125,0.01898193359375
1759493850127,4207917,1641,29,0.091552734375,-1.02032470703125,0.03289794921875
1759493850127,4207917,1641,30,0.134521484375,-1.01300048828125,0.01190185546875
1759493850127,4207917,1641,31,0.10546875,-1.02105712890625,0.01336669921875
1759493852715,4210478,1642,0,0.10986328125,-1.02569580078125,0.06268310546875
1759493852715,4210478,1642,1,0.171875,-1.01104736328125,0.07366943359375
1759493852715,4210478,1642,2,0.12744140625,-1.01568603515625,-0.01275634765625
1759493852715,4210478,1642,3,0.13330078125,-0.96173095703125,-0.01593017578125
1759493852715,4210478,1642,4,0.074462890625,-1.07086181640625,0.06634521484375
1759493852715,4210478,1642,5,0.117919921875,-1.03155517578125,0.02923583984375
1759493852715,4210478,1642,6,0.0888671875,-0.98199462890625,0.01995849609375
1759493852715,4210478,1642,7,0.135009765625,-1.03643798828125,-0.00177001953125
1759493852715,4210478,1642,8,0.1640625,-0.99981689453125,-0.00445556640625
1759493852715,4210478,1642,9,0.113037109375,-1.02227783203125,0.01776123046875
1759493852715,4210478,1642,10,0.088623046875,-1.00738525390625,0.04022216796875
1759493852715,4210478,1642,11,0.11279296875,-1.01055908203125,0.04412841796875
1759493852715,4210478,1642,12,0.14599609375,-1.00616455078125,-0.00811767578125
1759493852715,4210478,1642,13,0.134765625,-1.02838134765625,0.00897216796875
1759493852715,4210478,1642,14,0.13525390625,-1.01275634765625,-0.00421142578125
1759493852715,4210478,1642,15,0.1328125,-0.99835205078125,0.01873779296875
1759493852715,4210478,1642,16,0.172119140625,-1.00225830078125,-0.05377197265625
1759493852715,4210478,1642,17,0.1669921875,-1.01763916015625,-0.04010009765625
1759493852715,4210478,1642,18,0.14501953125,-1.02325439453125,-0.03887939453125
1759493852715,4210478,1642,19,0.0927734375,-1.02545166015625,0.01409912109375
1759493852715,4210478,1642,20,0.119140625,-1.01007080078125,0.02020263671875
1759493852715,4210478,1642,21,0.144287109375,-1.02569580078125,0.01263427734375
1759493852715,4210478,1642,22,0.126708984375,-1.01324462890625,0.01507568359375
1759493852715,4210478,1642,23,0.134765625,-1.00372314453125,-0.03106689453125
1759493852715,4210478,1642,24,0.125732421875,-1.02593994140625,-0.03204345703125
1759493852715,4210478,1642,25,0.095703125,-1.01348876953125,0.01214599609375
1759493852715,4210478,1642,26,0.101806640625,-1.00396728515625,0.02215576171875
1759493852715,4210478,1642,27,0.126953125,-1.01739501953125,-0.00543212890625
1759493852715,4210478,1642,28,0.1337890625,-1.01373291015625,-0.02886962890625
1759493852715,4210478,1642,29,0.138427734375,-1.01275634765625,-0.01910400390625
1759493852715,4210478,1642,30,0.12255859375,-1.01666259765625,0.00531005859375
1759493852715,4210478,1642,31,0.107666015625,-1.01397705078125,0.05413818359375
1759493855299,4213039,1643,0,0.126708984375,-1.03570556640625,0.06024169921875
1759493855299,4213039,1643,1,0.14794921875,-0.99493408203125,-0.06011962890625
1759493855299,4213039,1643,2,0.1181640625,-0.98834228515625,0.00921630859375
1759493855299,4213039,1643,3,0.0908203125,-1.05718994140625,0.04241943359375
1759493855299,4213039,1643,4,0.134765625,-1.00201416015625,0.01263427734375
1759493855299,4213039,1643,5,0.162109375,-1.00958251953125,-0.02325439453125
1759493855299,4213039,1643,6,0.1376953125,-1.00396728515625,0.01409912109375
1759493855299,4213039,1643,7,0.123291015625,-1.01568603515625,0.02093505859375
1759493855299,4213039,1643,8,0.11669921875,-1.01617431640625,0.05120849609375
1759493855299,4213039,1643,9,0.133056640625,-1.02667236328125,0.04974365234375
1759493855299,4213039,1643,10,0.1259765625,-1.00885009765625,0.04608154296875
1759493855299,4213039,1643,11,0.10205078125,-1.02154541015625,0.04095458984375
1759493855299,4213039,1643,12,0.09375,-1.00836181640625,0.03778076171875
1759493855299,4213039,1643,13,0.1103515625,-1.01397705078125,0.01605224609375
1759493855299,4213039,1643,14,0.095703125,-1.01666259765625,0.04681396484375
1759493855299,4213039,1643,15,0.10986328125,-1.01275634765625,0.05242919921875
1759493855299,4213039,1643,16,0.141845703125,-0.99493408203125,-0.01080322265625
1759493855299,4213039,1643,17,0.14013671875,-1.01031494140625,-0.02496337890625
1759493855299,4213039,1643,18,0.13134765625,-1.03692626953125,-0.00299072265625
1759493855299,4213039,1643,19,0.12890625,-0.99957275390625,-0.00054931640625
1759493855299,4213039,1643,20,0.1669921875,-0.98931884765625,-0.05108642578125
1759493855299,4213039,1643,21,0.1767578125,-0.98907470703125,-0.02496337890625
1759493855299,4213039,1643,22,0.149658203125,-1.05889892578125,-0.03350830078125
1759493855299,4213039,1643,23,0.111328125,-1.02301025390625,-0.07159423828125
1759493855299,4213039,1643,24,0.152099609375,-1.01641845703125,-0.05279541015625
1759493855299,4213039,1643,25,0.120361328125,-1.02276611328125,-0.01300048828125
1759493855299,4213039,1643,26,0.15283203125,-0.99078369140625,-0.15728759765625
1759493855299,4213039,1643,27,0.2783203125,-0.94757080078125,0.03485107421875
1759493855299,4213039,1643,28,0.114990234375,-1.03717041015625,0.00946044921875
1759493855299,4213039,1643,29,0.118408203125,-1.01544189453125,0.01678466796875
1759493855299,4213039,1643,30,0.132568359375,-1.03741455078125,-0.05670166015625
1759493855299,4213039,1643,31,0.177734375,-0.94854736328125,0.00262451171875
1759493857883,4215600,1644,0,0.052490234375,-1.04864501953125,-0.08770751953125
1759493857883,4215600,1644,1,0.2158203125,-0.99517822265625,-0.12359619140625
1759493857883,4215600,1644,2,0.231689453125,-1.00299072265625,-0.09307861328125
1759493857883,4215600,1644,3,0.147705078125,-1.02252197265625,-0.01934814453125
1759493857883,4215600,1644,4,0.1455078125,-0.99298095703125,-0.10845947265625
1759493857883,4215600,1644,5,0.276123046875,-1.00933837890625,-0.16119384765625
1759493857883,4215600,1644,6,0.126220703125,-1.03643798828125,-0.17999267578125
1759493857883,4215600,1644,7,0.1767578125,-0.93951416015625,-0.22491455078125
1759493857883,4215600,1644,8,0.1982421875,-0.98052978515625,-0.24346923828125
1759493857883,4215600,1644,9,0.18505859375,-1.01690673828125,-0.19464111328125
1759493857883,4215600,1644,10,0.220947265625,-1.02325439453125,-0.18438720703125
1759493857883,4215600,1644,11,0.151123046875,-1.00689697265625,-0.11260986328125
1759493857883,4215600,1644,12,0.162109375,-0.99493408203125,-0.07012939453125
1759493857883,4215600,1644,13,0.136474609375,-1.02349853515625,-0.00592041015625
1759493857883,4215600,1644,14,0.202392578125,-0.98516845703125,-0.09234619140625
1759493857883,4215600,1644,15,0.1474609375,-0.99859619140625,-0.05889892578125
1759493857883,4215600,1644,16,0.081787109375,-1.05987548828125,0.04071044921875
1759493857883,4215600,1644,17,0.109375,-1.00445556640625,-0.02227783203125
1759493857883,4215600,1644,18,0.13232421875,-1.00543212890625,-0.00616455078125
1759493857883,4215600,1644,19,0.1123046875,-1.01544189453125,0.02191162109375
1759493857883,4215600,1644,20,0.142333984375,-1.00103759765625,-0.01593017578125
1759493857883,4215600,1644,21,0.153564453125,-1.01739501953125,0.00164794921875
1759493857883,4215600,1644,22,0.15283203125,-1.00543212890625,-0.00250244140625
1759493857883,4215600,1644,23,0.146484375,-1.01153564453125,-0.00762939453125
1759493857883,4215600,1644,24,0.139404296875,-1.00079345703125,0.02947998046875
1759493857883,4215600,1644,25,0.113525390625,-1.02496337890625,0.04022216796875
1759493857883,4215600,1644,26,0.151611328125,-1.00689697265625,-0.04498291015625
1759493857883,4215600,1644,27,0.16259765625,-0.98223876953125,-0.09503173828125
1759493857883,4215600,1644,28,0.09814453125,-1.08038330078125,0.03070068359375
1759493857883,4215600,1644,29,0.05810546875,-0.99713134765625,0.00335693359375
1759493857883,4215600,1644,30,0.0947265625,-1.01348876953125,0.01654052734375
1759493857883,4215600,1644,31,0.08203125,-1.01690673828125,-0.00665283203125
1759493860462,4218161,1645,0,0.1220703125,-1.02081298828125,-0.04840087890625
1759493860462,4218161,1645,1,0.127685546875,-1.01959228515625,-0.02203369140625
1759493860462,4218161,1645,2,0.106201171875,-1.02252197265625,0.00018310546875
1759493860462,4218161,1645,3,0.129150390625,-1.00494384765625,0.00213623046875
1759493860462,4218161,1645,4,0.12451171875,-1.02008056640625,0.00677490234375
1759493860462,4218161,1645,5,0.132080078125,-1.03424072265625,0.02166748046875
1759493860462,4218161,1645,6,0.1572265625,-0.99322509765625,0.04193115234375
1759493860462,4218161,1645,7,0.160400390625,-0.99761962890625,0.00384521484375
1759493860462,4218161,1645,8,0.17138671875,-0.99957275390625,-0.03887939453125
1759493860462,4218161,1645,9,0.169677734375,-0.98175048828125,-0.10113525390625
1759493860462,4218161,1645,10,0.10595703125,-1.04937744140625,0.06268310546875
1759493860462,4218161,1645,11,0.11572265625,-1.00030517578125,-0.01373291015625
1759493860462,4218161,1645,12,0.153076171875,-1.01934814453125,-0.03009033203125
1759493860462,4218161,1645,13,0.13818359375,-1.02178955078125,-0.01861572265625
1759493860462,4218161,1645,14,0.13623046875,-1.01446533203125,-0.01129150390625
1759493860462,4218161,1645,15,0.103515625,-1.01641845703125,0.02655029296875
1759493860462,4218161,1645,16,0.140380859375,-1.01934814453125,0.00213623046875
1759493860462,4218161,1645,17,0.163330078125,-1.00543212890625,-0.00225830078125
1759493860462,4218161,1645,18,0.121337890625,-1.01788330078125,0.04339599609375
1759493860462,4218161,1645,19,0.114013671875,-1.01007080078125,0.05609130859375
1759493860462,4218161,1645,20,0.11181640625,-1.02569580078125,0.05902099609375
1759493860462,4218161,1645,21,0.1220703125,-1.00714111328125,0.06170654296875
1759493860462,4218161,1645,22,0.1142578125,-0.99713134765625,0.04705810546875
1759493860462,4218161,1645,23,0.163818359375,-0.99127197265625,-0.05108642578125
1759493860462,4218161,1645,24,0.089599609375,-1.02935791015625,0.08880615234375
1759493860462,4218161,1645,25,0.098388671875,-1.02008056640625,0.01702880859375
1759493860462,4218161,1645,26,0.115478515625,-1.01495361328125,0.01141357421875
1759493860462,4218161,1645,27,0.13671875,-1.01593017578125,0.02239990234375
1759493860462,4218161,1645,28,0.179931640625,-0.99346923828125,-0.02081298828125
1759493860462,4218161,1645,29,0.1220703125,-1.03668212890625,-0.03424072265625
1759493860462,4218161,1645,30,0.141357421875,-1.00250244140625,-0.02423095703125
1759493860462,4218161,1645,31,0.193359375,-0.97076416015625,-0.05157470703125
1759493863050,4220722,1646,0,0.171142578125,-1.04620361328125,-0.00616455078125
1759493863050,4220722,1646,1,0.130126953125,-1.01129150390625,-0.00128173828125
1759493863050,4220722,1646,2,0.15185546875,-1.00860595703125,-0.03057861328125
1759493863050,4220722,1646,3,0.1884765625,-0.99517822265625,-0.03692626953125
1759493863050,4220722,1646,4,0.1435546875,-1.01739501953125,-0.00836181640625
1759493863050,4220722,1646,5,0.129150390625,-1.01226806640625,0.02899169921875
1759493863050,4220722,1646,6,0.20166015625,-0.99249267578125,-0.02130126953125
1759493863050,4220722,1646,7,0.163330078125,-1.02984619140625,-0.03057861328125
1759493863050,4220722,1646,8,0.144775390625,-1.01617431640625,0.03704833984375
1759493863050,4220722,1646,9,0.127197265625,-0.98345947265625,0.02459716796875
1759493863050,4220722,1646,10,0.105224609375,-1.03497314453125,0.06927490234375
1759493863050,4220722,1646,11,0.119140625,-1.00177001953125,0.04241943359375
1759493863050,4220722,1646,12,0.130126953125,-0.99395751953125,0.03582763671875
1759493863050,4220722,1646,13,0.161376953125,-1.01788330078125,0.04364013671875
1759493863050,4220722,1646,14,0.134521484375,-1.01495361328125,0.03900146484375
1759493863050,4220722,1646,15,0.127197265625,-1.00787353515625,0.01263427734375
1759493863050,4220722,1646,16,0.162353515625,-1.00958251953125,-0.02935791015625
1759493863050,4220722,1646,17,0.13623046875,-1.02178955078125,-0.02667236328125
1759493863050,4220722,1646,18,0.1494140625,-1.01177978515625,-0.01837158203125
1759493863050,4220722,1646,19,0.162841796875,-1.04913330078125,-0.00469970703125
1759493863050,4220722,1646,20,0.1982421875,-0.99884033203125,-0.04254150390625
1759493863050,4220722,1646,21,0.122802734375,-1.00933837890625,0.00286865234375
1759493863050,4220722,1646,22,0.075927734375,-0.99053955078125,-0.00714111328125
1759493863050,4220722,1646,23,0.037109375,-1.01861572265625,0.03900146484375
1759493863050,4220722,1646,24,0.1591796875,-1.02862548828125,-0.00274658203125
1759493863050,4220722,1646,25,0.1318359375,-1.00787353515625,-0.02691650390625
1759493863050,4220722,1646,26,0.09228515625,-1.01397705078125,0.03338623046875
1759493863050,4220722,1646,27,0.09423828125,-1.03009033203125,0.02728271484375
1759493863050,4220722,1646,28,0.10205078125,-0.97906494140625,-0.01519775390625
1759493863050,4220722,1646,29,0.14013671875,-1.02667236328125,0.00067138671875
1759493863050,4220722,1646,30,0.227783203125,-1.01788330078125,-0.02886962890625
1759493863050,4220722,1646,31,0.10595703125,-0.98663330078125,-0.03106689453125
1759493865830,4223283,1647,0,0.28564453125,-0.98150634765625,-0.07647705078125
1759493865830,4223283,1647,1,0.239501953125,-1.01373291015625,-0.08624267578125
1759493865830,4223283,1647,2,0.200439453125,-1.00714111328125,-0.06060791015625
1759493865830,4223283,1647,3,0.15673828125,-1.00714111328125,-0.06280517578125
1759493865830,4223283,1647,4,0.122314453125,-1.01983642578125,-0.05865478515625
1759493865830,4223283,1647,5,0.10302734375,-1.03155517578125,-0.09161376953125
1759493865830,4223283,1647,6,0.1552734375,-1.02471923828125,-0.06280517578125
1759493865830,4223283,1647,7,0.17578125,-1.01812744140625,-0.08453369140625
1759493865830,4223283,1647,8,0.17138671875,-1.00616455078125,-0.07135009765625
1759493865830,4223283,1647,9,0.120849609375,-1.01031494140625,-0.02569580078125
1759493865830,4223283,1647,10,0.120849609375,-0.99395751953125,-0.00909423828125
1759493865830,4223283,1647,11,0.1015625,-1.02056884765625,0.01849365234375
1759493865830,4223283,1647,12,0.150390625,-0.99932861328125,-0.01690673828125
1759493865830,4223283,1647,13,0.109619140625,-1.03009033203125,0.03021240234375
1759493865830,4223283,1647,14,0.113525390625,-1.02642822265625,0.02459716796875
1759493865830,4223283,1647,15,0.09423828125,-1.00640869140625,0.03387451171875
1759493865830,4223283,1647,16,0.0693359375,-1.00933837890625,0.07415771484375
1759493865830,4223283,1647,17,0.1005859375,-1.02398681640625,0.07220458984375
1759493865830,4223283,1647,18,0.150390625,-0.99371337890625,0.01068115234375
1759493865830,4223283,1647,19,0.199462890625,-1.00079345703125,-0.06353759765625
1759493865830,4223283,1647,20,0.16259765625,-1.01275634765625,-0.03253173828125
1759493865830,4223283,1647,21,0.142333984375,-1.02447509765625,-0.04522705078125
1759493865830,4223283,1647,22,0.175537109375,-1.01104736328125,-0.09283447265625
1759493865830,4223283,1647,23,0.086669921875,-1.03155517578125,-0.02423095703125
1759493865830,4223283,1647,24,0.090576171875,-1.00323486328125,-0.03472900390625
1759493865830,4223283,1647,25,0.07958984375,-1.03814697265625,0.00555419921875
1759493865830,4223283,1647,26,0.1025390625,-1.01934814453125,0.01263427734375
1759493865830,4223283,1647,27,0.120849609375,-0.98907470703125,0.03875732421875
1759493865830,4223283,1647,28,0.124267578125,-1.02471923828125,0.04510498046875
1759493865830,4223283,1647,29,0.2001953125,-0.97955322265625,-0.04693603515625
1759493865830,4223283,1647,30,0.141845703125,-1.01007080078125,0.01483154296875
1759493865830,4223283,1647,31,0.114013671875,-1.03814697265625,0.02508544921875
1759493868019,4225844,1648,0,0.148681640625,-1.00274658203125,-0.00909423828125
1759493868019,4225844,1648,1,0.11376953125,-1.02276611328125,0.02801513671875
1759493868019,4225844,1648,2,0.11328125,-1.00787353515625,0.01068115234375
1759493868019,4225844,1648,3,0.113525390625,-1.00396728515625,-0.00152587890625
1759493868019,4225844,1648,4,0.095703125,-1.02838134765625,0.02874755859375
1759493868019,4225844,1648,5,0.071044921875,-1.03936767578125,0.04998779296875
1759493868019,4225844,1648,6,0.088623046875,-1.00762939453125,0.04534912109375
1759493868019,4225844,1648,7,0.15625,-1.01202392578125,0.00823974609375
1759493868019,4225844,1648,8,0.130859375,-1.00128173828125,-0.00811767578125
1759493868019,4225844,1648,9,0.156005859375,-0.98052978515625,-0.02935791015625
1759493868019,4225844,1648,10,0.061767578125,-1.08941650390625,0.04144287109375
1759493868019,4225844,1648,11,0.113525390625,-0.98004150390625,-0.00640869140625
1759493868019,4225844,1648,12,0.0986328125,-1.00933837890625,0.00604248046875
1759493868019,4225844,1648,13,0.11376953125,-1.04425048828125,0.01849365234375
1759493868019,4225844,1648,14,0.116455078125,-1.02740478515625,0.02606201171875
1759493868019,4225844,1648,15,0.14892578125,-0.99005126953125,0.03216552734375
1759493868019,4225844,1648,16,0.133056640625,-1.01324462890625,0.02044677734375
1759493868019,4225844,1648,17,0.18115234375,-1.00787353515625,-0.04693603515625
1759493868019,4225844,1648,18,0.14306640625,-0.99444580078125,0.02386474609375
1759493868019,4225844,1648,19,0.1650390625,-1.01519775390625,-0.01251220703125
1759493868019,4225844,1648,20,0.216064453125,-0.98760986328125,-0.05572509765625
1759493868019,4225844,1648,21,0.186767578125,-1.02886962890625,0.00457763671875
1759493868019,4225844,1648,22,0.184814453125,-1.00250244140625,-0.04351806640625
1759493868019,4225844,1648,23,0.169921875,-0.99688720703125,-0.03741455078125
1759493868019,4225844,1648,24,0.138671875,-1.01788330078125,0.00335693359375
1759493868019,4225844,1648,25,0.125,-1.02105712890625,0.00946044921875
1759493868019,4225844,1648,26,0.135009765625,-1.01568603515625,0.03314208984375
1759493868019,4225844,1648,27,0.16357421875,-1.00543212890625,0.03875732421875
1759493868019,4225844,1648,28,0.1533203125,-1.00054931640625,0.00238037109375
1759493868019,4225844,1648,29,0.205810546875,-0.94976806640625,-0.03521728515625
1759493868019,4225844,1648,30,0.158935546875,-1.05963134765625,0.03656005859375
1759493868019,4225844,1648,31,0.218994140625,-0.97467041015625,-0.07989501953125
1759493870603,4228405,1649,0,0.21484375,-0.99346923828125,-0.05352783203125
1759493870603,4228405,1649,1,0.201171875,-0.98126220703125,-0.08819580078125
1759493870603,4228405,1649,2,0.267578125,-0.99810791015625,-0.10675048828125
1759493870603,4228405,1649,3,0.220703125,-0.97979736328125,-0.09014892578125
1759493870603,4228405,1649,4,0.252685546875,-0.99249267578125,-0.13262939453125
1759493870603,4228405,1649,5,0.241455078125,-1.00714111328125,-0.11627197265625
1759493870603,4228405,1649,6,0.236572265625,-0.99737548828125,-0.13555908203125
1759493870603,4228405,1649,7,0.21923828125,-1.01348876953125,-0.11944580078125
1759493870603,4228405,1649,8,0.207763671875,-0.99371337890625,-0.13018798828125
1759493870603,4228405,1649,9,0.173095703125,-1.00811767578125,-0.07110595703125
1759493870603,4228405,1649,10,0.16064453125,-0.99444580078125,-0.06646728515625
1759493870603,4228405,1649,11,0.167236328125,-1.02520751953125,-0.02984619140625
1759493870603,4228405,1649,12,0.1865234375,-0.97760009765625,-0.04840087890625
1759493870603,4228405,1649,13,0.180419921875,-0.97857666015625,-0.06378173828125
1759493870603,4228405,1649,14,0.173095703125,-0.99029541015625,-0.06378173828125
1759493870603,4228405,1649,15,0.153564453125,-1.04473876953125,-0.04962158203125
1759493870603,4228405,1649,16,0.1640625,-0.99835205078125,-0.05914306640625
1759493870603,4228405,1649,17,0.128662109375,-1.01373291015625,-0.03497314453125
1759493870603,4228405,1649,18,0.161376953125,-0.98712158203125,-0.05426025390625
1759493870603,4228405,1649,19,0.182373046875,-1.02569580078125,-0.02032470703125
1759493870603,4228405,1649,20,0.20947265625,-0.99176025390625,-0.14434814453125
1759493870603,4228405,1649,21,0.19921875,-0.99835205078125,-0.08868408203125
1759493870603,4228405,1649,22,0.1611328125,-1.02325439453125,-0.04351806640625
1759493870603,4228405,1649,23,0.159912109375,-1.01763916015625,-0.02545166015625
1759493870603,4228405,1649,24,0.178955078125,-0.99859619140625,-0.00616455078125
1759493870603,4228405,1649,25,0.189697265625,-1.01300048828125,-6.103515625e-05
1759493870603,4228405,1649,26,0.171142578125,-0.99542236328125,0.00164794921875
1759493870603,4228405,1649,27,0.171142578125,-0.99810791015625,-0.02081298828125
1759493870603,4228405,1649,28,0.157958984375,-1.01666259765625,0.00506591796875
1759493870603,4228405,1649,29,0.15283203125,-1.01959228515625,-0.00347900390625
1759493870603,4228405,1649,30,0.194580078125,-1.01055908203125,-0.05010986328125
1759493870603,4228405,1649,31,0.1396484375,-1.00714111328125,-0.00860595703125
1759493873184,4230966,1650,0,0.09814453125,-1.00616455078125,0.02044677734375
1759493873184,4230966,1650,1,0.097900390625,-0.99908447265625,-0.04205322265625
1759493873184,4230966,1650,2,0.154052734375,-0.99273681640625,-0.05230712890625
1759493873184,4230966,1650,3,0.17626953125,-1.04791259765625,0.00115966796875
1759493873184,4230966,1650,4,0.19580078125,-0.98126220703125,-0.06500244140625
1759493873184,4230966,1650,5,0.214111328125,-0.98614501953125,-0.03375244140625
1759493873184,4230966,1650,6,0.166015625,-1.00543212890625,-0.09234619140625
1759493873184,4230966,1650,7,0.176025390625,-1.00103759765625,-0.07843017578125
1759493873184,4230966,1650,8,0.16650390625,-1.02374267578125,-0.05767822265625
1759493873184,4230966,1650,9,0.18701171875,-1.01080322265625,-0.09088134765625
1759493873184,4230966,1650,10,0.16015625,-1.02935791015625,-0.05377197265625
1759493873184,4230966,1650,11,0.179931640625,-1.00054931640625,-0.09332275390625
1759493873184,4230966,1650,12,0.142822265625,-0.99957275390625,-0.05401611328125
1759493873184,4230966,1650,13,0.151123046875,-1.01983642578125,-0.03009033203125
1759493873184,4230966,1650,14,0.181396484375,-1.00714111328125,-0.09161376953125
1759493873184,4230966,1650,15,0.1328125,-1.00347900390625,-0.03741455078125
1759493873184,4230966,1650,16,0.1474609375,-1.02203369140625,-0.01373291015625
1759493873184,4230966,1650,17,0.104248046875,-1.01690673828125,0.00238037109375
1759493873184,4230966,1650,18,0.091552734375,-1.01300048828125,0.00311279296875
1759493873184,4230966,1650,19,0.083984375,-1.02618408203125,0.01458740234375
1759493873184,4230966,1650,20,0.082275390625,-1.02886962890625,0.02288818359375
1759493873184,4230966,1650,21,0.096923828125,-1.03204345703125,0.06512451171875
1759493873184,4230966,1650,22,0.12255859375,-0.99981689453125,-0.02716064453125
1759493873184,4230966,1650,23,0.1787109375,-0.96685791015625,-0.07720947265625
1759493873184,4230966,1650,24,0.1064453125,-1.05596923828125,0.06439208984375
1759493873184,4230966,1650,25,0.130615234375,-0.99346923828125,-0.00958251953125
1759493873184,4230966,1650,26,0.173583984375,-0.99713134765625,-0.04034423828125
1759493873184,4230966,1650,27,0.104736328125,-1.04718017578125,0.02435302734375
1759493873184,4230966,1650,28,0.125,-1.00177001953125,-0.01007080078125
1759493873184,4230966,1650,29,0.10302734375,-1.02154541015625,0.01165771484375
1759493873184,4230966,1650,30,0.13720703125,-1.00860595703125,-0.00909423828125
1759493873184,4230966,1650,31,0.152587890625,-1.01519775390625,-0.04034423828125
1759493875772,4233528,1651,0,0.16259765625,-1.02032470703125,-0.00201416015625
1759493875772,4233528,1651,1,0.1552734375,-1.01031494140625,-0.03009033203125
1759493875772,4233528,1651,2,0.11767578125,-1.00103759765625,-0.01934814453125
1759493875772,4233528,1651,3,0.18115234375,-1.03033447265625,0.03802490234375
1759493875772,4233528,1651,4,0.1416015625,-1.00909423828125,0.04290771484375
1759493875772,4233528,1651,5,0.1259765625,-0.99566650390625,0.06097412109375
1759493875772,4233528,1651,6,0.129638671875,-1.00738525390625,-0.04180908203125
1759493875772,4233528,1651,7,0.15771484375,-0.99273681640625,0.03216552734375
1759493875772,4233528,1651,8,0.07177734375,-1.06085205078125,0.07269287109375
1759493875772,4233528,1651,9,0.167236328125,-0.99639892578125,0.00286865234375
1759493875772,4233528,1651,10,0.0419921875,-1.01959228515625,0.05828857421875
1759493875772,4233528,1651,11,0.07763671875,-1.01177978515625,0.02996826171875
1759493875772,4233528,1651,12,0.144775390625,-1.01959228515625,0.04217529296875
1759493875772,4233528,1651,13,0.1328125,-1.00006103515625,0.04779052734375
1759493875772,4233528,1651,14,0.03662109375,-0.98736572265625,0.09783935546875
1759493875772,4233528,1651,15,0.06787109375,-1.04034423828125,0.10931396484375
1759493875772,4233528,1651,16,0.029296875,-1.01446533203125,0.05755615234375
