receivedPhoneTimestamp,respeckTimestamp,packetSeqNum,sampleSeqNum,accelX,accelY,accelZ
1759503908815,14250955,5547,0,-0.77978515625,-0.07403564453125,-0.69366455078125
1759503908815,14250955,5547,1,-0.780029296875,-0.07672119140625,-0.68463134765625
1759503908815,14250955,5547,2,-0.770751953125,-0.07550048828125,-0.69879150390625
1759503908815,14250955,5547,3,-0.77978515625,-0.07232666015625,-0.71466064453125
1759503908815,14250955,5547,4,-0.745849609375,-0.06427001953125,-0.72198486328125
1759503908815,14250955,5547,5,-0.775634765625,-0.07330322265625,-0.69244384765625
1759503908815,14250955,5547,6,-0.7841796875,-0.10357666015625,-0.67706298828125
1759503908815,14250955,5547,7,-0.789794921875,-0.09259033203125,-0.67388916015625
1759503908815,14250955,5547,8,-0.7705078125,-0.08721923828125,-0.70196533203125
1759503908815,14250955,5547,9,-0.7685546875,-0.08917236328125,-0.69952392578125
1759503908815,14250955,5547,10,-0.77001953125,-0.08599853515625,-0.70391845703125
1759503908815,14250955,5547,11,-0.7734375,-0.09844970703125,-0.68096923828125
1759503908815,14250955,5547,12,-0.77587890625,-0.07843017578125,-0.70709228515625
1759503908815,14250955,5547,13,-0.728515625,-0.05694580078125,-0.75396728515625
1759503908815,14250955,5547,14,-0.72216796875,-0.06451416015625,-0.74542236328125
1759503908815,14250955,5547,15,-0.72900390625,-0.07598876953125,-0.74908447265625
1759503908815,14250955,5547,16,-0.73828125,-0.08380126953125,-0.72613525390625
1759503908815,14250955,5547,17,-0.7529296875,-0.07403564453125,-0.72686767578125
1759503908815,14250955,5547,18,-0.7197265625,-0.06500244140625,-0.72784423828125
1759503908815,14250955,5547,19,-0.73193359375,-0.06378173828125,-0.73809814453125
1759503908815,14250955,5547,20,-0.733642578125,-0.07257080078125,-0.74078369140625
1759503908815,14250955,5547,21,-0.748291015625,-0.08135986328125,-0.74322509765625
1759503908815,14250955,5547,22,-0.724365234375,-0.06597900390625,-0.73150634765625
1759503908815,14250955,5547,23,-0.7314453125,-0.06939697265625,-0.74005126953125
1759503908815,14250955,5547,24,-0.73095703125,-0.06719970703125,-0.73321533203125
1759503908815,14250955,5547,25,-0.72998046875,-0.07476806640625,-0.74298095703125
1759503908815,14250955,5547,26,-0.717529296875,-0.07672119140625,-0.73907470703125
1759503908815,14250955,5547,27,-0.711181640625,-0.07354736328125,-0.77374267578125
1759503908815,14250955,5547,28,-0.714111328125,-0.08184814453125,-0.75689697265625
1759503908815,14250955,5547,29,-0.718994140625,-0.08233642578125,-0.74884033203125
1759503908815,14250955,5547,30,-0.729248046875,-0.08795166015625,-0.73394775390625
1759503908815,14250955,5547,31,-0.73291015625,-0.09478759765625,-0.72833251953125
1759503911556,14253516,5548,0,-0.728759765625,-0.08746337890625,-0.73492431640625
1759503911556,14253516,5548,1,-0.72900390625,-0.08697509765625,-0.74249267578125
1759503911556,14253516,5548,2,-0.7265625,-0.08746337890625,-0.74542236328125
1759503911556,14253516,5548,3,-0.727294921875,-0.09112548828125,-0.73638916015625
1759503911556,14253516,5548,4,-0.724609375,-0.09039306640625,-0.74566650390625
1759503911556,14253516,5548,5,-0.726806640625,-0.09234619140625,-0.74566650390625
1759503911556,14253516,5548,6,-0.7314453125,-0.07745361328125,-0.75689697265625
1759503911556,14253516,5548,7,-0.764892578125,-0.07672119140625,-0.67950439453125
1759503911556,14253516,5548,8,-0.770263671875,-0.08331298828125,-0.70220947265625
1759503911556,14253516,5548,9,-0.7587890625,-0.07769775390625,-0.71270751953125
1759503911556,14253516,5548,10,-0.753662109375,-0.07476806640625,-0.72344970703125
1759503911556,14253516,5548,11,-0.754150390625,-0.08087158203125,-0.72003173828125
1759503911556,14253516,5548,12,-0.754638671875,-0.08160400390625,-0.72149658203125
1759503911556,14253516,5548,13,-0.7578125,-0.08233642578125,-0.71295166015625
1759503911556,14253516,5548,14,-0.756103515625,-0.08258056640625,-0.71807861328125
1759503911556,14253516,5548,15,-0.755126953125,-0.08087158203125,-0.71588134765625
1759503911556,14253516,5548,16,-0.7568359375,-0.08380126953125,-0.71710205078125
1759503911556,14253516,5548,17,-0.756591796875,-0.08135986328125,-0.71636962890625
1759503911556,14253516,5548,18,-0.7578125,-0.08404541015625,-0.71832275390625
1759503911556,14253516,5548,19,-0.758544921875,-0.08160400390625,-0.72003173828125
1759503911556,14253516,5548,20,-0.756591796875,-0.08355712890625,-0.71807861328125
1759503911556,14253516,5548,21,-0.75634765625,-0.08258056640625,-0.71612548828125
1759503911556,14253516,5548,22,-0.754150390625,-0.08331298828125,-0.72198486328125
1759503911556,14253516,5548,23,-0.75537109375,-0.08453369140625,-0.71661376953125
1759503911556,14253516,5548,24,-0.7578125,-0.08477783203125,-0.71490478515625
1759503911556,14253516,5548,25,-0.755126953125,-0.08453369140625,-0.71563720703125
1759503911556,14253516,5548,26,-0.7587890625,-0.08648681640625,-0.71075439453125
1759503911556,14253516,5548,27,-0.769287109375,-0.09527587890625,-0.70172119140625
1759503911556,14253516,5548,28,-0.767333984375,-0.09063720703125,-0.70538330078125
1759503911556,14253516,5548,29,-0.762451171875,-0.09136962890625,-0.70709228515625
1759503911556,14253516,5548,30,-0.763916015625,-0.09283447265625,-0.71051025390625
1759503911556,14253516,5548,31,-0.767333984375,-0.09600830078125,-0.70318603515625
1759503913885,14256077,5549,0,-0.76171875,-0.09307861328125,-0.71588134765625
1759503913885,14256077,5549,1,-0.7705078125,-0.09967041015625,-0.69879150390625
1759503913885,14256077,5549,2,-0.773681640625,-0.10406494140625,-0.69635009765625
1759503913885,14256077,5549,3,-0.7685546875,-0.10333251953125,-0.70098876953125
1759503913885,14256077,5549,4,-0.76904296875,-0.10308837890625,-0.69122314453125
1759503913885,14256077,5549,5,-0.7744140625,-0.10479736328125,-0.69366455078125
1759503913885,14256077,5549,6,-0.7724609375,-0.10455322265625,-0.69635009765625
1759503913885,14256077,5549,7,-0.768798828125,-0.10357666015625,-0.69732666015625
1759503913885,14256077,5549,8,-0.767822265625,-0.10162353515625,-0.70172119140625
1759503913885,14256077,5549,9,-0.765625,-0.10235595703125,-0.70489501953125
1759503913885,14256077,5549,10,-0.767578125,-0.10333251953125,-0.70245361328125
1759503913885,14256077,5549,11,-0.762939453125,-0.10284423828125,-0.70660400390625
1759503913885,14256077,5549,12,-0.76806640625,-0.10211181640625,-0.70318603515625
1759503913885,14256077,5549,13,-0.764892578125,-0.10455322265625,-0.70733642578125
1759503913885,14256077,5549,14,-0.75927734375,-0.10015869140625,-0.71246337890625
1759503913885,14256077,5549,15,-0.76171875,-0.10064697265625,-0.71002197265625
1759503913885,14256077,5549,16,-0.7646484375,-0.10406494140625,-0.70855712890625
1759503913885,14256077,5549,17,-0.764404296875,-0.10211181640625,-0.70269775390625
1759503913885,14256077,5549,18,-0.76123046875,-0.09991455078125,-0.70513916015625
1759503913885,14256077,5549,19,-0.7568359375,-0.09942626953125,-0.71490478515625
1759503913885,14256077,5549,20,-0.757080078125,-0.09576416015625,-0.71588134765625
1759503913885,14256077,5549,21,-0.75390625,-0.09796142578125,-0.71246337890625
1759503913885,14256077,5549,22,-0.7587890625,-0.09844970703125,-0.71392822265625
1759503913885,14256077,5549,23,-0.75146484375,-0.09674072265625,-0.71929931640625
1759503913885,14256077,5549,24,-0.75537109375,-0.09771728515625,-0.71636962890625
1759503913885,14256077,5549,25,-0.758056640625,-0.09796142578125,-0.71221923828125
1759503913885,14256077,5549,26,-0.7578125,-0.10015869140625,-0.70806884765625
1759503913885,14256077,5549,27,-0.75439453125,-0.10260009765625,-0.71514892578125
1759503913885,14256077,5549,28,-0.73681640625,-0.10186767578125,-0.72540283203125
1759503913885,14256077,5549,29,-0.7373046875,-0.09552001953125,-0.73443603515625
1759503913885,14256077,5549,30,-0.752197265625,-0.09918212890625,-0.71905517578125
1759503913885,14256077,5549,31,-0.763427734375,-0.10455322265625,-0.70635986328125
1759503916423,14258638,5550,0,-0.75732421875,-0.09844970703125,-0.70733642578125
1759503916423,14258638,5550,1,-0.734375,-0.09576416015625,-0.72589111328125
1759503916423,14258638,5550,2,-0.71630859375,-0.10064697265625,-0.75714111328125
1759503916423,14258638,5550,3,-0.70556640625,-0.10137939453125,-0.78204345703125
1759503916423,14258638,5550,4,-0.722412109375,-0.08770751953125,-0.76177978515625
1759503916423,14258638,5550,5,-0.740966796875,-0.09991455078125,-0.71221923828125
1759503916423,14258638,5550,6,-0.76806640625,-0.09942626953125,-0.69195556640625
1759503916423,14258638,5550,7,-0.75390625,-0.09967041015625,-0.72076416015625
1759503916423,14258638,5550,8,-0.756591796875,-0.10137939453125,-0.72003173828125
1759503916423,14258638,5550,9,-0.76318359375,-0.09967041015625,-0.70050048828125
1759503916423,14258638,5550,10,-0.76171875,-0.10211181640625,-0.70367431640625
1759503916423,14258638,5550,11,-0.75830078125,-0.09796142578125,-0.71563720703125
1759503916423,14258638,5550,12,-0.76025390625,-0.10113525390625,-0.71026611328125
1759503916423,14258638,5550,13,-0.7568359375,-0.09844970703125,-0.72003173828125
1759503916423,14258638,5550,14,-0.756591796875,-0.09918212890625,-0.71417236328125
1759503916423,14258638,5550,15,-0.755859375,-0.10113525390625,-0.71759033203125
1759503916423,14258638,5550,16,-0.754150390625,-0.10235595703125,-0.71148681640625
1759503916423,14258638,5550,17,-0.755126953125,-0.10211181640625,-0.71173095703125
1759503916423,14258638,5550,18,-0.755126953125,-0.10357666015625,-0.71807861328125
1759503916423,14258638,5550,19,-0.753662109375,-0.10308837890625,-0.71661376953125
1759503916423,14258638,5550,20,-0.756103515625,-0.10284423828125,-0.71954345703125
1759503916423,14258638,5550,21,-0.7578125,-0.10528564453125,-0.71295166015625
1759503916423,14258638,5550,22,-0.75830078125,-0.10064697265625,-0.71466064453125
1759503916423,14258638,5550,23,-0.76220703125,-0.10406494140625,-0.70758056640625
1759503916423,14258638,5550,24,-0.76220703125,-0.10284423828125,-0.70831298828125
1759503916423,14258638,5550,25,-0.763916015625,-0.10943603515625,-0.69683837890625
1759503916423,14258638,5550,26,-0.761474609375,-0.10064697265625,-0.71148681640625
1759503916423,14258638,5550,27,-0.760986328125,-0.10211181640625,-0.70977783203125
1759503916423,14258638,5550,28,-0.759765625,-0.10430908203125,-0.70538330078125
1759503916423,14258638,5550,29,-0.7578125,-0.10089111328125,-0.71466064453125
1759503916423,14258638,5550,30,-0.755859375,-0.10235595703125,-0.71392822265625
1759503916423,14258638,5550,31,-0.7529296875,-0.10137939453125,-0.71588134765625
1759503919161,14261199,5551,0,-0.751953125,-0.09991455078125,-0.72467041015625
1759503919161,14261199,5551,1,-0.754638671875,-0.09942626953125,-0.71807861328125
1759503919161,14261199,5551,2,-0.74609375,-0.10528564453125,-0.71685791015625
1759503919161,14261199,5551,3,-0.74169921875,-0.10235595703125,-0.72589111328125
1759503919161,14261199,5551,4,-0.751220703125,-0.10430908203125,-0.71929931640625
1759503919161,14261199,5551,5,-0.753662109375,-0.10479736328125,-0.71905517578125
1759503919161,14261199,5551,6,-0.754638671875,-0.10260009765625,-0.72442626953125
1759503919161,14261199,5551,7,-0.760986328125,-0.10455322265625,-0.70294189453125
1759503919161,14261199,5551,8,-0.75927734375,-0.09893798828125,-0.71051025390625
1759503919161,14261199,5551,9,-0.755126953125,-0.10211181640625,-0.71881103515625
1759503919161,14261199,5551,10,-0.756591796875,-0.10137939453125,-0.71734619140625
1759503919161,14261199,5551,11,-0.759033203125,-0.10113525390625,-0.70782470703125
1759503919161,14261199,5551,12,-0.759765625,-0.10260009765625,-0.70758056640625
1759503919161,14261199,5551,13,-0.757080078125,-0.10235595703125,-0.71197509765625
1759503919161,14261199,5551,14,-0.759033203125,-0.10577392578125,-0.71441650390625
1759503919161,14261199,5551,15,-0.7265625,-0.10430908203125,-0.73248291015625
1759503919161,14261199,5551,16,-0.730712890625,-0.10186767578125,-0.74444580078125
1759503919161,14261199,5551,17,-0.7470703125,-0.10113525390625,-0.72003173828125
1759503919161,14261199,5551,18,-0.749755859375,-0.10211181640625,-0.72369384765625
1759503919161,14261199,5551,19,-0.737548828125,-0.10113525390625,-0.73541259765625
1759503919161,14261199,5551,20,-0.740478515625,-0.10333251953125,-0.72515869140625
1759503919161,14261199,5551,21,-0.749755859375,-0.10162353515625,-0.71685791015625
1759503919161,14261199,5551,22,-0.7421875,-0.10552978515625,-0.72564697265625
1759503919161,14261199,5551,23,-0.73779296875,-0.10260009765625,-0.72515869140625
1759503919161,14261199,5551,24,-0.74755859375,-0.10333251953125,-0.72100830078125
1759503919161,14261199,5551,25,-0.74462890625,-0.10162353515625,-0.72052001953125
1759503919161,14261199,5551,26,-0.7421875,-0.11309814453125,-0.72515869140625
1759503919161,14261199,5551,27,-0.74658203125,-0.11407470703125,-0.72076416015625
1759503919161,14261199,5551,28,-0.75390625,-0.10821533203125,-0.71466064453125
1759503919161,14261199,5551,29,-0.7353515625,-0.09381103515625,-0.72662353515625
1759503919161,14261199,5551,30,-0.707275390625,-0.08551025390625,-0.77642822265625
1759503919161,14261199,5551,31,-0.700439453125,-0.08917236328125,-0.76690673828125
1759503921697,14263760,5552,0,-0.69921875,-0.09552001953125,-0.76739501953125
1759503921697,14263760,5552,1,-0.6982421875,-0.09967041015625,-0.76690673828125
1759503921697,14263760,5552,2,-0.708984375,-0.09283447265625,-0.75860595703125
1759503921697,14263760,5552,3,-0.716064453125,-0.08599853515625,-0.75811767578125
1759503921697,14263760,5552,4,-0.719482421875,-0.08843994140625,-0.75469970703125
1759503921697,14263760,5552,5,-0.72119140625,-0.09161376953125,-0.75225830078125
1759503921697,14263760,5552,6,-0.721923828125,-0.09112548828125,-0.75274658203125
1759503921697,14263760,5552,7,-0.740234375,-0.09405517578125,-0.72808837890625
1759503921697,14263760,5552,8,-0.74267578125,-0.09722900390625,-0.72369384765625
1759503921697,14263760,5552,9,-0.740234375,-0.10040283203125,-0.72686767578125
1759503921697,14263760,5552,10,-0.740478515625,-0.09796142578125,-0.72711181640625
1759503921697,14263760,5552,11,-0.743896484375,-0.09869384765625,-0.72222900390625
1759503921697,14263760,5552,12,-0.73779296875,-0.10137939453125,-0.72686767578125
1759503921697,14263760,5552,13,-0.7421875,-0.09893798828125,-0.72564697265625
1759503921697,14263760,5552,14,-0.751708984375,-0.10357666015625,-0.71246337890625
1759503921697,14263760,5552,15,-0.752197265625,-0.09942626953125,-0.72125244140625
1759503921697,14263760,5552,16,-0.755615234375,-0.10308837890625,-0.71539306640625
1759503921697,14263760,5552,17,-0.757080078125,-0.10650634765625,-0.71368408203125
1759503921697,14263760,5552,18,-0.755859375,-0.10284423828125,-0.71563720703125
1759503921697,14263760,5552,19,-0.755615234375,-0.10504150390625,-0.71734619140625
1759503926760,14268882,5554,2,-0.75048828125,-0.10455322265625,-0.72125244140625
1759503926760,14268882,5554,3,-0.751708984375,-0.10504150390625,-0.71978759765625
1759503926760,14268882,5554,4,-0.77001953125,-0.10943603515625,-0.69830322265625
1759503926760,14268882,5554,5,-0.767333984375,-0.11456298828125,-0.69488525390625
1759503926760,14268882,5554,6,-0.771484375,-0.11285400390625,-0.69879150390625
1759503926760,14268882,5554,7,-0.770751953125,-0.11920166015625,-0.68853759765625
1759503926760,14268882,5554,8,-0.759765625,-0.10552978515625,-0.71417236328125
1759503926760,14268882,5554,9,-0.741943359375,-0.10406494140625,-0.72906494140625
1759503926760,14268882,5554,10,-0.75341796875,-0.10015869140625,-0.71221923828125
1759503926760,14268882,5554,11,-0.74853515625,-0.11285400390625,-0.72637939453125
1759503926760,14268882,5554,12,-0.740966796875,-0.10870361328125,-0.73004150390625
1759503926760,14268882,5554,13,-0.738525390625,-0.11016845703125,-0.72344970703125
1759503926760,14268882,5554,14,-0.739501953125,-0.11676025390625,-0.72686767578125
1759503926760,14268882,5554,15,-0.742919921875,-0.11334228515625,-0.72393798828125
1759503926760,14268882,5554,16,-0.741455078125,-0.11578369140625,-0.72052001953125
1759503926760,14268882,5554,17,-0.744384765625,-0.10870361328125,-0.72027587890625
1759503926760,14268882,5554,18,-0.742919921875,-0.10919189453125,-0.72442626953125
1759503926760,14268882,5554,19,-0.732666015625,-0.11285400390625,-0.73077392578125
1759503926760,14268882,5554,20,-0.73583984375,-0.11407470703125,-0.74127197265625
1759503926760,14268882,5554,21,-0.746337890625,-0.10845947265625,-0.71710205078125
1759503926760,14268882,5554,22,-0.752197265625,-0.10845947265625,-0.71148681640625
1759503926760,14268882,5554,23,-0.7587890625,-0.11041259765625,-0.71514892578125
1759503926760,14268882,5554,24,-0.759033203125,-0.10870361328125,-0.70977783203125
1759503926760,14268882,5554,25,-0.7587890625,-0.10577392578125,-0.71246337890625
1759503926760,14268882,5554,26,-0.758544921875,-0.11138916015625,-0.71270751953125
1759503926760,14268882,5554,27,-0.7587890625,-0.10845947265625,-0.71026611328125
1759503926760,14268882,5554,28,-0.760986328125,-0.10845947265625,-0.70855712890625
1759503926760,14268882,5554,29,-0.76171875,-0.10894775390625,-0.71002197265625
1759503926760,14268882,5554,30,-0.76611328125,-0.11505126953125,-0.69879150390625
1759503926760,14268882,5554,31,-0.769287109375,-0.11578369140625,-0.70562744140625
1759503929299,14271444,5555,0,-0.765869140625,-0.11431884765625,-0.70098876953125
1759503929299,14271444,5555,1,-0.7646484375,-0.11334228515625,-0.70440673828125
1759503929299,14271444,5555,2,-0.76513671875,-0.11260986328125,-0.70294189453125
1759503929299,14271444,5555,3,-0.764404296875,-0.11456298828125,-0.71051025390625
1759503929299,14271444,5555,4,-0.766845703125,-0.11773681640625,-0.69561767578125
1759503929299,14271444,5555,5,-0.76806640625,-0.11138916015625,-0.69927978515625
1759503929299,14271444,5555,6,-0.772216796875,-0.12066650390625,-0.68756103515625
1759503929299,14271444,5555,7,-0.771728515625,-0.11773681640625,-0.69512939453125
1759503929299,14271444,5555,8,-0.767578125,-0.11846923828125,-0.70123291015625
1759503929299,14271444,5555,9,-0.77197265625,-0.11749267578125,-0.69805908203125
1759503929299,14271444,5555,10,-0.77294921875,-0.11822509765625,-0.69049072265625
1759503929299,14271444,5555,11,-0.771240234375,-0.11749267578125,-0.69464111328125
1759503929299,14271444,5555,12,-0.76953125,-0.11822509765625,-0.69439697265625
1759503929299,14271444,5555,13,-0.76904296875,-0.11676025390625,-0.69903564453125
1759503929299,14271444,5555,14,-0.773193359375,-0.11700439453125,-0.69512939453125
1759503929299,14271444,5555,15,-0.771240234375,-0.12115478515625,-0.69610595703125
1759503929299,14271444,5555,16,-0.770751953125,-0.12115478515625,-0.68951416015625
1759503929299,14271444,5555,17,-0.766357421875,-0.12164306640625,-0.70123291015625
1759503929299,14271444,5555,18,-0.7685546875,-0.12115478515625,-0.70025634765625
1759503929299,14271444,5555,19,-0.76318359375,-0.11871337890625,-0.70001220703125
1759503929299,14271444,5555,20,-0.762451171875,-0.11822509765625,-0.70635986328125
1759503929299,14271444,5555,21,-0.76953125,-0.11846923828125,-0.70123291015625
1759503929299,14271444,5555,22,-0.76904296875,-0.11895751953125,-0.69659423828125
1759503929299,14271444,5555,23,-0.7734375,-0.12115478515625,-0.69488525390625
1759503929299,14271444,5555,24,-0.768310546875,-0.11798095703125,-0.69732666015625
1759503929299,14271444,5555,25,-0.7666015625,-0.11895751953125,-0.69635009765625
1759503929299,14271444,5555,26,-0.765869140625,-0.11920166015625,-0.69927978515625
1759503929299,14271444,5555,27,-0.765380859375,-0.12115478515625,-0.70806884765625
1759503929299,14271444,5555,28,-0.7666015625,-0.11773681640625,-0.70440673828125
1759503929299,14271444,5555,29,-0.77099609375,-0.12091064453125,-0.69586181640625
1759503929299,14271444,5555,30,-0.76513671875,-0.12017822265625,-0.69390869140625
1759503929299,14271444,5555,31,-0.77294921875,-0.11846923828125,-0.69488525390625
1759503931836,14274005,5556,0,-0.7724609375,-0.11944580078125,-0.69635009765625
1759503931836,14274005,5556,1,-0.769287109375,-0.12359619140625,-0.69390869140625
1759503931836,14274005,5556,2,-0.778564453125,-0.10943603515625,-0.70465087890625
1759503931836,14274005,5556,3,-0.779541015625,-0.12115478515625,-0.67608642578125
1759503931836,14274005,5556,4,-0.776611328125,-0.11602783203125,-0.68829345703125
1759503931836,14274005,5556,5,-0.775634765625,-0.12017822265625,-0.69512939453125
1759503931836,14274005,5556,6,-0.77978515625,-0.12042236328125,-0.67608642578125
1759503931836,14274005,5556,7,-0.787841796875,-0.12872314453125,-0.68048095703125
1759503931836,14274005,5556,8,-0.7783203125,-0.12335205078125,-0.68316650390625
1759503931836,14274005,5556,9,-0.776611328125,-0.12603759765625,-0.68731689453125
1759503931836,14274005,5556,10,-0.7763671875,-0.12261962890625,-0.69342041015625
1759503931836,14274005,5556,11,-0.783935546875,-0.12774658203125,-0.68096923828125
1759503931836,14274005,5556,12,-0.788330078125,-0.12384033203125,-0.68194580078125
1759503931836,14274005,5556,13,-0.7861328125,-0.12188720703125,-0.68707275390625
1759503931836,14274005,5556,14,-0.78759765625,-0.12701416015625,-0.67022705078125
1759503931836,14274005,5556,15,-0.7900390625,-0.12774658203125,-0.67462158203125
1759503931836,14274005,5556,16,-0.789794921875,-0.13360595703125,-0.67242431640625
1759503931836,14274005,5556,17,-0.79150390625,-0.13385009765625,-0.66485595703125
1759503931836,14274005,5556,18,-0.78662109375,-0.13140869140625,-0.67535400390625
1759503931836,14274005,5556,19,-0.77880859375,-0.12384033203125,-0.67779541015625
1759503931836,14274005,5556,20,-0.782958984375,-0.11236572265625,-0.68878173828125
1759503931836,14274005,5556,21,-0.7587890625,-0.09893798828125,-0.72174072265625
1759503931836,14274005,5556,22,-0.760986328125,-0.10479736328125,-0.70880126953125
1759503931836,14274005,5556,23,-0.768310546875,-0.11212158203125,-0.69732666015625
1759503931836,14274005,5556,24,-0.76611328125,-0.11236572265625,-0.69683837890625
1759503931836,14274005,5556,25,-0.768310546875,-0.11334228515625,-0.70294189453125
1759503931836,14274005,5556,26,-0.767578125,-0.11700439453125,-0.69366455078125
1759503931836,14274005,5556,27,-0.771484375,-0.11480712890625,-0.69781494140625
1759503931836,14274005,5556,28,-0.7685546875,-0.11895751953125,-0.69439697265625
1759503931836,14274005,5556,29,-0.773193359375,-0.11944580078125,-0.69488525390625
1759503931836,14274005,5556,30,-0.77099609375,-0.11798095703125,-0.69415283203125
1759503931836,14274005,5556,31,-0.768798828125,-0.11505126953125,-0.69732666015625
1759503934762,14276566,5557,0,-0.77001953125,-0.11749267578125,-0.69415283203125
1759503934762,14276566,5557,1,-0.771240234375,-0.11993408203125,-0.69244384765625
1759503934762,14276566,5557,2,-0.769775390625,-0.11846923828125,-0.69464111328125
1759503934762,14276566,5557,3,-0.768798828125,-0.11773681640625,-0.69537353515625
1759503934762,14276566,5557,4,-0.771240234375,-0.11602783203125,-0.69854736328125
1759503934762,14276566,5557,5,-0.768310546875,-0.11798095703125,-0.70513916015625
1759503934762,14276566,5557,6,-0.76953125,-0.11529541015625,-0.69952392578125
1759503934762,14276566,5557,7,-0.769287109375,-0.11651611328125,-0.70123291015625
1759503934762,14276566,5557,8,-0.768798828125,-0.11846923828125,-0.69586181640625
1759503934762,14276566,5557,9,-0.77099609375,-0.11920166015625,-0.69464111328125
1759503934762,14276566,5557,10,-0.7705078125,-0.11920166015625,-0.69708251953125
1759503934762,14276566,5557,11,-0.77099609375,-0.11553955078125,-0.69659423828125
1759503934762,14276566,5557,12,-0.77099609375,-0.11968994140625,-0.69561767578125
1759503934762,14276566,5557,13,-0.770751953125,-0.11700439453125,-0.69464111328125
1759503934762,14276566,5557,14,-0.7724609375,-0.11749267578125,-0.69342041015625
1759503934762,14276566,5557,15,-0.773681640625,-0.11968994140625,-0.69268798828125
1759503934762,14276566,5557,16,-0.77685546875,-0.11822509765625,-0.69488525390625
1759503934762,14276566,5557,17,-0.772705078125,-0.11944580078125,-0.69293212890625
1759503934762,14276566,5557,18,-0.7724609375,-0.12164306640625,-0.69219970703125
1759503934762,14276566,5557,19,-0.775146484375,-0.12335205078125,-0.69049072265625
1759503934762,14276566,5557,20,-0.770263671875,-0.11212158203125,-0.68341064453125
1759503934762,14276566,5557,21,-0.72216796875,-0.11724853515625,-0.76788330078125
1759503934762,14276566,5557,22,-0.747314453125,-0.11724853515625,-0.71221923828125
1759503934762,14276566,5557,23,-0.759521484375,-0.12310791015625,-0.71539306640625
1759503934762,14276566,5557,24,-0.753173828125,-0.11407470703125,-0.71539306640625
1759503934762,14276566,5557,25,-0.7431640625,-0.11700439453125,-0.72930908203125
1759503934762,14276566,5557,26,-0.7529296875,-0.11944580078125,-0.71881103515625
1759503934762,14276566,5557,27,-0.760986328125,-0.11968994140625,-0.71148681640625
1759503934762,14276566,5557,28,-0.760498046875,-0.11871337890625,-0.70684814453125
1759503934762,14276566,5557,29,-0.760986328125,-0.12237548828125,-0.70220947265625
1759503934762,14276566,5557,30,-0.76416015625,-0.12310791015625,-0.70147705078125
1759503934762,14276566,5557,31,-0.760498046875,-0.12384033203125,-0.70343017578125
1759503937100,14279127,5558,0,-0.76171875,-0.12139892578125,-0.70977783203125
1759503937100,14279127,5558,1,-0.75634765625,-0.12066650390625,-0.71246337890625
1759503937100,14279127,5558,2,-0.759521484375,-0.11602783203125,-0.71173095703125
1759503937100,14279127,5558,3,-0.756591796875,-0.12384033203125,-0.71539306640625
1759503937100,14279127,5558,4,-0.749267578125,-0.12237548828125,-0.70562744140625
1759503937100,14279127,5558,5,-0.764404296875,-0.12432861328125,-0.70050048828125
1759503937100,14279127,5558,6,-0.7646484375,-0.12481689453125,-0.69537353515625
1759503937100,14279127,5558,7,-0.763916015625,-0.12310791015625,-0.70782470703125
1759503937100,14279127,5558,8,-0.75244140625,-0.11822509765625,-0.71197509765625
1759503937100,14279127,5558,9,-0.75244140625,-0.11993408203125,-0.71636962890625
1759503937100,14279127,5558,10,-0.761962890625,-0.11822509765625,-0.70758056640625
1759503937100,14279127,5558,11,-0.769775390625,-0.11968994140625,-0.69708251953125
1759503937100,14279127,5558,12,-0.7646484375,-0.11895751953125,-0.69952392578125
1759503937100,14279127,5558,13,-0.771484375,-0.11920166015625,-0.70367431640625
1759503937100,14279127,5558,14,-0.782958984375,-0.12554931640625,-0.67022705078125
1759503937100,14279127,5558,15,-0.778564453125,-0.11822509765625,-0.69635009765625
1759503937100,14279127,5558,16,-0.7783203125,-0.12481689453125,-0.68536376953125
1759503937100,14279127,5558,17,-0.78759765625,-0.12725830078125,-0.67437744140625
1759503937100,14279127,5558,18,-0.7900390625,-0.12969970703125,-0.67486572265625
1759503937100,14279127,5558,19,-0.790771484375,-0.12799072265625,-0.67510986328125
1759503937100,14279127,5558,20,-0.7919921875,-0.12652587890625,-0.67218017578125
1759503937100,14279127,5558,21,-0.789306640625,-0.12945556640625,-0.67388916015625
1759503937100,14279127,5558,22,-0.79150390625,-0.12628173828125,-0.67681884765625
1759503937100,14279127,5558,23,-0.789794921875,-0.12774658203125,-0.67193603515625
1759503937100,14279127,5558,24,-0.79345703125,-0.12652587890625,-0.66925048828125
1759503937100,14279127,5558,25,-0.795654296875,-0.13140869140625,-0.67462158203125
1759503937100,14279127,5558,26,-0.793212890625,-0.12652587890625,-0.66607666015625
1759503937100,14279127,5558,27,-0.7958984375,-0.12750244140625,-0.66119384765625
1759503937100,14279127,5558,28,-0.78466796875,-0.12237548828125,-0.68292236328125
1759503937100,14279127,5558,29,-0.77001953125,-0.12188720703125,-0.69635009765625
1759503937100,14279127,5558,30,-0.76708984375,-0.11944580078125,-0.69488525390625
1759503937100,14279127,5558,31,-0.76611328125,-0.12432861328125,-0.70635986328125
1759503939636,14281688,5559,0,-0.765869140625,-0.11993408203125,-0.70196533203125
1759503939636,14281688,5559,1,-0.76611328125,-0.12066650390625,-0.70367431640625
1759503939636,14281688,5559,2,-0.766845703125,-0.12164306640625,-0.70025634765625
1759503939636,14281688,5559,3,-0.770751953125,-0.12335205078125,-0.69879150390625
1759503939636,14281688,5559,4,-0.775390625,-0.12432861328125,-0.69317626953125
1759503939636,14281688,5559,5,-0.774169921875,-0.12481689453125,-0.68414306640625
1759503939636,14281688,5559,6,-0.774169921875,-0.12701416015625,-0.69219970703125
1759503939636,14281688,5559,7,-0.78076171875,-0.11871337890625,-0.68072509765625
1759503939636,14281688,5559,8,-0.787109375,-0.12799072265625,-0.67852783203125
1759503939636,14281688,5559,9,-0.78369140625,-0.12969970703125,-0.67706298828125
1759503939636,14281688,5559,10,-0.788818359375,-0.12310791015625,-0.68292236328125
1759503939636,14281688,5559,11,-0.807861328125,-0.12896728515625,-0.65533447265625
1759503939636,14281688,5559,12,-0.793212890625,-0.14410400390625,-0.65728759765625
1759503939636,14281688,5559,13,-0.798583984375,-0.14117431640625,-0.66827392578125
1759503939636,14281688,5559,14,-0.8037109375,-0.13214111328125,-0.65582275390625
1759503939636,14281688,5559,15,-0.803466796875,-0.13507080078125,-0.65264892578125
1759503939636,14281688,5559,16,-0.80517578125,-0.13555908203125,-0.65216064453125
1759503939636,14281688,5559,17,-0.806396484375,-0.13433837890625,-0.65167236328125
1759503939636,14281688,5559,18,-0.805419921875,-0.13580322265625,-0.65655517578125
1759503939636,14281688,5559,19,-0.806884765625,-0.13018798828125,-0.65557861328125
1759503939636,14281688,5559,20,-0.8037109375,-0.13458251953125,-0.65338134765625
1759503939636,14281688,5559,21,-0.80712890625,-0.13458251953125,-0.66046142578125
1759503939636,14281688,5559,22,-0.800048828125,-0.11846923828125,-0.65704345703125
1759503939636,14281688,5559,23,-0.786865234375,-0.11602783203125,-0.69000244140625
1759503939636,14281688,5559,24,-0.781005859375,-0.11700439453125,-0.67779541015625
1759503939636,14281688,5559,25,-0.773193359375,-0.12213134765625,-0.67803955078125
1759503939636,14281688,5559,26,-0.798583984375,-0.11846923828125,-0.68365478515625
1759503939636,14281688,5559,27,-0.785400390625,-0.12237548828125,-0.67242431640625
1759503939636,14281688,5559,28,-0.78955078125,-0.12432861328125,-0.67950439453125
1759503939636,14281688,5559,29,-0.788330078125,-0.12506103515625,-0.67706298828125
1759503939636,14281688,5559,30,-0.77978515625,-0.11749267578125,-0.68829345703125
1759503939636,14281688,5559,31,-0.76708984375,-0.10723876953125,-0.70855712890625
