receivedPhoneTimestamp,respeckTimestamp,packetSeqNum,sampleSeqNum,accelX,accelY,accelZ
1759346261590,441626216,13108,9,-0.0166015625,-1.03765869140625,0.08734130859375
1759346261590,441626216,13108,10,-0.01025390625,-1.03448486328125,0.08612060546875
1759346261590,441626216,13108,11,-0.009765625,-1.03570556640625,0.08099365234375
1759346261590,441626216,13108,12,-0.02099609375,-1.04132080078125,0.08050537109375
1759346261590,441626216,13108,13,-0.010986328125,-1.03692626953125,0.08050537109375
1759346261590,441626216,13108,14,-0.01318359375,-1.03497314453125,0.06732177734375
1759346261590,441626216,13108,15,-0.037353515625,-1.06060791015625,0.07122802734375
1759346261590,441626216,13108,16,0.005126953125,-1.03131103515625,0.07464599609375
1759346261590,441626216,13108,17,-0.003662109375,-1.03887939453125,0.06317138671875
1759346261590,441626216,13108,18,0.003662109375,-1.03106689453125,0.03680419921875
1759346261590,441626216,13108,19,0.021484375,-1.02740478515625,0.04022216796875
1759346261590,441626216,13108,20,0.013671875,-1.03009033203125,0.03387451171875
1759346261590,441626216,13108,21,0.040771484375,-1.04595947265625,0.02459716796875
1759346261590,441626216,13108,22,0.030517578125,-1.03570556640625,0.02093505859375
1759346261590,441626216,13108,23,0.043212890625,-1.05279541015625,0.01116943359375
1759346261590,441626216,13108,24,0.0341796875,-1.03814697265625,0.00799560546875
1759346261590,441626216,13108,25,0.034912109375,-1.03472900390625,-0.00640869140625
1759346261590,441626216,13108,26,0.023193359375,-1.03985595703125,-0.00177001953125
1759346261590,441626216,13108,27,0.025634765625,-1.04498291015625,-0.00201416015625
1759346261590,441626216,13108,28,0.029541015625,-1.03082275390625,-0.00982666015625
1759346261590,441626216,13108,29,0.021240234375,-1.05084228515625,-0.00494384765625
1759346261590,441626216,13108,30,0.005859375,-1.06109619140625,-0.00299072265625
1759346261590,441626216,13108,31,0.030517578125,-1.03570556640625,-0.00958251953125
1759346264107,441628808,13109,0,0.033447265625,-1.04180908203125,-0.00958251953125
1759346264107,441628808,13109,1,0.02197265625,-1.03765869140625,-0.00054931640625
1759346264107,441628808,13109,2,0.026123046875,-1.04351806640625,0.00433349609375
1759346264107,441628808,13109,3,0.025634765625,-1.04376220703125,0.00360107421875
1759346264107,441628808,13109,4,0.0283203125,-1.04180908203125,0.01190185546875
1759346264107,441628808,13109,5,0.022216796875,-1.04986572265625,0.00360107421875
1759346264107,441628808,13109,6,0.0302734375,-1.04229736328125,0.00726318359375
1759346264107,441628808,13109,7,0.021728515625,-1.04473876953125,0.00872802734375
1759346264107,441628808,13109,8,0.01611328125,-1.04693603515625,0.01776123046875
1759346264107,441628808,13109,9,0.01123046875,-1.03961181640625,0.01971435546875
1759346264107,441628808,13109,10,0.025390625,-1.04864501953125,0.01336669921875
1759346264107,441628808,13109,11,0.028564453125,-1.04791259765625,0.01336669921875
1759346264107,441628808,13109,12,0.075439453125,-1.05645751953125,0.01385498046875
1759346264107,441628808,13109,13,0.091796875,-1.03033447265625,0.01141357421875
1759346264107,441628808,13109,14,0.107666015625,-1.03106689453125,0.00604248046875
1759346264107,441628808,13109,15,0.097412109375,-1.02325439453125,0.02044677734375
1759346264107,441628808,13109,16,0.07275390625,-1.02764892578125,0.02630615234375
1759346264107,441628808,13109,17,0.049072265625,-1.04913330078125,0.02166748046875
1759346264107,441628808,13109,18,0.021728515625,-1.04669189453125,0.03167724609375
1759346264107,441628808,13109,19,0.013427734375,-1.04498291015625,0.02435302734375
1759346264107,441628808,13109,20,0.017333984375,-1.04522705078125,0.03533935546875
1759346264107,441628808,13109,21,0.033203125,-1.04376220703125,0.03094482421875
1759346264107,441628808,13109,22,0.06884765625,-1.03375244140625,0.03387451171875
1759346264107,441628808,13109,23,0.069091796875,-1.04058837890625,0.03729248046875
1759346264107,441628808,13109,24,0.05224609375,-1.04766845703125,0.04583740234375
1759346264107,441628808,13109,25,0.069580078125,-1.04205322265625,0.04022216796875
1759346264107,441628808,13109,26,0.06494140625,-1.01495361328125,0.04901123046875
1759346264107,441628808,13109,27,0.041015625,-1.03961181640625,0.06683349609375
1759346264107,441628808,13109,28,0.05517578125,-1.03277587890625,0.03778076171875
1759346264107,441628808,13109,29,0.04296875,-1.04083251953125,0.04608154296875
1759346264107,441628808,13109,30,0.043212890625,-1.04302978515625,0.04364013671875
1759346264107,441628808,13109,31,0.032958984375,-1.04278564453125,0.04095458984375
1759346266809,441631399,13110,0,0.02783203125,-1.04498291015625,0.03997802734375
1759346266809,441631399,13110,1,0.041259765625,-1.03594970703125,0.04241943359375
1759346266809,441631399,13110,2,0.017578125,-1.03717041015625,0.06561279296875
1759346266809,441631399,13110,3,0.033935546875,-1.03546142578125,0.05316162109375
1759346266809,441631399,13110,4,0.018798828125,-1.04351806640625,0.04681396484375
1759346266809,441631399,13110,5,0.011474609375,-1.05572509765625,0.05706787109375
1759346266809,441631399,13110,6,0.021728515625,-1.03643798828125,0.04461669921875
1759346266809,441631399,13110,7,0.021484375,-1.03985595703125,0.03143310546875
1759346266809,441631399,13110,8,0.02734375,-1.02276611328125,0.02850341796875
1759346266809,441631399,13110,9,0.00927734375,-1.05328369140625,0.03948974609375
1759346266809,441631399,13110,10,0.00244140625,-1.03643798828125,0.02703857421875
1759346266809,441631399,13110,11,0.001708984375,-1.04425048828125,0.03533935546875
1759346266809,441631399,13110,12,-0.010009765625,-1.04815673828125,0.04754638671875
1759346266809,441631399,13110,13,-0.004150390625,-1.05792236328125,0.06121826171875
1759346266809,441631399,13110,14,-0.022705078125,-1.04302978515625,0.06732177734375
1759346266809,441631399,13110,15,-0.028076171875,-1.03448486328125,0.05755615234375
1759346266809,441631399,13110,16,-0.02392578125,-1.02325439453125,0.04290771484375
1759346266809,441631399,13110,17,-0.013916015625,-1.02716064453125,0.01873779296875
1759346266809,441631399,13110,18,-0.01416015625,-1.03228759765625,0.00970458984375
1759346266809,441631399,13110,19,0.005859375,-1.06939697265625,0.00164794921875
1759346266809,441631399,13110,20,-0.020751953125,-1.04547119140625,0.00238037109375
1759346266809,441631399,13110,21,-0.0126953125,-1.05206298828125,-0.00152587890625
1759346266809,441631399,13110,22,-0.012939453125,-1.04229736328125,0.00726318359375
1759346266809,441631399,13110,23,-0.018798828125,-1.04180908203125,0.00408935546875
1759346266809,441631399,13110,24,-0.004150390625,-1.04034423828125,0.00726318359375
1759346266809,441631399,13110,25,-0.014404296875,-1.03521728515625,0.01580810546875
1759346266809,441631399,13110,26,0.003173828125,-1.06109619140625,0.02313232421875
1759346266809,441631399,13110,27,-0.000732421875,-1.04058837890625,0.01434326171875
1759346266809,441631399,13110,28,-0.00048828125,-1.04986572265625,0.01385498046875
1759346266809,441631399,13110,29,-0.00048828125,-1.04888916015625,0.02288818359375
1759346266809,441631399,13110,30,-0.0126953125,-1.03863525390625,0.02484130859375
1759346266809,441631399,13110,31,-0.004638671875,-1.04058837890625,0.03216552734375
1759346269330,441633990,13111,0,-0.00244140625,-1.03839111328125,0.03485107421875
1759346269330,441633990,13111,1,-0.01806640625,-1.04058837890625,0.04486083984375
1759346269330,441633990,13111,2,-0.0244140625,-1.04962158203125,0.05413818359375
1759346269330,441633990,13111,3,-0.024169921875,-1.04351806640625,0.04925537109375
1759346269330,441633990,13111,4,-0.015380859375,-1.04058837890625,0.04388427734375
1759346269330,441633990,13111,5,-0.025634765625,-1.04644775390625,0.05267333984375
1759346269330,441633990,13111,6,-0.02294921875,-1.03961181640625,0.05609130859375
1759346269330,441633990,13111,7,-0.0234375,-1.04522705078125,0.05120849609375
1759346269330,441633990,13111,8,-0.010986328125,-1.03472900390625,0.04266357421875
1759346269330,441633990,13111,9,-0.02001953125,-1.04156494140625,0.05413818359375
1759346269330,441633990,13111,10,-0.013671875,-1.02984619140625,0.05877685546875
1759346269330,441633990,13111,11,-0.0341796875,-1.05035400390625,0.06707763671875
1759346269330,441633990,13111,12,-0.023681640625,-1.03277587890625,0.08148193359375
1759346269330,441633990,13111,13,-0.029541015625,-1.04547119140625,0.08319091796875
1759346269330,441633990,13111,14,-0.029296875,-1.04010009765625,0.09173583984375
1759346269330,441633990,13111,15,-0.03466796875,-1.04864501953125,0.08758544921875
1759346269330,441633990,13111,16,-0.02197265625,-1.01739501953125,0.05096435546875
1759346269330,441633990,13111,17,-0.024658203125,-1.04595947265625,0.05145263671875
1759346269330,441633990,13111,18,-0.01171875,-1.03765869140625,0.04876708984375
1759346269330,441633990,13111,19,-0.009033203125,-1.04937744140625,0.04095458984375
1759346269330,441633990,13111,20,-0.01806640625,-1.04132080078125,0.04925537109375
1759346269330,441633990,13111,21,-0.014892578125,-1.03814697265625,0.03729248046875
1759346269330,441633990,13111,22,-0.009521484375,-1.04473876953125,0.03948974609375
1759346269330,441633990,13111,23,-0.0185546875,-1.05303955078125,0.04803466796875
1759346269330,441633990,13111,24,-0.013671875,-1.04376220703125,0.03363037109375
1759346269330,441633990,13111,25,0.001953125,-1.03350830078125,0.02606201171875
1759346269330,441633990,13111,26,-0.00341796875,-1.02838134765625,0.02264404296875
1759346269330,441633990,13111,27,-0.009521484375,-1.04425048828125,0.03924560546875
1759346269330,441633990,13111,28,-0.001220703125,-1.04766845703125,0.03143310546875
1759346269330,441633990,13111,29,-0.002685546875,-1.04522705078125,0.03240966796875
1759346269330,441633990,13111,30,-0.000244140625,-1.03863525390625,0.02581787109375
1759346269330,441633990,13111,31,0.0,-1.03985595703125,0.03411865234375
1759346271850,441636581,13112,0,0.002197265625,-1.03985595703125,0.04608154296875
1759346271850,441636581,13112,1,0.01318359375,-1.04034423828125,0.02630615234375
1759346271850,441636581,13112,2,-0.01123046875,-1.05084228515625,0.03143310546875
1759346271850,441636581,13112,3,0.005615234375,-1.04010009765625,0.03509521484375
1759346271850,441636581,13112,4,0.003173828125,-1.03765869140625,0.02947998046875
1759346271850,441636581,13112,5,-0.0009765625,-1.04449462890625,0.03875732421875
1759346271850,441636581,13112,6,-0.0166015625,-1.04913330078125,0.04876708984375
1759346271850,441636581,13112,7,-0.005126953125,-1.04180908203125,0.04901123046875
1759346271850,441636581,13112,8,0.00048828125,-1.04034423828125,0.02191162109375
1759346271850,441636581,13112,9,-0.002685546875,-1.04083251953125,0.03167724609375
1759346271850,441636581,13112,10,-0.0185546875,-1.04547119140625,0.03387451171875
1759346271850,441636581,13112,11,-0.001953125,-1.03863525390625,0.03216552734375
1759346271850,441636581,13112,12,-0.002197265625,-1.04327392578125,0.02557373046875
1759346271850,441636581,13112,13,-0.01318359375,-1.04327392578125,0.03558349609375
1759346271850,441636581,13112,14,-0.00634765625,-1.04376220703125,0.03216552734375
1759346271850,441636581,13112,15,0.0,-1.03741455078125,0.03997802734375
1759346271850,441636581,13112,16,-0.013671875,-1.04156494140625,0.04193115234375
1759346271850,441636581,13112,17,-0.013916015625,-1.04718017578125,0.05657958984375
1759346271850,441636581,13112,18,-0.01611328125,-1.04400634765625,0.04461669921875
1759346271850,441636581,13112,19,-0.010498046875,-1.04132080078125,0.05999755859375
1759346271850,441636581,13112,20,-0.027099609375,-1.03497314453125,0.05999755859375
1759346271850,441636581,13112,21,-0.018310546875,-1.04498291015625,0.05731201171875
1759346271850,441636581,13112,22,-0.00634765625,-1.03570556640625,0.05291748046875
1759346271850,441636581,13112,23,-0.012451171875,-1.04376220703125,0.05120849609375
1759346271850,441636581,13112,24,-0.017822265625,-1.03887939453125,0.05389404296875
1759346271850,441636581,13112,25,-0.00048828125,-1.04864501953125,0.05194091796875
1759346271850,441636581,13112,26,-0.004638671875,-1.03912353515625,0.04119873046875
1759346271850,441636581,13112,27,-0.002197265625,-1.04522705078125,0.04925537109375
1759346271850,441636581,13112,28,-0.010986328125,-1.03717041015625,0.05340576171875
1759346271850,441636581,13112,29,-0.00732421875,-1.03692626953125,0.05364990234375
1759346271850,441636581,13112,30,-0.015869140625,-1.03741455078125,0.05804443359375
1759346271850,441636581,13112,31,-0.000244140625,-1.04840087890625,0.05706787109375
1759346274550,441639172,13113,0,-0.011474609375,-1.04400634765625,0.05926513671875
1759346274550,441639172,13113,1,-0.010009765625,-1.04107666015625,0.06341552734375
1759346274550,441639172,13113,2,-0.0146484375,-1.04254150390625,0.06488037109375
1759346274550,441639172,13113,3,-0.015380859375,-1.03204345703125,0.07244873046875
1759346274550,441639172,13113,4,-0.013671875,-1.03912353515625,0.07391357421875
1759346274550,441639172,13113,5,-0.0078125,-1.03302001953125,0.06927490234375
1759346274550,441639172,13113,6,-0.004638671875,-1.03448486328125,0.07049560546875
1759346274550,441639172,13113,7,-0.001708984375,-1.03887939453125,0.07025146484375
1759346274550,441639172,13113,8,-0.00634765625,-1.04351806640625,0.07220458984375
1759346274550,441639172,13113,9,-0.00341796875,-1.04449462890625,0.07684326171875
1759346274550,441639172,13113,10,-0.002197265625,-1.04107666015625,0.07537841796875
1759346274550,441639172,13113,11,-0.011474609375,-1.03448486328125,0.08489990234375
1759346274550,441639172,13113,12,-0.008056640625,-1.03668212890625,0.08612060546875
1759346274550,441639172,13113,13,-0.001220703125,-1.03253173828125,0.08050537109375
1759346274550,441639172,13113,14,-0.000244140625,-1.03936767578125,0.07244873046875
1759346274550,441639172,13113,15,-0.001708984375,-1.03717041015625,0.06854248046875
1759346274550,441639172,13113,16,-0.001953125,-1.04229736328125,0.06781005859375
1759346274550,441639172,13113,17,-0.005615234375,-1.04254150390625,0.07952880859375
1759346274550,441639172,13113,18,-0.004638671875,-1.05767822265625,0.08050537109375
1759346274550,441639172,13113,19,-0.00830078125,-1.04669189453125,0.10809326171875
1759346274550,441639172,13113,20,-0.026611328125,-1.01715087890625,0.04901123046875
1759346274550,441639172,13113,21,-0.014404296875,-1.04791259765625,0.04022216796875
1759346274550,441639172,13113,22,0.0087890625,-1.01959228515625,0.02972412109375
1759346274550,441639172,13113,23,-0.00390625,-1.04498291015625,0.01971435546875
1759346274550,441639172,13113,24,0.004150390625,-1.03594970703125,0.01190185546875
1759346274550,441639172,13113,25,0.003662109375,-1.05694580078125,0.01702880859375
1759346274550,441639172,13113,26,-0.005859375,-1.04864501953125,0.00335693359375
1759346274550,441639172,13113,27,0.030517578125,-1.03668212890625,0.01385498046875
1759346274550,441639172,13113,28,-0.002685546875,-1.04425048828125,0.01141357421875
1759346274550,441639172,13113,29,0.007080078125,-1.04522705078125,0.01434326171875
1759346274550,441639172,13113,30,0.002685546875,-1.03936767578125,0.01361083984375
1759346274550,441639172,13113,31,0.0009765625,-1.05133056640625,0.01556396484375
1759346277069,441641763,13114,0,0.01953125,-1.04058837890625,0.01776123046875
1759346277069,441641763,13114,1,-0.000244140625,-1.04547119140625,0.02191162109375
1759346277069,441641763,13114,2,-0.001953125,-1.04718017578125,0.02996826171875
1759346277069,441641763,13114,3,0.007080078125,-1.05670166015625,0.03558349609375
1759346277069,441641763,13114,4,-0.010009765625,-1.03814697265625,-0.00030517578125
1759346277069,441641763,13114,5,0.011962890625,-1.03472900390625,-0.00885009765625
1759346277069,441641763,13114,6,0.02197265625,-1.01739501953125,-0.01910400390625
1759346277069,441641763,13114,7,0.03271484375,-1.05792236328125,-0.01226806640625
1759346277069,441641763,13114,8,-0.00634765625,-1.05377197265625,-0.02398681640625
1759346277069,441641763,13114,9,0.020751953125,-1.03741455078125,-0.01568603515625
1759346277069,441641763,13114,10,0.021484375,-1.04620361328125,-0.01446533203125
1759346277069,441641763,13114,11,0.019775390625,-1.04742431640625,-0.01641845703125
1759346277069,441641763,13114,12,0.02587890625,-1.04205322265625,-0.01177978515625
1759346277069,441641763,13114,13,0.03515625,-1.03619384765625,-0.00323486328125
1759346277069,441641763,13114,14,0.015625,-1.04083251953125,-6.103515625e-05
1759346277069,441641763,13114,15,0.0224609375,-1.04937744140625,0.00555419921875
1759346277069,441641763,13114,16,0.021484375,-1.04034423828125,0.00482177734375
1759346277069,441641763,13114,17,0.010009765625,-1.04986572265625,0.00799560546875
1759346277069,441641763,13114,18,0.018310546875,-1.04156494140625,0.01190185546875
1759346277069,441641763,13114,19,0.005615234375,-1.03985595703125,0.00579833984375
1759346277069,441641763,13114,20,-0.001708984375,-1.05181884765625,0.00726318359375
1759346277069,441641763,13114,21,0.01171875,-1.04840087890625,0.00433349609375
1759346277069,441641763,13114,22,0.01708984375,-1.04547119140625,-6.103515625e-05
1759346277069,441641763,13114,23,0.02490234375,-1.03692626953125,0.00091552734375
1759346277069,441641763,13114,24,0.020751953125,-1.03546142578125,0.00701904296875
1759346277069,441641763,13114,25,0.006103515625,-1.04669189453125,0.01336669921875
1759346277069,441641763,13114,26,0.010498046875,-1.04425048828125,0.01556396484375
1759346277069,441641763,13114,27,0.01513671875,-1.04449462890625,0.01483154296875
1759346277069,441641763,13114,28,0.00830078125,-1.04742431640625,0.02313232421875
1759346277069,441641763,13114,29,0.00439453125,-1.04547119140625,0.02606201171875
1759346277069,441641763,13114,30,0.004150390625,-1.04571533203125,0.02679443359375
1759346277069,441641763,13114,31,0.005126953125,-1.03863525390625,0.03607177734375
1759346279773,441644355,13115,0,0.006103515625,-1.04498291015625,0.02899169921875
1759346279773,441644355,13115,1,-0.00048828125,-1.04595947265625,0.02630615234375
1759346279773,441644355,13115,2,0.011474609375,-1.04571533203125,0.03289794921875
1759346279773,441644355,13115,3,0.009033203125,-1.03961181640625,0.02313232421875
1759346279773,441644355,13115,4,0.01318359375,-1.04595947265625,0.02117919921875
1759346279773,441644355,13115,5,0.013916015625,-1.04473876953125,0.02410888671875
1759346279773,441644355,13115,6,0.03857421875,-1.03594970703125,0.02313232421875
1759346279773,441644355,13115,7,0.029296875,-1.03277587890625,0.03338623046875
1759346279773,441644355,13115,8,0.0146484375,-1.04864501953125,0.03167724609375
1759346279773,441644355,13115,9,0.02587890625,-1.03546142578125,0.03582763671875
1759346279773,441644355,13115,10,0.0166015625,-1.04278564453125,0.03851318359375
1759346279773,441644355,13115,11,0.0078125,-1.04449462890625,0.03826904296875
1759346279773,441644355,13115,12,0.022705078125,-1.03643798828125,0.03558349609375
1759346279773,441644355,13115,13,0.008056640625,-1.03912353515625,0.03582763671875
1759346279773,441644355,13115,14,0.01904296875,-1.04791259765625,0.03875732421875
1759346279773,441644355,13115,15,0.01708984375,-1.04522705078125,0.03656005859375
1759346279773,441644355,13115,16,0.017822265625,-1.05255126953125,0.03558349609375
1759346279773,441644355,13115,17,0.011474609375,-1.02471923828125,0.02972412109375
1759346279773,441644355,13115,18,0.004150390625,-1.03546142578125,0.02899169921875
1759346279773,441644355,13115,19,-0.002197265625,-1.04840087890625,0.04217529296875
1759346279773,441644355,13115,20,0.019287109375,-1.04620361328125,0.03436279296875
1759346279773,441644355,13115,21,0.0185546875,-1.05157470703125,0.03656005859375
1759346279773,441644355,13115,22,0.010009765625,-1.03814697265625,0.04583740234375
1759346279773,441644355,13115,23,0.0048828125,-1.03302001953125,0.04461669921875
1759346279773,441644355,13115,24,-0.0068359375,-1.02593994140625,0.04901123046875
1759346279773,441644355,13115,25,-0.027587890625,-1.04864501953125,0.05853271484375
1759346279773,441644355,13115,26,-0.018310546875,-1.03985595703125,0.05364990234375
1759346279773,441644355,13115,27,-0.0126953125,-1.04205322265625,0.05657958984375
1759346279773,441644355,13115,28,-0.027099609375,-1.03887939453125,0.06707763671875
1759346279773,441644355,13115,29,-0.01953125,-1.03887939453125,0.07122802734375
1759346279773,441644355,13115,30,-0.017333984375,-1.03912353515625,0.06903076171875
1759346279773,441644355,13115,31,-0.0185546875,-1.04010009765625,0.06951904296875
1759346282289,441646946,13116,0,-0.02197265625,-1.03643798828125,0.07293701171875
1759346282289,441646946,13116,1,-0.01513671875,-1.04449462890625,0.06951904296875
1759346282289,441646946,13116,2,-0.023193359375,-1.03521728515625,0.08123779296875
1759346282289,441646946,13116,3,-0.01513671875,-1.04083251953125,0.07611083984375
1759346282289,441646946,13116,4,-0.021728515625,-1.03302001953125,0.07879638671875
1759346282289,441646946,13116,5,-0.02197265625,-1.04058837890625,0.07928466796875
1759346282289,441646946,13116,6,-0.020751953125,-1.03668212890625,0.08123779296875
1759346282289,441646946,13116,7,-0.01708984375,-1.03472900390625,0.08758544921875
1759346282289,441646946,13116,8,-0.02099609375,-1.04522705078125,0.08685302734375
1759346282289,441646946,13116,9,-0.033203125,-1.03765869140625,0.10443115234375
1759346282289,441646946,13116,10,-0.026123046875,-1.04327392578125,0.11053466796875
1759346282289,441646946,13116,11,-0.04150390625,-1.04864501953125,0.12567138671875
1759346282289,441646946,13116,12,-0.011474609375,-1.02740478515625,0.04315185546875
1759346282289,441646946,13116,13,-0.02685546875,-1.02545166015625,0.04608154296875
1759346282289,441646946,13116,14,-0.0283203125,-1.05230712890625,0.06634521484375
1759346282289,441646946,13116,15,-0.02392578125,-1.03814697265625,0.05804443359375
1759346282289,441646946,13116,16,-0.01904296875,-1.02935791015625,0.04412841796875
1759346282289,441646946,13116,17,-0.022705078125,-1.04205322265625,0.04241943359375
1759346282289,441646946,13116,18,-0.015869140625,-1.04010009765625,0.04119873046875
1759346282289,441646946,13116,19,-0.011962890625,-1.04205322265625,0.03411865234375
1759346282289,441646946,13116,20,-0.015869140625,-1.04107666015625,0.03192138671875
1759346282289,441646946,13116,21,-0.0146484375,-1.03717041015625,0.03778076171875
1759346282289,441646946,13116,22,-0.019287109375,-1.04205322265625,0.04144287109375
1759346282289,441646946,13116,23,-0.026123046875,-1.06085205078125,0.02020263671875
1759346282289,441646946,13116,24,-0.013916015625,-1.02496337890625,0.03485107421875
1759346282289,441646946,13116,25,-0.0234375,-1.04864501953125,0.03387451171875
1759346282289,441646946,13116,26,-0.013671875,-1.04132080078125,0.02557373046875
1759346282289,441646946,13116,27,-0.02490234375,-1.04620361328125,0.03192138671875
1759346282289,441646946,13116,28,-0.011474609375,-1.03546142578125,0.03485107421875
1759346282289,441646946,13116,29,-0.017333984375,-1.03350830078125,0.03314208984375
1759346282289,441646946,13116,30,-0.009765625,-1.05206298828125,0.03314208984375
1759346282289,441646946,13116,31,0.00390625,-1.04205322265625,0.02264404296875
1759346284810,441649537,13117,0,0.0107421875,-1.04107666015625,0.02337646484375
1759346284810,441649537,13117,1,0.010986328125,-1.04254150390625,0.01776123046875
1759346284810,441649537,13117,2,0.012939453125,-1.04327392578125,0.01629638671875
1759346284810,441649537,13117,3,0.015380859375,-1.03887939453125,0.00921630859375
1759346284810,441649537,13117,4,0.01025390625,-1.04058837890625,0.01824951171875
1759346284810,441649537,13117,5,0.001953125,-1.03668212890625,0.03900146484375
1759346284810,441649537,13117,6,-0.0048828125,-1.04571533203125,0.03704833984375
1759346284810,441649537,13117,7,0.003662109375,-1.04595947265625,0.03582763671875
1759346284810,441649537,13117,8,-0.004150390625,-1.04351806640625,0.02923583984375
1759346284810,441649537,13117,9,-0.004150390625,-1.03961181640625,0.03070068359375
1759346284810,441649537,13117,10,-0.001953125,-1.04132080078125,0.03436279296875
1759346284810,441649537,13117,11,0.001953125,-1.04547119140625,0.01727294921875
1759346284810,441649537,13117,12,0.0009765625,-1.04400634765625,0.02484130859375
1759346284810,441649537,13117,13,0.013671875,-1.04571533203125,0.02557373046875
1759346284810,441649537,13117,14,0.027587890625,-1.04083251953125,0.01605224609375
1759346284810,441649537,13117,15,0.017822265625,-1.04034423828125,0.02362060546875
1759346284810,441649537,13117,16,0.01611328125,-1.03814697265625,0.01702880859375
1759346284810,441649537,13117,17,0.024658203125,-1.03741455078125,0.02337646484375
1759346284810,441649537,13117,18,0.00732421875,-1.04815673828125,0.00921630859375
1759346284810,441649537,13117,19,-0.006103515625,-1.05303955078125,0.00799560546875
1759346284810,441649537,13117,20,0.015625,-1.04107666015625,0.01043701171875
1759346284810,441649537,13117,21,0.0078125,-1.04669189453125,0.01336669921875
1759346284810,441649537,13117,22,0.005615234375,-1.03814697265625,0.01116943359375
1759346284810,441649537,13117,23,0.019775390625,-1.03424072265625,0.02459716796875
1759346284810,441649537,13117,24,0.0068359375,-1.04327392578125,0.02508544921875
1759346284810,441649537,13117,25,0.007568359375,-1.04791259765625,0.02728271484375
1759346284810,441649537,13117,26,0.00634765625,-1.04302978515625,0.03143310546875
1759346284810,441649537,13117,27,0.004638671875,-1.04498291015625,0.04022216796875
1759346284810,441649537,13117,28,-0.001708984375,-1.04083251953125,0.03826904296875
1759346284810,441649537,13117,29,0.0078125,-1.04595947265625,0.02435302734375
1759346284810,441649537,13117,30,0.01123046875,-1.04083251953125,0.01483154296875
1759346284810,441649537,13117,31,-0.005859375,-1.04791259765625,0.02069091796875
1759346287509,441652122,13118,0,0.001708984375,-1.04327392578125,0.02239990234375
1759346287509,441652122,13118,1,0.000244140625,-1.04498291015625,0.02069091796875
1759346287509,441652122,13118,2,0.005615234375,-1.04278564453125,0.02679443359375
1759346287509,441652122,13118,3,0.002197265625,-1.04742431640625,0.03778076171875
1759346287509,441652122,13118,4,0.005615234375,-1.04888916015625,0.03753662109375
1759346287509,441652122,13118,5,-0.005859375,-1.03668212890625,0.03411865234375
1759346287509,441652122,13118,6,0.00732421875,-1.04205322265625,0.00872802734375
1759346287509,441652122,13118,7,0.009765625,-1.03839111328125,0.00726318359375
1759346287509,441652122,13118,8,0.008056640625,-1.04742431640625,0.01361083984375
1759346287509,441652122,13118,9,0.013916015625,-1.04547119140625,0.01092529296875
1759346287509,441652122,13118,10,0.005859375,-1.04156494140625,0.02606201171875
1759346287509,441652122,13118,11,0.0068359375,-1.04180908203125,0.02435302734375
1759346287509,441652122,13118,12,0.008544921875,-1.04718017578125,0.02117919921875
1759346287509,441652122,13118,13,0.010986328125,-1.04180908203125,0.02874755859375
1759346287509,441652122,13118,14,0.00146484375,-1.04742431640625,0.02899169921875
1759346287509,441652122,13118,15,0.0087890625,-1.04034423828125,0.02459716796875
1759346287509,441652122,13118,16,0.0009765625,-1.04376220703125,0.03240966796875
1759346287509,441652122,13118,17,0.00927734375,-1.05059814453125,0.02410888671875
1759346287509,441652122,13118,18,0.011962890625,-1.04327392578125,0.02581787109375
1759346287509,441652122,13118,19,0.004150390625,-1.04473876953125,0.03680419921875
1759346287509,441652122,13118,20,0.0029296875,-1.04302978515625,0.03558349609375
1759346287509,441652122,13118,21,0.005859375,-1.04205322265625,0.03265380859375
1759346287509,441652122,13118,22,0.00439453125,-1.04351806640625,0.03802490234375
1759346287509,441652122,13118,23,0.0,-1.03985595703125,0.03558349609375
1759346287509,441652122,13118,24,0.0048828125,-1.04254150390625,0.04388427734375
1759346287509,441652122,13118,25,-0.00048828125,-1.04351806640625,0.04412841796875
1759346287509,441652122,13118,26,0.00390625,-1.04278564453125,0.04559326171875
1759346287509,441652122,13118,27,0.004150390625,-1.04010009765625,0.04510498046875
1759346287509,441652122,13118,28,-0.001953125,-1.03887939453125,0.05047607421875
1759346287509,441652122,13118,29,-0.000732421875,-1.03863525390625,0.05877685546875
1759346287509,441652122,13118,30,0.001953125,-1.04425048828125,0.05413818359375
1759346287509,441652122,13118,31,-0.004638671875,-1.04425048828125,0.04705810546875
1759346290029,441654713,13119,0,-0.001708984375,-1.05206298828125,0.04412841796875
1759346290029,441654713,13119,1,-0.00390625,-1.05084228515625,0.06951904296875
1759346290029,441654713,13119,2,-0.016357421875,-1.02764892578125,0.05072021484375
1759346290029,441654713,13119,3,-0.002685546875,-1.04669189453125,0.03289794921875
1759346290029,441654713,13119,4,0.011474609375,-1.03570556640625,0.01483154296875
1759346290029,441654713,13119,5,0.0078125,-1.03326416015625,0.02606201171875
1759346290029,441654713,13119,6,0.001220703125,-1.03082275390625,0.02557373046875
1759346290029,441654713,13119,7,0.003173828125,-1.04205322265625,0.03070068359375
1759346290029,441654713,13119,8,-0.007568359375,-1.03106689453125,0.03778076171875
1759346290029,441654713,13119,9,0.014892578125,-1.05694580078125,0.02581787109375
1759346290029,441654713,13119,10,-0.006103515625,-1.04229736328125,0.02630615234375
1759346290029,441654713,13119,11,-0.000732421875,-1.04620361328125,0.03411865234375
1759346290029,441654713,13119,12,0.0126953125,-1.04254150390625,0.03216552734375
1759346290029,441654713,13119,13,0.00537109375,-1.03350830078125,0.03509521484375
1759346290029,441654713,13119,14,0.006591796875,-1.04376220703125,0.03387451171875
1759346290029,441654713,13119,15,0.009521484375,-1.03619384765625,0.04046630859375
1759346290029,441654713,13119,16,0.005859375,-1.03985595703125,0.04388427734375
1759346290029,441654713,13119,17,0.013916015625,-1.05108642578125,0.03363037109375
1759346290029,441654713,13119,18,0.0087890625,-1.04010009765625,0.03118896484375
1759346290029,441654713,13119,19,0.01318359375,-1.04888916015625,0.03753662109375
1759346290029,441654713,13119,20,0.0107421875,-1.03106689453125,0.03656005859375
1759346290029,441654713,13119,21,0.005859375,-1.04302978515625,0.03875732421875
1759346290029,441654713,13119,22,0.004638671875,-1.03692626953125,0.04144287109375
1759346290029,441654713,13119,23,0.001220703125,-1.04449462890625,0.04217529296875
1759346290029,441654713,13119,24,-0.00244140625,-1.04473876953125,0.04046630859375
1759346290029,441654713,13119,25,0.00732421875,-1.04302978515625,0.04388427734375
1759346290029,441654713,13119,26,0.0,-1.04107666015625,0.04901123046875
1759346290029,441654713,13119,27,0.0009765625,-1.04473876953125,0.04779052734375
1759346290029,441654713,13119,28,0.002685546875,-1.04058837890625,0.04779052734375
1759346290029,441654713,13119,29,-0.005126953125,-1.04058837890625,0.03973388671875
1759346290029,441654713,13119,30,-0.009033203125,-1.04547119140625,0.04510498046875
1759346290029,441654713,13119,31,-0.005126953125,-1.03887939453125,0.04705810546875
1759346292729,441657304,13120,0,-0.000244140625,-1.03961181640625,0.04827880859375
1759346292729,441657304,13120,1,0.004638671875,-1.04425048828125,0.04705810546875
1759346292729,441657304,13120,2,-0.00390625,-1.04449462890625,0.04754638671875
1759346292729,441657304,13120,3,0.011962890625,-1.03643798828125,0.05047607421875
1759346292729,441657304,13120,4,0.001708984375,-1.04425048828125,0.04315185546875
1759346292729,441657304,13120,5,0.0048828125,-1.04254150390625,0.04071044921875
1759346292729,441657304,13120,6,0.0146484375,-1.04302978515625,0.03729248046875
1759346292729,441657304,13120,7,0.010986328125,-1.04351806640625,0.03656005859375
1759346292729,441657304,13120,8,0.0146484375,-1.04278564453125,0.04193115234375
1759346292729,441657304,13120,9,0.017578125,-1.04083251953125,0.03997802734375
1759346292729,441657304,13120,10,0.011474609375,-1.04351806640625,0.03363037109375
1759346292729,441657304,13120,11,0.02490234375,-1.03839111328125,0.03021240234375
