receivedPhoneTimestamp,respeckTimestamp,packetSeqNum,sampleSeqNum,accelX,accelY,accelZ
1759871574343,967045032,6438,0,-0.149658203125,-1.00640869140625,0.12469482421875
1759871574343,967045032,6438,1,-0.220703125,-1.00811767578125,0.09320068359375
1759871574343,967045032,6438,2,-0.197021484375,-1.02642822265625,0.09222412109375
1759871574343,967045032,6438,3,-0.15380859375,-1.02740478515625,0.09735107421875
1759871574343,967045032,6438,4,-0.176025390625,-1.02178955078125,0.10589599609375
1759871574343,967045032,6438,5,-0.181884765625,-1.02130126953125,0.09344482421875
1759871574343,967045032,6438,6,-0.18115234375,-1.01812744140625,0.11541748046875
1759871574343,967045032,6438,7,-0.19189453125,-1.01177978515625,0.12835693359375
1759871574343,967045032,6438,8,-0.192626953125,-1.01055908203125,0.13714599609375
1759871574343,967045032,6438,9,-0.179931640625,-1.01641845703125,0.12933349609375
1759871574343,967045032,6438,10,-0.16015625,-1.01275634765625,0.13446044921875
1759871574343,967045032,6438,11,-0.1923828125,-1.01129150390625,0.13885498046875
1759871574343,967045032,6438,12,-0.1904296875,-1.00592041015625,0.14031982421875
1759871574343,967045032,6438,13,-0.21337890625,-1.01837158203125,0.11151123046875
1759871574343,967045032,6438,14,-0.197998046875,-1.01910400390625,0.10858154296875
1759871574343,967045032,6438,15,-0.177978515625,-1.01593017578125,0.11639404296875
1759871574343,967045032,6438,16,-0.160400390625,-1.01080322265625,0.15594482421875
1759871574343,967045032,6438,17,-0.15869140625,-1.02716064453125,0.14520263671875
1759871574343,967045032,6438,18,-0.207763671875,-1.01788330078125,0.12249755859375
1759871574343,967045032,6438,19,-0.168701171875,-1.01324462890625,0.12445068359375
1759871574343,967045032,6438,20,-0.17138671875,-1.01690673828125,0.12078857421875
1759871574343,967045032,6438,21,-0.178466796875,-1.01275634765625,0.09979248046875
1759871574343,967045032,6438,22,-0.18212890625,-1.00933837890625,0.11785888671875
1759871574343,967045032,6438,23,-0.17333984375,-1.01812744140625,0.12176513671875
1759871574343,967045032,6438,24,-0.15869140625,-1.01202392578125,0.12030029296875
1759871574343,967045032,6438,25,-0.162841796875,-1.02105712890625,0.10394287109375
1759871574343,967045032,6438,26,-0.178955078125,-1.02764892578125,0.09197998046875
1759871574343,967045032,6438,27,-0.185302734375,-1.02081298828125,0.08148193359375
1759871574343,967045032,6438,28,-0.17724609375,-1.01885986328125,0.08343505859375
1759871574343,967045032,6438,29,-0.170654296875,-1.01641845703125,0.09588623046875
1759871574343,967045032,6438,30,-0.170654296875,-1.02203369140625,0.09906005859375
1759871574343,967045032,6438,31,-0.185302734375,-1.02008056640625,0.08905029296875
1759871576863,967047569,6439,0,-0.18896484375,-1.01788330078125,0.08050537109375
1759871576863,967047569,6439,1,-0.193115234375,-1.02667236328125,0.09149169921875
1759871576863,967047569,6439,2,-0.21923828125,-1.02178955078125,0.08416748046875
1759871576863,967047569,6439,3,-0.232666015625,-1.01007080078125,0.07196044921875
1759871576863,967047569,6439,4,-0.209228515625,-1.01177978515625,0.08709716796875
1759871576863,967047569,6439,5,-0.177490234375,-1.01837158203125,0.11175537109375
1759871576863,967047569,6439,6,-0.1640625,-1.01446533203125,0.13079833984375
1759871576863,967047569,6439,7,-0.190673828125,-1.01300048828125,0.11322021484375
1759871576863,967047569,6439,8,-0.199462890625,-1.01495361328125,0.10052490234375
1759871576863,967047569,6439,9,-0.193115234375,-1.01177978515625,0.09710693359375
1759871576863,967047569,6439,10,-0.203369140625,-1.02642822265625,0.09539794921875
1759871576863,967047569,6439,11,-0.2451171875,-1.01031494140625,0.07611083984375
1759871576863,967047569,6439,12,-0.2412109375,-1.01104736328125,0.09442138671875
1759871576863,967047569,6439,13,-0.238525390625,-1.01519775390625,0.08831787109375
1759871576863,967047569,6439,14,-0.220703125,-1.00714111328125,0.09149169921875
1759871576863,967047569,6439,15,-0.229736328125,-1.01934814453125,0.09344482421875
1759871576863,967047569,6439,16,-0.2265625,-1.00933837890625,0.09027099609375
1759871576863,967047569,6439,17,-0.2265625,-1.02130126953125,0.08880615234375
1759871576863,967047569,6439,18,-0.218017578125,-1.01495361328125,0.09320068359375
1759871576863,967047569,6439,19,-0.204833984375,-1.01324462890625,0.09490966796875
1759871576863,967047569,6439,20,-0.1943359375,-1.01470947265625,0.11566162109375
1759871576863,967047569,6439,21,-0.18359375,-1.00885009765625,0.11712646484375
1759871576863,967047569,6439,22,-0.194580078125,-1.01397705078125,0.12176513671875
1759871576863,967047569,6439,23,-0.200927734375,-1.01177978515625,0.10516357421875
1759871576863,967047569,6439,24,-0.19677734375,-1.01153564453125,0.09637451171875
1759871576863,967047569,6439,25,-0.211669921875,-1.01690673828125,0.09857177734375
1759871576863,967047569,6439,26,-0.223388671875,-1.01837158203125,0.08929443359375
1759871576863,967047569,6439,27,-0.224609375,-1.01397705078125,0.08197021484375
1759871576863,967047569,6439,28,-0.2333984375,-1.01275634765625,0.08245849609375
1759871576863,967047569,6439,29,-0.22509765625,-1.01470947265625,0.08343505859375
1759871576863,967047569,6439,30,-0.213623046875,-1.01080322265625,0.09710693359375
1759871576863,967047569,6439,31,-0.20751953125,-1.01837158203125,0.08538818359375
1759871579371,967050106,6440,0,-0.22314453125,-1.01373291015625,0.08465576171875
1759871579371,967050106,6440,1,-0.24072265625,-1.01055908203125,0.08929443359375
1759871579371,967050106,6440,2,-0.236083984375,-1.01226806640625,0.08221435546875
1759871579371,967050106,6440,3,-0.224609375,-1.01080322265625,0.08636474609375
1759871579371,967050106,6440,4,-0.197998046875,-1.00909423828125,0.10491943359375
1759871579371,967050106,6440,5,-0.213623046875,-1.01593017578125,0.10784912109375
1759871579371,967050106,6440,6,-0.220947265625,-1.00860595703125,0.10101318359375
1759871579371,967050106,6440,7,-0.2197265625,-1.00860595703125,0.08538818359375
1759871579371,967050106,6440,8,-0.22119140625,-1.01617431640625,0.09173583984375
1759871579371,967050106,6440,9,-0.21826171875,-1.01348876953125,0.09344482421875
1759871579371,967050106,6440,10,-0.2255859375,-1.01666259765625,0.08514404296875
1759871579371,967050106,6440,11,-0.22802734375,-1.01593017578125,0.07757568359375
1759871579371,967050106,6440,12,-0.228271484375,-1.01422119140625,0.07952880859375
1759871579371,967050106,6440,13,-0.225341796875,-1.01300048828125,0.08929443359375
1759871579371,967050106,6440,14,-0.214111328125,-1.01397705078125,0.09490966796875
1759871579371,967050106,6440,15,-0.2060546875,-1.02056884765625,0.08392333984375
1759871581907,967052643,6441,5,-0.249755859375,-0.99542236328125,0.07464599609375
1759871581907,967052643,6441,6,-0.293701171875,-1.02081298828125,0.07830810546875
1759871581907,967052643,6441,7,-0.304931640625,-1.02105712890625,0.10247802734375
1759871581907,967052643,6441,8,-0.265380859375,-1.00201416015625,0.07440185546875
1759871581907,967052643,6441,9,-0.265869140625,-0.99713134765625,0.07635498046875
1759871581907,967052643,6441,10,-0.26416015625,-1.00445556640625,0.08929443359375
1759871581907,967052643,6441,11,-0.271240234375,-1.00225830078125,0.10052490234375
1759871581907,967052643,6441,12,-0.2587890625,-1.01080322265625,0.09466552734375
1759871581907,967052643,6441,13,-0.242919921875,-1.00299072265625,0.07855224609375
1759871581907,967052643,6441,14,-0.218505859375,-1.01568603515625,0.07611083984375
1759871581907,967052643,6441,15,-0.223388671875,-1.01617431640625,0.08880615234375
1759871581907,967052643,6441,16,-0.238525390625,-1.00958251953125,0.10028076171875
1759871581907,967052643,6441,17,-0.2421875,-1.01080322265625,0.09368896484375
1759871581907,967052643,6441,18,-0.236083984375,-1.00640869140625,0.08807373046875
1759871581907,967052643,6441,19,-0.238037109375,-1.01470947265625,0.08148193359375
1759871581907,967052643,6441,20,-0.259765625,-1.00836181640625,0.07220458984375
1759871581907,967052643,6441,21,-0.27099609375,-1.00665283203125,0.06512451171875
1759871581907,967052643,6441,22,-0.2607421875,-1.01666259765625,0.07000732421875
1759871581907,967052643,6441,23,-0.249755859375,-1.00494384765625,0.07318115234375
1759871581907,967052643,6441,24,-0.2578125,-1.00421142578125,0.07806396484375
1759871581907,967052643,6441,25,-0.2568359375,-1.00933837890625,0.08392333984375
1759871581907,967052643,6441,26,-0.24609375,-0.99664306640625,0.09197998046875
1759871581907,967052643,6441,27,-0.260986328125,-1.00396728515625,0.06829833984375
1759871581907,967052643,6441,28,-0.283447265625,-1.01324462890625,0.07122802734375
1759871581907,967052643,6441,29,-0.280517578125,-1.00250244140625,0.06268310546875
1759871581907,967052643,6441,30,-0.265380859375,-1.00103759765625,0.07464599609375
1759871581907,967052643,6441,31,-0.2568359375,-1.01983642578125,0.07440185546875
1759871584427,967055180,6442,0,-0.18408203125,-1.02398681640625,0.12493896484375
1759871584427,967055180,6442,1,-0.181640625,-1.02276611328125,0.09124755859375
1759871584427,967055180,6442,2,-0.165771484375,-1.00665283203125,0.06756591796875
1759871584427,967055180,6442,3,-0.158203125,-1.01763916015625,0.08782958984375
1759871584427,967055180,6442,4,-0.197021484375,-1.01690673828125,0.07220458984375
1759871584427,967055180,6442,5,-0.198974609375,-1.01568603515625,0.07269287109375
1759871584427,967055180,6442,6,-0.23681640625,-1.01568603515625,0.04193115234375
1759871584427,967055180,6442,7,-0.248291015625,-1.01348876953125,0.03118896484375
1759871584427,967055180,6442,8,-0.250244140625,-1.02008056640625,0.02386474609375
1759871584427,967055180,6442,9,-0.2490234375,-1.01251220703125,0.02728271484375
1759871584427,967055180,6442,10,-0.249267578125,-1.01568603515625,0.03167724609375
1759871584427,967055180,6442,11,-0.248046875,-1.01739501953125,0.03875732421875
1759871584427,967055180,6442,12,-0.2412109375,-1.01275634765625,0.05316162109375
1759871584427,967055180,6442,13,-0.236572265625,-1.01617431640625,0.06024169921875
1759871584427,967055180,6442,14,-0.24072265625,-1.01251220703125,0.04925537109375
1759871584427,967055180,6442,15,-0.2470703125,-1.00543212890625,0.04974365234375
1759871584427,967055180,6442,16,-0.236083984375,-1.01983642578125,0.04559326171875
1759871584427,967055180,6442,17,-0.23095703125,-1.00982666015625,0.06146240234375
1759871584427,967055180,6442,18,-0.222900390625,-1.01739501953125,0.04998779296875
1759871584427,967055180,6442,19,-0.23583984375,-1.01690673828125,0.05194091796875
1759871584427,967055180,6442,20,-0.235595703125,-1.01226806640625,0.05023193359375
1759871584427,967055180,6442,21,-0.23046875,-1.01617431640625,0.04437255859375
1759871584427,967055180,6442,22,-0.233642578125,-1.01715087890625,0.04315185546875
1759871584427,967055180,6442,23,-0.234375,-1.01519775390625,0.04241943359375
1759871584427,967055180,6442,24,-0.2392578125,-1.01251220703125,0.04266357421875
1759871584427,967055180,6442,25,-0.23583984375,-1.01397705078125,0.04217529296875
1759871584427,967055180,6442,26,-0.23486328125,-1.01422119140625,0.03607177734375
1759871584427,967055180,6442,27,-0.24365234375,-1.01544189453125,0.04534912109375
1759871584427,967055180,6442,28,-0.228271484375,-1.01031494140625,0.04046630859375
1759871584427,967055180,6442,29,-0.223388671875,-1.01544189453125,0.05145263671875
1759871584427,967055180,6442,30,-0.229248046875,-1.01519775390625,0.05218505859375
1759871584427,967055180,6442,31,-0.236328125,-1.01300048828125,0.04656982421875
1759871586951,967057717,6443,0,-0.2353515625,-1.01812744140625,0.04071044921875
1759871586951,967057717,6443,1,-0.2333984375,-1.01373291015625,0.04510498046875
1759871586951,967057717,6443,2,-0.236572265625,-1.01763916015625,0.03558349609375
1759871586951,967057717,6443,3,-0.23046875,-1.01275634765625,0.04559326171875
1759871586951,967057717,6443,4,-0.227294921875,-1.01715087890625,0.05609130859375
1759871586951,967057717,6443,5,-0.228271484375,-1.01422119140625,0.05072021484375
1759871586951,967057717,6443,6,-0.232177734375,-1.01422119140625,0.04730224609375
1759871586951,967057717,6443,7,-0.238037109375,-1.01495361328125,0.04339599609375
1759871586951,967057717,6443,8,-0.235107421875,-1.01470947265625,0.04730224609375
1759871586951,967057717,6443,9,-0.234619140625,-1.01519775390625,0.04486083984375
1759871586951,967057717,6443,10,-0.23486328125,-1.01763916015625,0.04705810546875
1759871586951,967057717,6443,11,-0.236083984375,-1.01568603515625,0.05120849609375
1759871586951,967057717,6443,12,-0.2333984375,-1.01300048828125,0.04779052734375
1759871586951,967057717,6443,13,-0.235107421875,-1.01861572265625,0.05096435546875
1759871586951,967057717,6443,14,-0.237548828125,-1.01617431640625,0.05902099609375
1759871586951,967057717,6443,15,-0.231689453125,-1.01422119140625,0.05340576171875
1759871586951,967057717,6443,16,-0.227294921875,-1.01690673828125,0.04168701171875
1759871586951,967057717,6443,17,-0.2353515625,-1.01446533203125,0.04754638671875
1759871586951,967057717,6443,18,-0.231201171875,-1.01470947265625,0.04656982421875
1759871586951,967057717,6443,19,-0.226318359375,-1.01422119140625,0.05560302734375
1759871586951,967057717,6443,20,-0.23291015625,-1.01104736328125,0.06414794921875
1759871586951,967057717,6443,21,-0.233642578125,-1.01177978515625,0.06195068359375
1759871586951,967057717,6443,22,-0.232666015625,-1.01617431640625,0.05316162109375
1759871586951,967057717,6443,23,-0.2373046875,-1.01348876953125,0.05584716796875
1759871586951,967057717,6443,24,-0.23828125,-1.01544189453125,0.05120849609375
1759871586951,967057717,6443,25,-0.238037109375,-1.01202392578125,0.05413818359375
1759871586951,967057717,6443,26,-0.235107421875,-1.01519775390625,0.05609130859375
1759871586951,967057717,6443,27,-0.238037109375,-1.00958251953125,0.06048583984375
1759871586951,967057717,6443,28,-0.238525390625,-1.01593017578125,0.06072998046875
1759871586951,967057717,6443,29,-0.236083984375,-1.01153564453125,0.06439208984375
1759871586951,967057717,6443,30,-0.235595703125,-1.01153564453125,0.07684326171875
1759871586951,967057717,6443,31,-0.2353515625,-1.01153564453125,0.07659912109375
1759871589463,967060254,6444,0,-0.2353515625,-1.01226806640625,0.06976318359375
1759871589463,967060254,6444,1,-0.2373046875,-1.01226806640625,0.07220458984375
1759871589463,967060254,6444,2,-0.242431640625,-1.01617431640625,0.07098388671875
1759871589463,967060254,6444,3,-0.23974609375,-1.01080322265625,0.07000732421875
1759871589463,967060254,6444,4,-0.236572265625,-1.01202392578125,0.07269287109375
1759871589463,967060254,6444,5,-0.236572265625,-1.01373291015625,0.07464599609375
1759871589463,967060254,6444,6,-0.23779296875,-1.01275634765625,0.07293701171875
1759871589463,967060254,6444,7,-0.23486328125,-1.01129150390625,0.07025146484375
1759871589463,967060254,6444,8,-0.237060546875,-1.01104736328125,0.06805419921875
1759871589463,967060254,6444,9,-0.2392578125,-1.01544189453125,0.07171630859375
1759871589463,967060254,6444,10,-0.23583984375,-1.00933837890625,0.06854248046875
1759871589463,967060254,6444,11,-0.236328125,-1.01373291015625,0.06976318359375
1759871589463,967060254,6444,12,-0.237548828125,-1.01031494140625,0.07196044921875
1759871589463,967060254,6444,13,-0.237060546875,-1.01226806640625,0.06854248046875
1759871589463,967060254,6444,14,-0.2392578125,-1.01202392578125,0.07342529296875
1759871589463,967060254,6444,15,-0.23388671875,-1.01251220703125,0.06976318359375
1759871589463,967060254,6444,16,-0.23583984375,-1.01373291015625,0.07147216796875
1759871589463,967060254,6444,17,-0.236572265625,-1.01104736328125,0.07171630859375
1759871589463,967060254,6444,18,-0.239501953125,-1.01007080078125,0.06756591796875
1759871589463,967060254,6444,19,-0.239501953125,-1.00933837890625,0.07073974609375
1759871589463,967060254,6444,20,-0.238525390625,-1.01251220703125,0.06658935546875
1759871589463,967060254,6444,21,-0.23681640625,-1.01324462890625,0.06927490234375
1759871589463,967060254,6444,22,-0.240966796875,-1.01348876953125,0.06707763671875
1759871589463,967060254,6444,23,-0.244384765625,-1.01104736328125,0.06561279296875
1759871589463,967060254,6444,24,-0.2412109375,-1.01251220703125,0.06976318359375
1759871589463,967060254,6444,25,-0.23583984375,-1.01129150390625,0.07562255859375
1759871589463,967060254,6444,26,-0.2373046875,-1.01470947265625,0.06903076171875
1759871589463,967060254,6444,27,-0.238037109375,-1.01177978515625,0.07440185546875
1759871589463,967060254,6444,28,-0.2373046875,-1.01251220703125,0.07318115234375
1759871589463,967060254,6444,29,-0.2373046875,-1.01300048828125,0.07049560546875
1759871589463,967060254,6444,30,-0.23095703125,-1.01177978515625,0.07415771484375
1759871589463,967060254,6444,31,-0.237060546875,-1.01348876953125,0.07269287109375
1759871591985,967062791,6445,0,-0.23486328125,-1.00714111328125,0.06829833984375
1759871591985,967062791,6445,1,-0.23486328125,-1.01470947265625,0.06854248046875
1759871591985,967062791,6445,2,-0.239990234375,-1.01348876953125,0.06683349609375
1759871591985,967062791,6445,3,-0.236572265625,-1.01153564453125,0.06732177734375
1759871591985,967062791,6445,4,-0.238525390625,-1.01251220703125,0.06658935546875
1759871591985,967062791,6445,5,-0.239501953125,-1.01226806640625,0.06658935546875
1759871591985,967062791,6445,6,-0.23681640625,-1.01153564453125,0.06610107421875
1759871591985,967062791,6445,7,-0.23828125,-1.01080322265625,0.07000732421875
1759871591985,967062791,6445,8,-0.234375,-1.01446533203125,0.06683349609375
1759871591985,967062791,6445,9,-0.238037109375,-1.01690673828125,0.06365966796875
1759871591985,967062791,6445,10,-0.235107421875,-1.00982666015625,0.07244873046875
1759871591985,967062791,6445,11,-0.236328125,-1.01226806640625,0.06878662109375
1759871591985,967062791,6445,12,-0.238037109375,-1.01080322265625,0.07415771484375
1759871591985,967062791,6445,13,-0.233642578125,-1.01202392578125,0.07489013671875
1759871591985,967062791,6445,14,-0.24169921875,-1.00982666015625,0.06365966796875
1759871591985,967062791,6445,15,-0.236572265625,-1.00982666015625,0.06439208984375
1759871591985,967062791,6445,16,-0.24365234375,-1.01544189453125,0.05584716796875
1759871591985,967062791,6445,17,-0.23583984375,-1.01373291015625,0.05609130859375
1759871591985,967062791,6445,18,-0.2314453125,-1.01715087890625,0.05609130859375
1759871591985,967062791,6445,19,-0.22802734375,-1.01373291015625,0.05682373046875
1759871591985,967062791,6445,20,-0.238525390625,-1.01373291015625,0.06243896484375
1759871591985,967062791,6445,21,-0.248291015625,-1.00836181640625,0.06878662109375
1759871591985,967062791,6445,22,-0.253173828125,-1.00689697265625,0.06707763671875
1759871591985,967062791,6445,23,-0.239501953125,-1.01153564453125,0.06488037109375
1759871591985,967062791,6445,24,-0.24755859375,-1.01397705078125,0.05487060546875
1759871591985,967062791,6445,25,-0.247314453125,-1.00738525390625,0.05535888671875
1759871591985,967062791,6445,26,-0.24462890625,-1.01568603515625,0.05877685546875
1759871591985,967062791,6445,27,-0.24853515625,-1.01202392578125,0.05975341796875
1759871591985,967062791,6445,28,-0.249755859375,-1.00982666015625,0.05755615234375
1759871591985,967062791,6445,29,-0.24462890625,-1.01275634765625,0.06097412109375
1759871591985,967062791,6445,30,-0.24560546875,-1.01251220703125,0.06024169921875
1759871591985,967062791,6445,31,-0.244140625,-1.01324462890625,0.05999755859375
1759871594504,967065322,6446,0,-0.2490234375,-1.01519775390625,0.05584716796875
1759871594504,967065322,6446,1,-0.24267578125,-1.01348876953125,0.05462646484375
1759871594504,967065322,6446,2,-0.2470703125,-1.01153564453125,0.05999755859375
1759871594504,967065322,6446,3,-0.2470703125,-1.00689697265625,0.07073974609375
1759871594504,967065322,6446,4,-0.253662109375,-1.01129150390625,0.07586669921875
1759871594504,967065322,6446,5,-0.249755859375,-1.00445556640625,0.07659912109375
1759871594504,967065322,6446,6,-0.239501953125,-1.01226806640625,0.07122802734375
1759871594504,967065322,6446,7,-0.239990234375,-1.01202392578125,0.07073974609375
1759871594504,967065322,6446,8,-0.240966796875,-1.01177978515625,0.06854248046875
1759871594504,967065322,6446,9,-0.24365234375,-1.01055908203125,0.07196044921875
1759871594504,967065322,6446,10,-0.24560546875,-1.00958251953125,0.07464599609375
1759871594504,967065322,6446,11,-0.23974609375,-1.01177978515625,0.06732177734375
1759871594504,967065322,6446,12,-0.24072265625,-1.01177978515625,0.06610107421875
1759871594504,967065322,6446,13,-0.24365234375,-1.01031494140625,0.06951904296875
1759871594504,967065322,6446,14,-0.246337890625,-1.01177978515625,0.06781005859375
1759871594504,967065322,6446,15,-0.239501953125,-1.00933837890625,0.07073974609375
1759871594504,967065322,6446,16,-0.246826171875,-1.01397705078125,0.06781005859375
1759871594504,967065322,6446,17,-0.2470703125,-1.01031494140625,0.06829833984375
1759871594504,967065322,6446,18,-0.245361328125,-1.01129150390625,0.07000732421875
1759871594504,967065322,6446,19,-0.24853515625,-1.01104736328125,0.06805419921875
1759871594504,967065322,6446,20,-0.243408203125,-1.01007080078125,0.06634521484375
1759871594504,967065322,6446,21,-0.2392578125,-1.00860595703125,0.06903076171875
1759871594504,967065322,6446,22,-0.24072265625,-1.01080322265625,0.07147216796875
1759871594504,967065322,6446,23,-0.240234375,-1.01177978515625,0.07366943359375
1759871594504,967065322,6446,24,-0.24169921875,-1.01031494140625,0.07269287109375
1759871594504,967065322,6446,25,-0.23876953125,-1.01055908203125,0.06976318359375
1759871594504,967065322,6446,26,-0.231201171875,-1.01422119140625,0.07489013671875
1759871594504,967065322,6446,27,-0.23876953125,-1.00885009765625,0.07562255859375
1759871594504,967065322,6446,28,-0.23486328125,-1.01104736328125,0.07244873046875
1759871594504,967065322,6446,29,-0.234375,-1.01275634765625,0.07147216796875
1759871594504,967065322,6446,30,-0.2353515625,-1.00933837890625,0.07293701171875
1759871594504,967065322,6446,31,-0.2392578125,-1.01226806640625,0.06854248046875
1759871597204,967067859,6447,0,-0.23583984375,-1.01446533203125,0.06390380859375
1759871597204,967067859,6447,1,-0.232666015625,-1.01324462890625,0.06927490234375
1759871597204,967067859,6447,2,-0.237060546875,-1.01373291015625,0.07220458984375
1759871597204,967067859,6447,3,-0.234375,-1.01202392578125,0.07049560546875
1759871597204,967067859,6447,4,-0.2421875,-1.01153564453125,0.07464599609375
1759871597204,967067859,6447,5,-0.236328125,-1.01153564453125,0.07928466796875
1759871597204,967067859,6447,6,-0.232666015625,-1.00958251953125,0.08148193359375
1759871597204,967067859,6447,7,-0.229736328125,-1.01446533203125,0.07781982421875
1759871597204,967067859,6447,8,-0.22900390625,-1.01519775390625,0.07904052734375
1759871597204,967067859,6447,9,-0.248046875,-1.01348876953125,0.07342529296875
1759871597204,967067859,6447,10,-0.236572265625,-1.00469970703125,0.07733154296875
1759871597204,967067859,6447,11,-0.225830078125,-1.01495361328125,0.08905029296875
1759871597204,967067859,6447,12,-0.23388671875,-1.01593017578125,0.08782958984375
1759871597204,967067859,6447,13,-0.23046875,-1.00933837890625,0.07562255859375
1759871597204,967067859,6447,14,-0.2392578125,-1.00982666015625,0.06390380859375
1759871597204,967067859,6447,15,-0.24951171875,-1.00738525390625,0.06927490234375
1759871597204,967067859,6447,16,-0.232421875,-1.00347900390625,0.08099365234375
1759871597204,967067859,6447,17,-0.2490234375,-1.01910400390625,0.09759521484375
1759871597204,967067859,6447,18,-0.2509765625,-1.00665283203125,0.06781005859375
1759871597204,967067859,6447,19,-0.243896484375,-1.01177978515625,0.05096435546875
1759871597204,967067859,6447,20,-0.264404296875,-1.01446533203125,0.03338623046875
1759871597204,967067859,6447,21,-0.2587890625,-1.01055908203125,0.05487060546875
1759871597204,967067859,6447,22,-0.252197265625,-1.01446533203125,0.06512451171875
1759871597204,967067859,6447,23,-0.2548828125,-1.00958251953125,0.07049560546875
1759871597204,967067859,6447,24,-0.2666015625,-1.00762939453125,0.07000732421875
1759871597204,967067859,6447,25,-0.2529296875,-1.00811767578125,0.08416748046875
1759871597204,967067859,6447,26,-0.23828125,-1.00592041015625,0.08465576171875
1759871597204,967067859,6447,27,-0.27392578125,-1.00787353515625,0.07611083984375
1759871597204,967067859,6447,28,-0.24658203125,-1.01007080078125,0.08123779296875
1759871597204,967067859,6447,29,-0.244873046875,-1.00592041015625,0.08831787109375
1759871597204,967067859,6447,30,-0.248779296875,-1.00787353515625,0.09051513671875
1759871597204,967067859,6447,31,-0.24853515625,-1.00518798828125,0.08856201171875
1759871599906,967070396,6448,0,-0.279052734375,-1.00787353515625,0.06781005859375
1759871599906,967070396,6448,1,-0.2353515625,-1.00714111328125,0.08587646484375
1759871599906,967070396,6448,2,-0.246826171875,-1.00933837890625,0.07440185546875
1759871599906,967070396,6448,3,-0.251220703125,-1.01031494140625,0.08489990234375
1759871599906,967070396,6448,4,-0.27587890625,-1.00909423828125,0.06927490234375
1759871599906,967070396,6448,5,-0.250732421875,-1.00860595703125,0.08367919921875
1759871599906,967070396,6448,6,-0.25634765625,-1.00811767578125,0.08099365234375
1759871599906,967070396,6448,7,-0.252197265625,-1.01177978515625,0.08197021484375
1759871599906,967070396,6448,8,-0.243896484375,-1.01007080078125,0.08709716796875
1759871599906,967070396,6448,9,-0.24853515625,-1.00640869140625,0.08392333984375
1759871599906,967070396,6448,10,-0.256591796875,-1.00909423828125,0.07586669921875
1759871599906,967070396,6448,11,-0.242919921875,-1.00640869140625,0.08709716796875
1759871599906,967070396,6448,12,-0.24169921875,-1.01153564453125,0.08734130859375
1759871599906,967070396,6448,13,-0.24365234375,-1.01129150390625,0.08587646484375
1759871599906,967070396,6448,14,-0.22607421875,-1.00494384765625,0.09320068359375
1759871599906,967070396,6448,15,-0.245361328125,-1.01275634765625,0.09564208984375
1759871599906,967070396,6448,16,-0.250244140625,-1.00811767578125,0.10076904296875
1759871599906,967070396,6448,17,-0.2529296875,-1.00567626953125,0.09539794921875
1759871599906,967070396,6448,18,-0.249755859375,-1.00909423828125,0.09417724609375
1759871599906,967070396,6448,19,-0.244873046875,-1.00567626953125,0.09027099609375
1759871599906,967070396,6448,20,-0.247802734375,-1.01324462890625,0.08929443359375
1759871599906,967070396,6448,21,-0.248779296875,-1.00640869140625,0.08734130859375
1759871599906,967070396,6448,22,-0.2490234375,-1.01007080078125,0.08245849609375
1759871599906,967070396,6448,23,-0.251708984375,-1.01031494140625,0.08221435546875
1759871599906,967070396,6448,24,-0.24853515625,-1.00396728515625,0.08099365234375
1759871599906,967070396,6448,25,-0.256103515625,-1.00836181640625,0.08245849609375
1759871599906,967070396,6448,26,-0.25341796875,-1.00689697265625,0.09295654296875
1759871599906,967070396,6448,27,-0.23974609375,-1.00787353515625,0.08319091796875
1759871599906,967070396,6448,28,-0.2451171875,-1.00177001953125,0.08343505859375
1759871599906,967070396,6448,29,-0.256103515625,-1.00836181640625,0.08880615234375
1759871599906,967070396,6448,30,-0.252197265625,-1.00787353515625,0.08392333984375
1759871599906,967070396,6448,31,-0.267333984375,-1.02203369140625,0.05291748046875
1759871602243,967072933,6449,0,-0.2568359375,-1.00860595703125,0.03167724609375
1759871602243,967072933,6449,1,-0.237060546875,-1.01593017578125,0.05877685546875
1759871602243,967072933,6449,2,-0.25244140625,-1.03179931640625,0.06805419921875
1759871602243,967072933,6449,3,-0.235107421875,-0.98760986328125,0.06976318359375
1759871602243,967072933,6449,4,-0.23583984375,-1.00469970703125,0.08929443359375
1759871602243,967072933,6449,5,-0.224365234375,-1.01617431640625,0.12860107421875
1759871602243,967072933,6449,6,-0.243408203125,-1.00225830078125,0.08953857421875
1759871602243,967072933,6449,7,-0.2548828125,-1.01251220703125,0.08612060546875
1759871602243,967072933,6449,8,-0.260986328125,-1.00421142578125,0.05804443359375
1759871602243,967072933,6449,9,-0.25341796875,-1.00836181640625,0.07757568359375
1759871602243,967072933,6449,10,-0.24609375,-1.01007080078125,0.07342529296875
1759871602243,967072933,6449,11,-0.25537109375,-1.00665283203125,0.08319091796875
1759871602243,967072933,6449,12,-0.256103515625,-1.01031494140625,0.08099365234375
1759871602243,967072933,6449,13,-0.244140625,-1.02178955078125,0.07342529296875
1759871602243,967072933,6449,14,-0.2607421875,-1.00103759765625,0.07049560546875
1759871602243,967072933,6449,15,-0.27392578125,-1.00592041015625,0.05462646484375
1759871602243,967072933,6449,16,-0.2470703125,-1.00909423828125,0.08245849609375
1759871602243,967072933,6449,17,-0.22900390625,-1.00909423828125,0.08831787109375
1759871602243,967072933,6449,18,-0.223388671875,-1.01153564453125,0.08489990234375
1759871602243,967072933,6449,19,-0.240234375,-1.01470947265625,0.07781982421875
1759871602243,967072933,6449,20,-0.244384765625,-1.01422119140625,0.06317138671875
1759871602243,967072933,6449,21,-0.24658203125,-1.00714111328125,0.06268310546875
1759871602243,967072933,6449,22,-0.240966796875,-1.01129150390625,0.07342529296875
1759871602243,967072933,6449,23,-0.2353515625,-1.01422119140625,0.08685302734375
1759871602243,967072933,6449,24,-0.223388671875,-1.02301025390625,0.09344482421875
1759871602243,967072933,6449,25,-0.24560546875,-1.00518798828125,0.07928466796875
1759871602243,967072933,6449,26,-0.242919921875,-1.00469970703125,0.05194091796875
1759871602243,967072933,6449,27,-0.228271484375,-1.01275634765625,0.08636474609375
1759871602243,967072933,6449,28,-0.2216796875,-1.01055908203125,0.11517333984375
1759871602243,967072933,6449,29,-0.21337890625,-1.00836181640625,0.11810302734375
1759871602243,967072933,6449,30,-0.227294921875,-1.01153564453125,0.10858154296875
1759871602243,967072933,6449,31,-0.233642578125,-1.00836181640625,0.10736083984375
1759871604763,967075470,6450,0,-0.235595703125,-1.00567626953125,0.09783935546875
1759871604763,967075470,6450,1,-0.238525390625,-1.00933837890625,0.09954833984375
1759871604763,967075470,6450,2,-0.245361328125,-1.00885009765625,0.09881591796875
1759871604763,967075470,6450,3,-0.244873046875,-1.00787353515625,0.09808349609375
1759871604763,967075470,6450,4,-0.254150390625,-1.00543212890625,0.09320068359375
1759871604763,967075470,6450,5,-0.248779296875,-1.00469970703125,0.09344482421875
1759871604763,967075470,6450,6,-0.251220703125,-1.01104736328125,0.08807373046875
1759871604763,967075470,6450,7,-0.24609375,-1.00689697265625,0.09027099609375
1759871604763,967075470,6450,8,-0.247802734375,-1.01153564453125,0.09027099609375
1759871604763,967075470,6450,9,-0.248046875,-1.01031494140625,0.09051513671875
1759871604763,967075470,6450,10,-0.24169921875,-1.01031494140625,0.09027099609375
1759871604763,967075470,6450,11,-0.249267578125,-1.00958251953125,0.09002685546875
1759871604763,967075470,6450,12,-0.2490234375,-1.00982666015625,0.09466552734375
1759871604763,967075470,6450,13,-0.24951171875,-1.00787353515625,0.09222412109375
1759871604763,967075470,6450,14,-0.24853515625,-1.00982666015625,0.09686279296875
1759871604763,967075470,6450,15,-0.236083984375,-1.01153564453125,0.09783935546875
1759871604763,967075470,6450,16,-0.255859375,-1.00421142578125,0.09271240234375
1759871604763,967075470,6450,17,-0.24560546875,-1.01031494140625,0.08074951171875
1759871604763,967075470,6450,18,-0.240234375,-1.00616455078125,0.11102294921875
1759871604763,967075470,6450,19,-0.225341796875,-1.01275634765625,0.10174560546875
