receivedPhoneTimestamp,respeckTimestamp,packetSeqNum,sampleSeqNum,accelX,accelY,accelZ
1759958628218,1060103304,25467,8,0.180908203125,-0.85748291015625,-0.54644775390625
1759958628218,1060103304,25467,9,0.21044921875,-0.86822509765625,-0.54400634765625
1759958628218,1060103304,25467,10,0.26416015625,-0.84185791015625,-0.49639892578125
1759958628218,1060103304,25467,11,0.2265625,-0.90338134765625,-0.46173095703125
1759958628218,1060103304,25467,12,0.19384765625,-0.91046142578125,-0.41168212890625
1759958628218,1060103304,25467,13,0.264892578125,-0.87335205078125,-0.37188720703125
1759958628218,1060103304,25467,14,0.25927734375,-0.95147705078125,-0.33673095703125
1759958628218,1060103304,25467,15,0.172607421875,-1.00054931640625,-0.34967041015625
1759958628218,1060103304,25467,16,0.275390625,-0.89166259765625,-0.37091064453125
1759958628218,1060103304,25467,17,0.299072265625,-0.88946533203125,-0.36407470703125
1759958628218,1060103304,25467,18,0.193603515625,-0.98516845703125,-0.30255126953125
1759958628218,1060103304,25467,19,0.26904296875,-0.92584228515625,-0.32794189453125
1759958628218,1060103304,25467,20,0.341552734375,-0.85284423828125,-0.35284423828125
1759958628218,1060103304,25467,21,0.214599609375,-0.98663330078125,-0.29327392578125
1759958628218,1060103304,25467,22,0.27783203125,-0.96319580078125,-0.31353759765625
1759958628218,1060103304,25467,23,0.406005859375,-0.81134033203125,-0.38922119140625
1759958628218,1060103304,25467,24,0.284423828125,-0.93560791015625,-0.34063720703125
1759958628218,1060103304,25467,25,0.230712890625,-0.96173095703125,-0.35186767578125
1759958628218,1060103304,25467,26,0.36572265625,-0.82525634765625,-0.47052001953125
1759958628218,1060103304,25467,27,0.2646484375,-0.88507080078125,-0.42681884765625
1759958628218,1060103304,25467,28,0.23876953125,-0.96392822265625,-0.39801025390625
1759958628218,1060103304,25467,29,0.308837890625,-0.91705322265625,-0.45391845703125
1759958628218,1060103304,25467,30,0.158203125,-0.88580322265625,-0.39385986328125
1759958628218,1060103304,25467,31,0.143310546875,-0.96002197265625,-0.15289306640625
1759958630804,1060105871,25468,0,0.328857421875,-0.94317626953125,-0.33648681640625
1759958630804,1060105871,25468,1,0.263916015625,-0.93829345703125,-0.39239501953125
1759958630804,1060105871,25468,2,0.14794921875,-0.93170166015625,-0.33331298828125
1759958630804,1060105871,25468,3,0.16943359375,-0.94097900390625,-0.35870361328125
1759958630804,1060105871,25468,4,0.251220703125,-0.96588134765625,-0.43658447265625
1759958630804,1060105871,25468,5,0.202392578125,-0.87139892578125,-0.39849853515625
1759958630804,1060105871,25468,6,0.177734375,-0.95977783203125,-0.31378173828125
1759958630804,1060105871,25468,7,0.15185546875,-0.99713134765625,-0.38946533203125
1759958630804,1060105871,25468,8,0.205078125,-0.88922119140625,-0.44732666015625
1759958630804,1060105871,25468,9,0.1396484375,-0.91510009765625,-0.36651611328125
1759958630804,1060105871,25468,10,0.217041015625,-1.04937744140625,-0.32281494140625
1759958630804,1060105871,25468,11,0.188232421875,-0.86749267578125,-0.34967041015625
1759958630804,1060105871,25468,12,0.245849609375,-0.93585205078125,-0.26959228515625
1759958630804,1060105871,25468,13,0.192626953125,-0.97247314453125,-0.28302001953125
1759958630804,1060105871,25468,14,0.21240234375,-0.97540283203125,-0.37042236328125
1759958630804,1060105871,25468,15,0.23193359375,-0.87432861328125,-0.38092041015625
1759958630804,1060105871,25468,16,0.23486328125,-0.94952392578125,-0.35552978515625
1759958630804,1060105871,25468,17,0.17822265625,-1.00299072265625,-0.34576416015625
1759958630804,1060105871,25468,18,0.250732421875,-0.87237548828125,-0.40435791015625
1759958630804,1060105871,25468,19,0.228759765625,-0.94586181640625,-0.35552978515625
1759958630804,1060105871,25468,20,0.21533203125,-1.03765869140625,-0.30743408203125
1759958630804,1060105871,25468,21,0.090576171875,-0.88580322265625,-0.17633056640625
1759958630804,1060105871,25468,22,0.2294921875,-0.97198486328125,-0.22564697265625
1759958630804,1060105871,25468,23,0.16650390625,-0.97369384765625,-0.30572509765625
1759958630804,1060105871,25468,24,0.105712890625,-1.03033447265625,-0.29547119140625
1759958630804,1060105871,25468,25,0.149658203125,-0.94830322265625,-0.33135986328125
1759958630804,1060105871,25468,26,0.35400390625,-0.84136962890625,-0.35040283203125
1759958630804,1060105871,25468,27,0.16552734375,-1.02618408203125,-0.37213134765625
1759958630804,1060105871,25468,28,-0.009033203125,-0.99102783203125,-0.32305908203125
1759958630804,1060105871,25468,29,0.2119140625,-0.91217041015625,-0.37725830078125
1759958630804,1060105871,25468,30,0.27685546875,-0.93389892578125,-0.33770751953125
1759958630804,1060105871,25468,31,0.20263671875,-0.98175048828125,-0.30328369140625
1759958633384,1060108438,25469,0,0.23779296875,-0.92413330078125,-0.33135986328125
1759958633384,1060108438,25469,1,0.3271484375,-0.89068603515625,-0.34112548828125
1759958633384,1060108438,25469,2,0.26318359375,-0.96026611328125,-0.28839111328125
1759958633384,1060108438,25469,3,0.189208984375,-0.97613525390625,-0.30108642578125
1759958633384,1060108438,25469,4,0.314697265625,-0.89727783203125,-0.38140869140625
1759958633384,1060108438,25469,5,0.346435546875,-0.97906494140625,-0.33648681640625
1759958633384,1060108438,25469,6,0.0849609375,-0.91217041015625,-0.11651611328125
1759958633384,1060108438,25469,7,0.271484375,-0.94879150390625,-0.24444580078125
1759958633384,1060108438,25469,8,0.37060546875,-0.93170166015625,-0.34283447265625
1759958633384,1060108438,25469,9,0.19580078125,-0.95367431640625,-0.29766845703125
1759958633384,1060108438,25469,10,0.21240234375,-0.96466064453125,-0.32403564453125
1759958633384,1060108438,25469,11,0.30029296875,-0.90875244140625,-0.37310791015625
1759958633384,1060108438,25469,12,0.232421875,-0.90509033203125,-0.36041259765625
1759958633384,1060108438,25469,13,0.19482421875,-0.99127197265625,-0.33258056640625
1759958633384,1060108438,25469,14,0.21728515625,-0.94854736328125,-0.35552978515625
1759958633384,1060108438,25469,15,0.276123046875,-0.88116455078125,-0.39581298828125
1759958633384,1060108438,25469,16,0.21484375,-0.93804931640625,-0.34234619140625
1759958633384,1060108438,25469,17,0.165771484375,-0.99029541015625,-0.34698486328125
1759958633384,1060108438,25469,18,0.217529296875,-0.95269775390625,-0.35894775390625
1759958633384,1060108438,25469,19,0.2490234375,-0.91900634765625,-0.35089111328125
1759958633384,1060108438,25469,20,0.21142578125,-0.97418212890625,-0.25250244140625
1759958633384,1060108438,25469,21,0.12158203125,-0.96783447265625,-0.15069580078125
1759958633384,1060108438,25469,22,0.3046875,-0.94342041015625,-0.28936767578125
1759958633384,1060108438,25469,23,0.19677734375,-0.91217041015625,-0.34698486328125
1759958633384,1060108438,25469,24,0.099853515625,-1.04205322265625,-0.32867431640625
1759958633384,1060108438,25469,25,0.16015625,-0.94146728515625,-0.37603759765625
1759958633384,1060108438,25469,26,0.24853515625,-0.86529541015625,-0.36090087890625
1759958633384,1060108438,25469,27,0.11669921875,-1.01641845703125,-0.32769775390625
1759958633384,1060108438,25469,28,0.1982421875,-0.97711181640625,-0.34967041015625
1759958633384,1060108438,25469,29,0.2822265625,-0.84747314453125,-0.40606689453125
1759958633384,1060108438,25469,30,0.172607421875,-0.96905517578125,-0.37091064453125
1759958633384,1060108438,25469,31,0.153564453125,-0.96124267578125,-0.34527587890625
1759958635969,1060111005,25470,0,0.204833984375,-0.93804931640625,-0.42315673828125
1759958635969,1060111005,25470,1,0.1630859375,-0.89898681640625,-0.37408447265625
1759958635969,1060111005,25470,2,0.21044921875,-0.98077392578125,-0.32232666015625
1759958635969,1060111005,25470,3,0.120849609375,-1.00640869140625,-0.33966064453125
1759958635969,1060111005,25470,4,0.190673828125,-0.89727783203125,-0.24908447265625
1759958635969,1060111005,25470,5,0.20751953125,-0.93707275390625,-0.27349853515625
1759958635969,1060111005,25470,6,0.203369140625,-1.00079345703125,-0.38092041015625
1759958635969,1060111005,25470,7,0.123046875,-0.99468994140625,-0.33306884765625
1759958635969,1060111005,25470,8,0.15966796875,-0.88555908203125,-0.35455322265625
1759958635969,1060111005,25470,9,0.204345703125,-0.94586181640625,-0.36358642578125
1759958635969,1060111005,25470,10,0.134033203125,-0.99713134765625,-0.34820556640625
1759958635969,1060111005,25470,11,0.1279296875,-0.94781494140625,-0.36065673828125
1759958635969,1060111005,25470,12,0.168701171875,-0.92730712890625,-0.35943603515625
1759958635969,1060111005,25470,13,0.145751953125,-0.95880126953125,-0.37677001953125
1759958635969,1060111005,25470,14,0.150390625,-0.95343017578125,-0.38531494140625
1759958635969,1060111005,25470,15,0.156982421875,-0.93682861328125,-0.35626220703125
1759958635969,1060111005,25470,16,0.1552734375,-0.94635009765625,-0.39678955078125
1759958635969,1060111005,25470,17,0.142822265625,-0.95220947265625,-0.37359619140625
1759958635969,1060111005,25470,18,0.15771484375,-0.94464111328125,-0.36358642578125
1759958635969,1060111005,25470,19,0.177978515625,-0.94366455078125,-0.39801025390625
1759958635969,1060111005,25470,20,0.153076171875,-0.97393798828125,-0.36285400390625
1759958635969,1060111005,25470,21,0.088134765625,-0.97589111328125,-0.33087158203125
1759958635969,1060111005,25470,22,0.105712890625,-0.93267822265625,-0.26593017578125
1759958635969,1060111005,25470,23,0.20849609375,-0.99102783203125,-0.28204345703125
1759958635969,1060111005,25470,24,0.1630859375,-0.94610595703125,-0.32647705078125
1759958635969,1060111005,25470,25,0.19775390625,-0.96173095703125,-0.33697509765625
1759958635969,1060111005,25470,26,0.151611328125,-0.94146728515625,-0.32769775390625
1759958635969,1060111005,25470,27,0.114990234375,-0.98419189453125,-0.32501220703125
1759958635969,1060111005,25470,28,0.19384765625,-0.93634033203125,-0.34381103515625
1759958635969,1060111005,25470,29,0.1953125,-0.95025634765625,-0.36578369140625
1759958635969,1060111005,25470,30,0.15185546875,-0.96392822265625,-0.39459228515625
1759958635969,1060111005,25470,31,0.15234375,-0.91656494140625,-0.38531494140625
1759958638554,1060113572,25471,0,0.191650390625,-0.92559814453125,-0.36407470703125
1759958638554,1060113572,25471,1,0.14697265625,-0.97003173828125,-0.33966064453125
1759958638554,1060113572,25471,2,0.153076171875,-0.97222900390625,-0.40606689453125
1759958638554,1060113572,25471,3,0.14208984375,-0.95880126953125,-0.42242431640625
1759958638554,1060113572,25471,4,0.15576171875,-0.94879150390625,-0.23931884765625
1759958638554,1060113572,25471,5,0.183349609375,-0.90802001953125,-0.27032470703125
1759958638554,1060113572,25471,6,0.27294921875,-0.94390869140625,-0.36480712890625
1759958638554,1060113572,25471,7,0.17626953125,-0.97247314453125,-0.39971923828125
1759958638554,1060113572,25471,8,0.11083984375,-0.93878173828125,-0.36529541015625
1759958638554,1060113572,25471,9,0.162109375,-0.93487548828125,-0.43292236328125
1759958638554,1060113572,25471,10,0.21533203125,-0.90997314453125,-0.45513916015625
1759958638554,1060113572,25471,11,0.2197265625,-0.95367431640625,-0.30474853515625
1759958638554,1060113572,25471,12,0.232177734375,-0.91754150390625,-0.43682861328125
1759958638554,1060113572,25471,13,0.2666015625,-0.85064697265625,-0.46929931640625
1759958638554,1060113572,25471,14,0.194580078125,-0.93072509765625,-0.38360595703125
1759958638554,1060113572,25471,15,0.23974609375,-0.94781494140625,-0.41876220703125
1759958638554,1060113572,25471,16,0.19482421875,-0.88946533203125,-0.45050048828125
1759958638554,1060113572,25471,17,0.126708984375,-0.95880126953125,-0.33526611328125
1759958638554,1060113572,25471,18,0.207763671875,-1.01129150390625,-0.33673095703125
1759958638554,1060113572,25471,19,0.243896484375,-0.87603759765625,-0.38116455078125
1759958638554,1060113572,25471,20,0.1865234375,-0.89166259765625,-0.28961181640625
1759958638554,1060113572,25471,21,0.1875,-1.03961181640625,-0.31060791015625
1759958638554,1060113572,25471,22,0.270751953125,-0.92559814453125,-0.38311767578125
1759958638554,1060113572,25471,23,0.1875,-0.88043212890625,-0.34844970703125
1759958638554,1060113572,25471,24,0.18798828125,-0.99053955078125,-0.32037353515625
1759958638554,1060113572,25471,25,0.23486328125,-0.97100830078125,-0.37774658203125
1759958638554,1060113572,25471,26,0.2421875,-0.86724853515625,-0.40386962890625
1759958638554,1060113572,25471,27,0.17626953125,-0.94708251953125,-0.35479736328125
1759958638554,1060113572,25471,28,0.170654296875,-0.98712158203125,-0.35089111328125
1759958638554,1060113572,25471,29,0.24072265625,-0.89556884765625,-0.42510986328125
1759958638554,1060113572,25471,30,0.214111328125,-0.90338134765625,-0.38287353515625
1759958638554,1060113572,25471,31,0.180908203125,-0.96881103515625,-0.33990478515625
1759958641137,1060116139,25472,0,0.185546875,-0.95782470703125,-0.42291259765625
1759958641137,1060116139,25472,1,0.186767578125,-0.86578369140625,-0.42828369140625
1759958641137,1060116139,25472,2,0.181396484375,-0.91827392578125,-0.36676025390625
1759958641137,1060116139,25472,3,0.200439453125,-0.97760009765625,-0.39825439453125
1759958641137,1060116139,25472,4,0.212890625,-0.91436767578125,-0.41046142578125
1759958641137,1060116139,25472,5,0.2177734375,-0.89727783203125,-0.39068603515625
1759958641137,1060116139,25472,6,0.19580078125,-1.01641845703125,-0.34576416015625
1759958641137,1060116139,25472,7,0.119384765625,-0.90753173828125,-0.31060791015625
1759958641137,1060116139,25472,8,0.25830078125,-0.89752197265625,-0.34307861328125
1759958641137,1060116139,25472,9,0.1787109375,-0.99981689453125,-0.30987548828125
1759958641137,1060116139,25472,10,0.161865234375,-1.00006103515625,-0.35821533203125
1759958641137,1060116139,25472,11,0.16796875,-0.89703369140625,-0.35675048828125
1759958641137,1060116139,25472,12,0.174072265625,-0.94586181640625,-0.34014892578125
1759958641137,1060116139,25472,13,0.162109375,-0.98931884765625,-0.33648681640625
1759958641137,1060116139,25472,14,0.203125,-0.95123291015625,-0.35650634765625
1759958641137,1060116139,25472,15,0.185302734375,-0.90972900390625,-0.37091064453125
1759958641137,1060116139,25472,16,0.161865234375,-0.95098876953125,-0.36700439453125
1759958641137,1060116139,25472,17,0.1728515625,-0.97955322265625,-0.32232666015625
1759958641137,1060116139,25472,18,0.107666015625,-0.96051025390625,-0.36871337890625
1759958641137,1060116139,25472,19,0.19140625,-0.91827392578125,-0.36334228515625
1759958641137,1060116139,25472,20,0.212646484375,-0.93829345703125,-0.35235595703125
1759958641137,1060116139,25472,21,0.13720703125,-0.97955322265625,-0.35845947265625
1759958641137,1060116139,25472,22,0.1240234375,-0.94293212890625,-0.34063720703125
1759958641137,1060116139,25472,23,0.22705078125,-0.94268798828125,-0.36749267578125
1759958641137,1060116139,25472,24,0.21630859375,-0.92437744140625,-0.40240478515625
1759958641137,1060116139,25472,25,0.1748046875,-0.96636962890625,-0.38580322265625
1759958641137,1060116139,25472,26,0.15185546875,-0.97003173828125,-0.35968017578125
1759958641137,1060116139,25472,27,0.1689453125,-0.89068603515625,-0.26080322265625
1759958641137,1060116139,25472,28,0.220458984375,-0.98443603515625,-0.29327392578125
1759958641137,1060116139,25472,29,0.177734375,-0.97760009765625,-0.35870361328125
1759958641137,1060116139,25472,30,0.18896484375,-0.92999267578125,-0.34088134765625
1759958641137,1060116139,25472,31,0.126953125,-0.95953369140625,-0.32354736328125
1759958643721,1060118706,25473,0,0.176025390625,-0.96026611328125,-0.36505126953125
1759958643721,1060118706,25473,1,0.15185546875,-0.95611572265625,-0.39117431640625
1759958643721,1060118706,25473,2,0.1689453125,-0.94927978515625,-0.37335205078125
1759958643721,1060118706,25473,3,0.1806640625,-0.94146728515625,-0.34088134765625
1759958643721,1060118706,25473,4,0.17529296875,-0.99957275390625,-0.34283447265625
1759958643721,1060118706,25473,5,0.153076171875,-0.97833251953125,-0.29986572265625
1759958643721,1060118706,25473,6,0.155029296875,-0.94561767578125,-0.26373291015625
1759958643721,1060118706,25473,7,0.16357421875,-0.97100830078125,-0.22296142578125
1759958643721,1060118706,25473,8,0.120849609375,-1.02471923828125,-0.17486572265625
1759958643721,1060118706,25473,9,0.087158203125,-0.96051025390625,-0.13604736328125
1759958643721,1060118706,25473,10,0.094482421875,-1.00738525390625,-0.14556884765625
1759958643721,1060118706,25473,11,0.14013671875,-1.00811767578125,-0.18975830078125
1759958643721,1060118706,25473,12,-0.02490234375,-1.02520751953125,-0.12994384765625
1759958643721,1060118706,25473,13,-0.02880859375,-0.99029541015625,-0.13043212890625
1759958643721,1060118706,25473,14,0.0654296875,-1.04351806640625,-0.08135986328125
1759958643721,1060118706,25473,15,0.21044921875,-1.05889892578125,-0.06866455078125
1759958643721,1060118706,25473,16,0.066162109375,-0.91241455078125,-0.00909423828125
1759958643721,1060118706,25473,17,0.15283203125,-0.98150634765625,-0.08209228515625
1759958643721,1060118706,25473,18,0.117431640625,-1.04132080078125,-0.16876220703125
1759958643721,1060118706,25473,19,0.088134765625,-1.00103759765625,-0.21612548828125
1759958643721,1060118706,25473,20,0.11279296875,-0.97515869140625,-0.22467041015625
1759958643721,1060118706,25473,21,0.082763671875,-1.00152587890625,-0.26348876953125
1759958643721,1060118706,25473,22,0.071533203125,-1.01470947265625,-0.24346923828125
1759958643721,1060118706,25473,23,0.193359375,-0.98101806640625,-0.25518798828125
1759958643721,1060118706,25473,24,0.1640625,-0.97271728515625,-0.31304931640625
1759958643721,1060118706,25473,25,0.129638671875,-0.95440673828125,-0.29083251953125
1759958643721,1060118706,25473,26,0.1904296875,-0.95538330078125,-0.32354736328125
1759958643721,1060118706,25473,27,0.21240234375,-0.98272705078125,-0.34942626953125
1759958643721,1060118706,25473,28,0.162841796875,-0.94683837890625,-0.31036376953125
1759958643721,1060118706,25473,29,0.20068359375,-0.99053955078125,-0.31304931640625
1759958643721,1060118706,25473,30,0.224365234375,-0.93560791015625,-0.30572509765625
1759958643721,1060118706,25473,31,0.2099609375,-0.96929931640625,-0.28179931640625
1759958646106,1060121273,25474,0,0.183837890625,-1.01177978515625,-0.21392822265625
1759958646106,1060121273,25474,1,0.108642578125,-0.97808837890625,-0.18951416015625
1759958646106,1060121273,25474,2,0.058349609375,-1.03961181640625,-0.10406494140625
1759958646106,1060121273,25474,3,0.14306640625,-0.92120361328125,-0.16998291015625
1759958646106,1060121273,25474,4,0.197509765625,-1.04815673828125,-0.07354736328125
1759958646106,1060121273,25474,5,0.07275390625,-1.01251220703125,-0.11212158203125
1759958646106,1060121273,25474,6,0.017333984375,-1.00714111328125,0.02606201171875
1759958646106,1060121273,25474,7,0.119140625,-1.03424072265625,-0.03643798828125
1759958646106,1060121273,25474,8,0.0927734375,-0.97979736328125,-0.08868408203125
1759958646106,1060121273,25474,9,0.127685546875,-0.99981689453125,-0.03741455078125
1759958646106,1060121273,25474,10,0.158447265625,-1.02471923828125,-0.11016845703125
1759958646106,1060121273,25474,11,0.137451171875,-1.01202392578125,-0.13043212890625
1759958646106,1060121273,25474,12,0.126708984375,-0.94586181640625,-0.14947509765625
1759958646106,1060121273,25474,13,0.23291015625,-1.02130126953125,-0.16290283203125
1759958646106,1060121273,25474,14,0.15087890625,-1.01788330078125,-0.20489501953125
1759958646106,1060121273,25474,15,0.111572265625,-0.94000244140625,-0.22174072265625
1759958646106,1060121273,25474,16,0.200927734375,-1.01104736328125,-0.23077392578125
1759958646106,1060121273,25474,17,0.156982421875,-0.98834228515625,-0.26812744140625
1759958646106,1060121273,25474,18,0.118896484375,-0.97955322265625,-0.28228759765625
1759958646106,1060121273,25474,19,0.14013671875,-0.99639892578125,-0.23931884765625
1759958646106,1060121273,25474,20,0.205078125,-0.96734619140625,-0.25445556640625
1759958646106,1060121273,25474,21,0.23876953125,-0.97052001953125,-0.29620361328125
1759958646106,1060121273,25474,22,0.13134765625,-0.97369384765625,-0.25274658203125
1759958646106,1060121273,25474,23,0.061767578125,-1.02886962890625,-0.27154541015625
1759958646106,1060121273,25474,24,0.135009765625,-0.97442626953125,-0.22027587890625
1759958646106,1060121273,25474,25,0.225341796875,-0.95123291015625,-0.19342041015625
1759958646106,1060121273,25474,26,0.180419921875,-1.03814697265625,-0.15362548828125
1759958646106,1060121273,25474,27,0.23583984375,-0.94195556640625,-0.20391845703125
1759958646106,1060121273,25474,28,0.13916015625,-1.03887939453125,-0.15216064453125
1759958646106,1060121273,25474,29,0.130859375,-0.96929931640625,-0.15826416015625
1759958646106,1060121273,25474,30,0.189453125,-0.96368408203125,-0.17364501953125
1759958646106,1060121273,25474,31,0.232666015625,-0.98419189453125,-0.17974853515625
1759958648689,1060123841,25475,0,0.264404296875,-0.99029541015625,-0.24835205078125
1759958648689,1060123841,25475,1,0.17041015625,-0.97344970703125,-0.20465087890625
1759958648689,1060123841,25475,2,0.24365234375,-0.97613525390625,-0.19512939453125
1759958648689,1060123841,25475,3,0.26513671875,-0.97271728515625,-0.23248291015625
1759958648689,1060123841,25475,4,0.256103515625,-0.93121337890625,-0.21051025390625
1759958648689,1060123841,25475,5,0.2080078125,-1.01080322265625,-0.19244384765625
1759958648689,1060123841,25475,6,0.228515625,-0.96734619140625,-0.24176025390625
1759958648689,1060123841,25475,7,0.21337890625,-0.94903564453125,-0.24688720703125
1759958648689,1060123841,25475,8,0.1826171875,-0.99591064453125,-0.21197509765625
1759958648689,1060123841,25475,9,0.179931640625,-0.98101806640625,-0.23394775390625
1759958648689,1060123841,25475,10,0.18408203125,-0.98638916015625,-0.25445556640625
1759958648689,1060123841,25475,11,0.2236328125,-0.96661376953125,-0.22320556640625
1759958648689,1060123841,25475,12,0.18603515625,-0.97662353515625,-0.24639892578125
1759958648689,1060123841,25475,13,0.20849609375,-0.95245361328125,-0.25347900390625
1759958648689,1060123841,25475,14,0.20703125,-0.97979736328125,-0.23345947265625
1759958648689,1060123841,25475,15,0.2001953125,-0.98492431640625,-0.25079345703125
1759958648689,1060123841,25475,16,0.1962890625,-0.94195556640625,-0.27471923828125
1759958648689,1060123841,25475,17,0.211669921875,-0.98809814453125,-0.26544189453125
1759958648689,1060123841,25475,18,0.235595703125,-0.95831298828125,-0.27105712890625
1759958648689,1060123841,25475,19,0.2431640625,-0.98370361328125,-0.28643798828125
1759958648689,1060123841,25475,20,0.164794921875,-0.94708251953125,-0.31329345703125
1759958648689,1060123841,25475,21,0.17236328125,-0.95294189453125,-0.21807861328125
1759958648689,1060123841,25475,22,0.2607421875,-0.96636962890625,-0.25689697265625
1759958648689,1060123841,25475,23,0.2529296875,-0.94342041015625,-0.29425048828125
1759958648689,1060123841,25475,24,0.246337890625,-0.97515869140625,-0.34185791015625
1759958648689,1060123841,25475,25,0.115478515625,-0.93927001953125,-0.32891845703125
1759958648689,1060123841,25475,26,0.252197265625,-0.94537353515625,-0.28204345703125
1759958648689,1060123841,25475,27,0.28662109375,-0.95440673828125,-0.32672119140625
1759958648689,1060123841,25475,28,0.204345703125,-0.93878173828125,-0.33477783203125
1759958648689,1060123841,25475,29,0.21484375,-0.94781494140625,-0.33453369140625
1759958648689,1060123841,25475,30,0.212158203125,-0.93585205078125,-0.34405517578125
1759958648689,1060123841,25475,31,0.220703125,-0.94195556640625,-0.34674072265625
1759958651274,1060126408,25476,0,0.239013671875,-0.94927978515625,-0.34918212890625
1759958651274,1060126408,25476,1,0.263427734375,-0.93218994140625,-0.33624267578125
1759958651274,1060126408,25476,2,0.228515625,-0.94439697265625,-0.34429931640625
1759958651274,1060126408,25476,3,0.240966796875,-0.92950439453125,-0.36602783203125
1759958651274,1060126408,25476,4,0.239501953125,-0.92730712890625,-0.35601806640625
1759958651274,1060126408,25476,5,0.25537109375,-0.93878173828125,-0.34820556640625
1759958651274,1060126408,25476,6,0.2373046875,-0.94049072265625,-0.34698486328125
1759958651274,1060126408,25476,7,0.2236328125,-0.94122314453125,-0.34844970703125
1759958651274,1060126408,25476,8,0.248291015625,-0.93682861328125,-0.34332275390625
1759958651274,1060126408,25476,9,0.240234375,-0.93658447265625,-0.34210205078125
1759958651274,1060126408,25476,10,0.226318359375,-0.93975830078125,-0.34552001953125
1759958651274,1060126408,25476,11,0.235595703125,-0.95684814453125,-0.34283447265625
1759958651274,1060126408,25476,12,0.212890625,-0.96148681640625,-0.32745361328125
1759958651274,1060126408,25476,13,0.219970703125,-0.91973876953125,-0.30645751953125
1759958651274,1060126408,25476,14,0.252685546875,-0.95953369140625,-0.32940673828125
1759958651274,1060126408,25476,15,0.19580078125,-0.98394775390625,-0.32183837890625
1759958651274,1060126408,25476,16,0.20849609375,-0.92633056640625,-0.27691650390625
1759958651274,1060126408,25476,17,0.2197265625,-0.94830322265625,-0.16680908203125
1759958651274,1060126408,25476,18,0.205078125,-0.98443603515625,-0.22491455078125
1759958651274,1060126408,25476,19,0.173095703125,-0.99615478515625,-0.22247314453125
1759958651274,1060126408,25476,20,0.19091796875,-0.97076416015625,-0.31500244140625
1759958651274,1060126408,25476,21,0.116943359375,-0.93194580078125,-0.29791259765625
1759958651274,1060126408,25476,22,0.157470703125,-0.99029541015625,-0.30328369140625
1759958651274,1060126408,25476,23,0.17724609375,-0.93829345703125,-0.34259033203125
1759958651274,1060126408,25476,24,0.09033203125,-0.99981689453125,-0.35992431640625
1759958651274,1060126408,25476,25,0.083740234375,-0.95831298828125,-0.33551025390625
1759958651274,1060126408,25476,26,0.17626953125,-0.93682861328125,-0.37896728515625
1759958651274,1060126408,25476,27,0.23583984375,-0.93780517578125,-0.38165283203125
1759958651274,1060126408,25476,28,0.15087890625,-0.95489501953125,-0.37457275390625
1759958651274,1060126408,25476,29,0.14892578125,-0.95709228515625,-0.37213134765625
1759958651274,1060126408,25476,30,0.158203125,-0.93145751953125,-0.37115478515625
1759958651274,1060126408,25476,31,0.132568359375,-0.97247314453125,-0.36700439453125
1759958653857,1060128975,25477,0,0.154052734375,-0.97076416015625,-0.34600830078125
1759958653857,1060128975,25477,1,0.226318359375,-0.93878173828125,-0.35211181640625
1759958653857,1060128975,25477,2,0.244140625,-0.91632080078125,-0.31353759765625
1759958653857,1060128975,25477,3,0.239013671875,-0.97833251953125,-0.31719970703125
1759958653857,1060128975,25477,4,0.251220703125,-0.93756103515625,-0.31036376953125
1759958653857,1060128975,25477,5,0.2587890625,-0.94146728515625,-0.30255126953125
1759958653857,1060128975,25477,6,0.2734375,-0.93951416015625,-0.28375244140625
1759958653857,1060128975,25477,7,0.26708984375,-0.95782470703125,-0.26495361328125
1759958653857,1060128975,25477,8,0.22412109375,-0.94439697265625,-0.26007080078125
1759958653857,1060128975,25477,9,0.25146484375,-0.97222900390625,-0.24591064453125
1759958653857,1060128975,25477,10,0.200439453125,-0.98541259765625,-0.24664306640625
1759958653857,1060128975,25477,11,0.236328125,-0.94635009765625,-0.22222900390625
1759958653857,1060128975,25477,12,0.328369140625,-0.96173095703125,-0.23883056640625
1759958653857,1060128975,25477,13,0.229248046875,-0.97100830078125,-0.25177001953125
1759958653857,1060128975,25477,14,0.1533203125,-0.95587158203125,-0.22833251953125
1759958653857,1060128975,25477,15,0.211669921875,-0.96514892578125,-0.22857666015625
1759958653857,1060128975,25477,16,0.203857421875,-0.98321533203125,-0.25152587890625
1759958653857,1060128975,25477,17,0.161865234375,-1.02056884765625,-0.21881103515625
1759958653857,1060128975,25477,18,0.109130859375,-0.96173095703125,-0.18951416015625
1759958653857,1060128975,25477,19,0.2255859375,-0.96197509765625,-0.19195556640625
1759958653857,1060128975,25477,20,0.194580078125,-1.00762939453125,-0.23248291015625
1759958653857,1060128975,25477,21,0.19189453125,-0.96905517578125,-0.23541259765625
1759958653857,1060128975,25477,22,0.217529296875,-0.96588134765625,-0.27081298828125
1759958653857,1060128975,25477,23,0.101318359375,-1.00177001953125,-0.23419189453125
1759958653857,1060128975,25477,24,0.178466796875,-0.97222900390625,-0.25347900390625
1759958653857,1060128975,25477,25,0.267578125,-0.95635986328125,-0.26470947265625
1759958653857,1060128975,25477,26,0.2275390625,-0.97296142578125,-0.26593017578125
1759958653857,1060128975,25477,27,0.2021484375,-0.95220947265625,-0.27496337890625
1759958653857,1060128975,25477,28,0.2080078125,-0.97027587890625,-0.28887939453125
1759958653857,1060128975,25477,29,0.170654296875,-0.96148681640625,-0.28839111328125
1759958653857,1060128975,25477,30,0.21533203125,-0.94879150390625,-0.28546142578125
1759958653857,1060128975,25477,31,0.20361328125,-0.96881103515625,-0.31793212890625
1759958656442,1060131542,25478,0,0.22314453125,-0.94683837890625,-0.30743408203125
1759958656442,1060131542,25478,1,0.179931640625,-0.96490478515625,-0.32598876953125
1759958656442,1060131542,25478,2,0.180908203125,-0.97637939453125,-0.34063720703125
1759958656442,1060131542,25478,3,0.16943359375,-0.94049072265625,-0.25177001953125
1759958656442,1060131542,25478,4,0.20654296875,-0.95416259765625,-0.31890869140625
1759958656442,1060131542,25478,5,0.21533203125,-0.98907470703125,-0.32427978515625
1759958656442,1060131542,25478,6,0.1484375,-0.94317626953125,-0.28765869140625
1759958656442,1060131542,25478,7,0.20166015625,-0.95269775390625,-0.30181884765625
1759958656442,1060131542,25478,8,0.227294921875,-0.96124267578125,-0.31964111328125
1759958656442,1060131542,25478,9,0.1796875,-0.96197509765625,-0.28985595703125
1759958656442,1060131542,25478,10,0.184326171875,-0.96051025390625,-0.28594970703125
1759958656442,1060131542,25478,11,0.229736328125,-0.96514892578125,-0.30108642578125
1759958656442,1060131542,25478,12,0.17626953125,-0.95318603515625,-0.29742431640625
1759958656442,1060131542,25478,13,0.136474609375,-0.97442626953125,-0.28765869140625
1759958656442,1060131542,25478,14,0.20703125,-0.96832275390625,-0.32550048828125
1759958656442,1060131542,25478,15,0.18896484375,-0.94879150390625,-0.32110595703125
1759958656442,1060131542,25478,16,0.189697265625,-0.95831298828125,-0.32550048828125
1759958656442,1060131542,25478,17,0.108642578125,-0.97100830078125,-0.32989501953125
1759958656442,1060131542,25478,18,0.1630859375,-0.94952392578125,-0.33843994140625
1759958656442,1060131542,25478,19,0.185791015625,-0.95220947265625,-0.35772705078125
1759958656442,1060131542,25478,20,0.156494140625,-0.94122314453125,-0.34454345703125
1759958656442,1060131542,25478,21,0.14892578125,-0.94830322265625,-0.35528564453125
1759958656442,1060131542,25478,22,0.171142578125,-0.95977783203125,-0.36724853515625
1759958656442,1060131542,25478,23,0.18603515625,-0.94659423828125,-0.34869384765625
1759958656442,1060131542,25478,24,0.19775390625,-0.94708251953125,-0.35552978515625
1759958656442,1060131542,25478,25,0.175537109375,-0.95416259765625,-0.34161376953125
1759958656442,1060131542,25478,26,0.205078125,-0.92608642578125,-0.35284423828125
1759958656442,1060131542,25478,27,0.11474609375,-0.98175048828125,-0.33746337890625
1759958656442,1060131542,25478,28,0.205810546875,-0.94781494140625,-0.34722900390625
1759958656442,1060131542,25478,29,0.2373046875,-0.93609619140625,-0.32745361328125
1759958656442,1060131542,25478,30,0.20849609375,-0.94366455078125,-0.33697509765625
1759958656442,1060131542,25478,31,0.196044921875,-0.95513916015625,-0.34259033203125
1759958659026,1060134109,25479,0,0.18212890625,-0.97222900390625,-0.35382080078125
1759958659026,1060134109,25479,1,0.19580078125,-0.94488525390625,-0.30718994140625
1759958659026,1060134109,25479,2,0.2197265625,-0.94390869140625,-0.28277587890625
1759958659026,1060134109,25479,3,0.225341796875,-0.98638916015625,-0.28521728515625
1759958659026,1060134109,25479,4,0.213134765625,-0.99102783203125,-0.28448486328125
1759958659026,1060134109,25479,5,0.1435546875,-0.93194580078125,-0.15679931640625
1759958659026,1060134109,25479,6,0.168212890625,-1.00885009765625,-0.16973876953125
1759958659026,1060134109,25479,7,0.1572265625,-0.99664306640625,-0.20684814453125
1759958659026,1060134109,25479,8,0.156005859375,-0.98638916015625,-0.22369384765625
1759958659026,1060134109,25479,9,0.1611328125,-0.98883056640625,-0.23883056640625
1759958659026,1060134109,25479,10,0.207275390625,-0.96148681640625,-0.24273681640625
1759958659026,1060134109,25479,11,0.16845703125,-0.98663330078125,-0.26251220703125
1759958659026,1060134109,25479,12,0.09228515625,-0.97076416015625,-0.27667236328125
1759958659026,1060134109,25479,13,0.11572265625,-0.97442626953125,-0.28082275390625
1759958659026,1060134109,25479,14,0.137451171875,-0.99981689453125,-0.27569580078125
1759958659026,1060134109,25479,15,0.07177734375,-0.98077392578125,-0.27447509765625
1759958659026,1060134109,25479,16,0.08544921875,-0.97955322265625,-0.26446533203125
1759958659026,1060134109,25479,17,0.163330078125,-0.99127197265625,-0.30572509765625
1759958659026,1060134109,25479,18,0.109619140625,-0.94976806640625,-0.28155517578125
1759958659026,1060134109,25479,19,0.219970703125,-0.95391845703125,-0.33355712890625
1759958659026,1060134109,25479,20,0.24560546875,-0.96807861328125,-0.36480712890625
1759958659026,1060134109,25479,21,0.052490234375,-0.94586181640625,-0.35211181640625
1759958659026,1060134109,25479,22,0.097412109375,-0.96173095703125,-0.30816650390625
1759958659026,1060134109,25479,23,0.264404296875,-0.95782470703125,-0.37799072265625
