receivedPhoneTimestamp,respeckTimestamp,packetSeqNum,sampleSeqNum,accelX,accelY,accelZ
1759327418979,515204821,6687,20,-0.025146484375,-1.01470947265625,0.11029052734375
1759327418979,515204821,6687,21,-0.0224609375,-1.01861572265625,0.12078857421875
1759327418979,515204821,6687,22,-0.020263671875,-1.02471923828125,0.10394287109375
1759327418979,515204821,6687,23,-0.01904296875,-1.01544189453125,0.10833740234375
1759327418979,515204821,6687,24,-0.024169921875,-1.01763916015625,0.12152099609375
1759327418979,515204821,6687,25,-0.017822265625,-1.01788330078125,0.11102294921875
1759327418979,515204821,6687,26,-0.036376953125,-1.01104736328125,0.10589599609375
1759327418979,515204821,6687,27,-0.015869140625,-1.03009033203125,0.11517333984375
1759327418979,515204821,6687,28,-0.053955078125,-1.01495361328125,0.10931396484375
1759327418979,515204821,6687,29,-0.049560546875,-1.02032470703125,0.11492919921875
1759327418979,515204821,6687,30,-0.029052734375,-1.02130126953125,0.09930419921875
1759327418979,515204821,6687,31,-0.048828125,-1.01300048828125,0.12371826171875
1759327421507,515207358,6688,0,-0.080322265625,-1.02911376953125,0.12152099609375
1759327421507,515207358,6688,1,-0.04833984375,-1.01983642578125,0.11614990234375
1759327421507,515207358,6688,2,-0.005615234375,-1.01617431640625,0.12054443359375
1759327421507,515207358,6688,3,0.0244140625,-1.02545166015625,0.10223388671875
1759327421507,515207358,6688,4,0.00830078125,-1.02984619140625,0.11737060546875
1759327421507,515207358,6688,5,-0.02978515625,-1.01812744140625,0.08782958984375
1759327421507,515207358,6688,6,-0.051513671875,-1.04107666015625,0.08905029296875
1759327421507,515207358,6688,7,-0.059326171875,-1.01080322265625,0.08319091796875
1759327421507,515207358,6688,8,-0.037841796875,-1.01519775390625,0.09442138671875
1759327421507,515207358,6688,9,-0.06298828125,-1.02911376953125,0.09710693359375
1759327421507,515207358,6688,10,-0.07373046875,-1.02593994140625,0.11248779296875
1759327421507,515207358,6688,11,-0.074951171875,-1.02716064453125,0.10565185546875
1759327421507,515207358,6688,12,-0.094482421875,-1.01763916015625,0.11688232421875
1759327421507,515207358,6688,13,-0.095458984375,-1.01495361328125,0.11297607421875
1759327421507,515207358,6688,14,-0.079833984375,-1.01129150390625,0.11883544921875
1759327421507,515207358,6688,15,-0.07421875,-1.03228759765625,0.12518310546875
1759327421507,515207358,6688,16,-0.081298828125,-1.01617431640625,0.12835693359375
1759327421507,515207358,6688,17,-0.0654296875,-1.01568603515625,0.12274169921875
1759327421507,515207358,6688,18,-0.083740234375,-1.01251220703125,0.12493896484375
1759327421507,515207358,6688,19,-0.0810546875,-1.02081298828125,0.13763427734375
1759327421507,515207358,6688,20,-0.080322265625,-1.02130126953125,0.12420654296875
1759327421507,515207358,6688,21,-0.0859375,-1.01666259765625,0.12884521484375
1759327421507,515207358,6688,22,-0.084716796875,-1.01495361328125,0.12493896484375
1759327421507,515207358,6688,23,-0.0576171875,-1.01324462890625,0.11297607421875
1759327421507,515207358,6688,24,-0.08203125,-1.02301025390625,0.11566162109375
1759327421507,515207358,6688,25,-0.078125,-1.02276611328125,0.11981201171875
1759327421507,515207358,6688,26,-0.064697265625,-1.01666259765625,0.11370849609375
1759327421507,515207358,6688,27,-0.078125,-1.02838134765625,0.12078857421875
1759327421507,515207358,6688,28,-0.06689453125,-1.02032470703125,0.12762451171875
1759327421507,515207358,6688,29,-0.07568359375,-1.00616455078125,0.14398193359375
1759327421507,515207358,6688,30,-0.072998046875,-1.00933837890625,0.13958740234375
1759327421507,515207358,6688,31,-0.0712890625,-1.00762939453125,0.14642333984375
1759327424050,515209895,6689,0,-0.0478515625,-1.01495361328125,0.14227294921875
1759327424050,515209895,6689,1,-0.051513671875,-1.01983642578125,0.14373779296875
1759327424050,515209895,6689,2,-0.04296875,-1.00299072265625,0.13665771484375
1759327424050,515209895,6689,3,-0.036865234375,-1.01104736328125,0.15252685546875
1759327424050,515209895,6689,4,-0.03662109375,-1.00787353515625,0.15008544921875
1759327424050,515209895,6689,5,-0.035888671875,-1.00762939453125,0.15716552734375
1759327424050,515209895,6689,6,-0.04541015625,-1.01422119140625,0.15374755859375
1759327424050,515209895,6689,7,-0.043701171875,-1.00836181640625,0.15179443359375
1759327424050,515209895,6689,8,-0.03857421875,-1.01129150390625,0.14691162109375
1759327424050,515209895,6689,9,-0.043701171875,-1.00762939453125,0.14154052734375
1759327424050,515209895,6689,10,-0.04248046875,-1.01568603515625,0.13641357421875
1759327424050,515209895,6689,11,-0.04296875,-1.01715087890625,0.13812255859375
1759327424050,515209895,6689,12,-0.052490234375,-1.01763916015625,0.13177490234375
1759327424050,515209895,6689,13,-0.051513671875,-1.01934814453125,0.12860107421875
1759327424050,515209895,6689,14,-0.05322265625,-1.01593017578125,0.12860107421875
1759327424050,515209895,6689,15,-0.057373046875,-1.01593017578125,0.12860107421875
1759327424050,515209895,6689,16,-0.056884765625,-1.01763916015625,0.13714599609375
1759327424050,515209895,6689,17,-0.06298828125,-1.00543212890625,0.15911865234375
1759327424050,515209895,6689,18,-0.05322265625,-1.02740478515625,0.14373779296875
1759327424050,515209895,6689,19,-0.061279296875,-1.01593017578125,0.15936279296875
1759327424050,515209895,6689,20,-0.06494140625,-1.01324462890625,0.15618896484375
1759327424050,515209895,6689,21,-0.037841796875,-1.00469970703125,0.14447021484375
1759327424050,515209895,6689,22,-0.05029296875,-0.99444580078125,0.13714599609375
1759327424050,515209895,6689,23,-0.031982421875,-1.03912353515625,0.12884521484375
1759327424050,515209895,6689,24,-0.06005859375,-1.01055908203125,0.13348388671875
1759327424050,515209895,6689,25,-0.03076171875,-1.01324462890625,0.13006591796875
1759327424050,515209895,6689,26,-0.03466796875,-1.00592041015625,0.13079833984375
1759327424050,515209895,6689,27,-0.036865234375,-1.02008056640625,0.12493896484375
1759327424050,515209895,6689,28,-0.045166015625,-1.02008056640625,0.12298583984375
1759327424050,515209895,6689,29,-0.04931640625,-1.01519775390625,0.12078857421875
1759327424050,515209895,6689,30,-0.052978515625,-1.02520751953125,0.12347412109375
1759327424050,515209895,6689,31,-0.05126953125,-1.01617431640625,0.12176513671875
1759327426585,515212432,6690,0,-0.06103515625,-1.01959228515625,0.11517333984375
1759327426585,515212432,6690,1,-0.058837890625,-1.02130126953125,0.11981201171875
1759327426585,515212432,6690,2,-0.067138671875,-1.01666259765625,0.11346435546875
1759327426585,515212432,6690,3,-0.050537109375,-1.01544189453125,0.11517333984375
1759327426585,515212432,6690,4,-0.06201171875,-1.01617431640625,0.11785888671875
1759327426585,515212432,6690,5,-0.05517578125,-1.02862548828125,0.11370849609375
1759327426585,515212432,6690,6,-0.056884765625,-1.01324462890625,0.11346435546875
1759327426585,515212432,6690,7,-0.05322265625,-1.02008056640625,0.11492919921875
1759327426585,515212432,6690,8,-0.053466796875,-1.02008056640625,0.11224365234375
1759327426585,515212432,6690,9,-0.054931640625,-1.01641845703125,0.11761474609375
1759327426585,515212432,6690,10,-0.0634765625,-1.01934814453125,0.12689208984375
1759327426585,515212432,6690,11,-0.072998046875,-1.01885986328125,0.12615966796875
1759327426585,515212432,6690,12,-0.0634765625,-1.02423095703125,0.12835693359375
1759327426585,515212432,6690,13,-0.05615234375,-1.01324462890625,0.12469482421875
1759327426585,515212432,6690,14,-0.06591796875,-1.01763916015625,0.13104248046875
1759327426585,515212432,6690,15,-0.0654296875,-1.01715087890625,0.13226318359375
1759327426585,515212432,6690,16,-0.0546875,-1.01910400390625,0.13079833984375
1759327426585,515212432,6690,17,-0.052001953125,-1.01495361328125,0.12762451171875
1759327426585,515212432,6690,18,-0.045166015625,-1.01641845703125,0.12127685546875
1759327426585,515212432,6690,19,-0.048095703125,-1.01007080078125,0.11932373046875
1759327426585,515212432,6690,20,-0.043701171875,-1.01568603515625,0.12249755859375
1759327426585,515212432,6690,21,-0.029541015625,-1.02252197265625,0.11273193359375
1759327426585,515212432,6690,22,-0.035400390625,-1.03057861328125,0.11663818359375
1759327426585,515212432,6690,23,-0.02880859375,-1.01837158203125,0.11370849609375
1759327426585,515212432,6690,24,-0.03857421875,-1.01593017578125,0.11175537109375
1759327426585,515212432,6690,25,-0.041015625,-1.01763916015625,0.11199951171875
1759327426585,515212432,6690,26,-0.044921875,-1.02056884765625,0.11737060546875
1759327426585,515212432,6690,27,-0.035888671875,-1.02178955078125,0.11541748046875
1759327426585,515212432,6690,28,-0.0400390625,-1.01959228515625,0.11956787109375
1759327426585,515212432,6690,29,-0.034423828125,-1.02374267578125,0.11810302734375
1759327426585,515212432,6690,30,-0.034912109375,-1.02081298828125,0.12249755859375
1759327426585,515212432,6690,31,-0.035888671875,-1.02374267578125,0.12005615234375
1759327429116,515214969,6691,0,-0.04443359375,-1.01837158203125,0.12518310546875
1759327429116,515214969,6691,1,-0.02099609375,-1.02203369140625,0.13519287109375
1759327429116,515214969,6691,2,-0.038330078125,-1.01300048828125,0.13153076171875
1759327429116,515214969,6691,3,-0.0263671875,-1.01348876953125,0.12762451171875
1759327429116,515214969,6691,4,-0.029052734375,-1.01666259765625,0.12933349609375
1759327429116,515214969,6691,5,-0.0185546875,-1.01690673828125,0.12713623046875
1759327429116,515214969,6691,6,-0.0166015625,-1.01666259765625,0.12615966796875
1759327429116,515214969,6691,7,-0.02392578125,-1.01397705078125,0.12493896484375
1759327429116,515214969,6691,8,-0.0224609375,-1.01617431640625,0.12567138671875
1759327429116,515214969,6691,9,-0.02978515625,-1.02178955078125,0.12689208984375
1759327429116,515214969,6691,10,-0.02685546875,-1.01812744140625,0.13421630859375
1759327429116,515214969,6691,11,-0.023193359375,-1.01177978515625,0.13568115234375
1759327429116,515214969,6691,12,-0.02294921875,-1.01251220703125,0.13787841796875
1759327429116,515214969,6691,13,-0.023681640625,-1.01129150390625,0.13323974609375
1759327429116,515214969,6691,14,-0.031494140625,-1.01861572265625,0.14178466796875
1759327429116,515214969,6691,15,-0.033203125,-1.01812744140625,0.13592529296875
1759327429116,515214969,6691,16,-0.03173828125,-1.01885986328125,0.13763427734375
1759327429116,515214969,6691,17,-0.03759765625,-1.01983642578125,0.14031982421875
1759327429116,515214969,6691,18,-0.037353515625,-1.00665283203125,0.14080810546875
1759327429116,515214969,6691,19,-0.031005859375,-1.01153564453125,0.13519287109375
1759327429116,515214969,6691,20,-0.029541015625,-1.01446533203125,0.13934326171875
1759327429116,515214969,6691,21,-0.028564453125,-1.01470947265625,0.13739013671875
1759327429116,515214969,6691,22,-0.030517578125,-1.01080322265625,0.13909912109375
1759327429116,515214969,6691,23,-0.04736328125,-1.00885009765625,0.14031982421875
1759327429116,515214969,6691,24,-0.0390625,-1.02227783203125,0.13250732421875
1759327429116,515214969,6691,25,-0.042236328125,-1.01031494140625,0.13836669921875
1759327429116,515214969,6691,26,-0.041259765625,-1.01031494140625,0.13983154296875
1759327429116,515214969,6691,27,-0.020263671875,-1.03082275390625,0.13568115234375
1759327429116,515214969,6691,28,-0.026123046875,-1.02154541015625,0.13348388671875
1759327429116,515214969,6691,29,-0.018310546875,-1.01300048828125,0.14007568359375
1759327429116,515214969,6691,30,-0.02490234375,-1.02178955078125,0.12908935546875
1759327429116,515214969,6691,31,-0.03369140625,-1.00469970703125,0.13665771484375
1759327431682,515217506,6692,0,-0.018310546875,-1.01763916015625,0.13519287109375
1759327431682,515217506,6692,1,-0.015625,-1.01934814453125,0.12982177734375
1759327431682,515217506,6692,2,-0.017333984375,-1.02008056640625,0.12860107421875
1759327431682,515217506,6692,3,-0.020751953125,-1.01177978515625,0.12933349609375
1759327431682,515217506,6692,4,-0.044921875,-1.01055908203125,0.13616943359375
1759327431682,515217506,6692,5,-0.043701171875,-1.00982666015625,0.13446044921875
1759327431682,515217506,6692,6,-0.046630859375,-1.01251220703125,0.13250732421875
1759327431682,515217506,6692,7,-0.0537109375,-1.01837158203125,0.13372802734375
1759327431682,515217506,6692,8,-0.051025390625,-1.01129150390625,0.13372802734375
1759327431682,515217506,6692,9,-0.057373046875,-1.00323486328125,0.13568115234375
1759327431682,515217506,6692,10,-0.065185546875,-1.02398681640625,0.14398193359375
1759327431682,515217506,6692,11,-0.06640625,-1.02130126953125,0.14593505859375
1759327431682,515217506,6692,12,-0.06787109375,-1.01812744140625,0.14788818359375
1759327431682,515217506,6692,13,-0.060791015625,-1.01153564453125,0.15081787109375
1759327431682,515217506,6692,14,-0.064697265625,-1.00665283203125,0.15594482421875
1759327431682,515217506,6692,15,-0.067138671875,-1.00469970703125,0.16351318359375
1759327431682,515217506,6692,16,-0.0712890625,-1.00567626953125,0.16888427734375
1759327431682,515217506,6692,17,-0.0966796875,-0.99981689453125,0.16790771484375
1759327431682,515217506,6692,18,-0.0771484375,-1.00225830078125,0.16644287109375
1759327431682,515217506,6692,19,-0.0634765625,-1.01348876953125,0.17572021484375
1759327431682,515217506,6692,20,-0.058837890625,-1.01055908203125,0.16497802734375
1759327431682,515217506,6692,21,-0.0634765625,-1.00421142578125,0.17498779296875
1759327431682,515217506,6692,22,-0.055419921875,-1.01275634765625,0.16766357421875
1759327431682,515217506,6692,23,-0.066650390625,-1.00469970703125,0.15887451171875
1759327431682,515217506,6692,24,-0.03955078125,-1.01275634765625,0.15252685546875
1759327431682,515217506,6692,25,-0.0439453125,-1.01007080078125,0.14739990234375
1759327431682,515217506,6692,26,-0.03759765625,-1.01934814453125,0.14520263671875
1759327431682,515217506,6692,27,-0.043701171875,-1.01861572265625,0.14080810546875
1759327431682,515217506,6692,28,-0.05908203125,-1.00347900390625,0.14813232421875
1759327431682,515217506,6692,29,-0.07958984375,-1.01080322265625,0.13836669921875
1759327431682,515217506,6692,30,-0.0537109375,-1.02252197265625,0.11761474609375
1759327431682,515217506,6692,31,-0.063232421875,-1.02178955078125,0.11029052734375
1759327434189,515220043,6693,0,-0.05126953125,-1.01104736328125,0.11859130859375
1759327434189,515220043,6693,1,-0.04296875,-1.02301025390625,0.11639404296875
1759327434189,515220043,6693,2,-0.0390625,-1.03277587890625,0.10955810546875
1759327434189,515220043,6693,3,-0.04248046875,-1.02105712890625,0.11566162109375
1759327434189,515220043,6693,4,-0.03271484375,-1.02227783203125,0.11444091796875
1759327434189,515220043,6693,5,-0.02587890625,-1.02056884765625,0.11761474609375
1759327434189,515220043,6693,6,-0.0302734375,-1.01763916015625,0.12298583984375
1759327434189,515220043,6693,7,-0.038330078125,-1.01422119140625,0.12225341796875
1759327434189,515220043,6693,8,-0.043212890625,-1.01519775390625,0.12542724609375
1759327434189,515220043,6693,9,-0.045166015625,-1.01275634765625,0.12933349609375
1759327434189,515220043,6693,10,-0.042724609375,-1.01715087890625,0.13128662109375
1759327434189,515220043,6693,11,-0.054931640625,-1.00762939453125,0.12054443359375
1759327434189,515220043,6693,12,-0.0546875,-1.01202392578125,0.12908935546875
1759327434189,515220043,6693,13,-0.04833984375,-1.01910400390625,0.12982177734375
1759327434189,515220043,6693,14,-0.0439453125,-1.02276611328125,0.12615966796875
1759327434189,515220043,6693,15,-0.054443359375,-1.01837158203125,0.12420654296875
1759327434189,515220043,6693,16,-0.0537109375,-1.01568603515625,0.12835693359375
1759327434189,515220043,6693,17,-0.05712890625,-1.01373291015625,0.12591552734375
1759327434189,515220043,6693,18,-0.052978515625,-1.01446533203125,0.12615966796875
1759327434189,515220043,6693,19,-0.055908203125,-1.01422119140625,0.13275146484375
1759327434189,515220043,6693,20,-0.05712890625,-1.01373291015625,0.13226318359375
1759327434189,515220043,6693,21,-0.062744140625,-1.01641845703125,0.13031005859375
1759327434189,515220043,6693,22,-0.061279296875,-1.01641845703125,0.13909912109375
1759327434189,515220043,6693,23,-0.057861328125,-1.01251220703125,0.13397216796875
1759327434189,515220043,6693,24,-0.057861328125,-1.01910400390625,0.13519287109375
1759327434189,515220043,6693,25,-0.058837890625,-1.01104736328125,0.13031005859375
1759327434189,515220043,6693,26,-0.05224609375,-1.01641845703125,0.12786865234375
1759327434189,515220043,6693,27,-0.0537109375,-1.01470947265625,0.13153076171875
1759327434189,515220043,6693,28,-0.054443359375,-1.01861572265625,0.12786865234375
1759327434189,515220043,6693,29,-0.05078125,-1.01422119140625,0.11810302734375
1759327434189,515220043,6693,30,-0.06201171875,-1.01544189453125,0.11346435546875
1759327434189,515220043,6693,31,-0.0595703125,-1.02178955078125,0.12908935546875
1759327436918,515222580,6694,0,-0.050537109375,-1.01763916015625,0.11834716796875
1759327436918,515222580,6694,1,-0.063720703125,-1.01666259765625,0.11322021484375
1759327436918,515222580,6694,2,-0.05322265625,-1.02618408203125,0.11737060546875
1759327436918,515222580,6694,3,-0.048828125,-1.01397705078125,0.12103271484375
1759327436918,515222580,6694,4,-0.05615234375,-1.01910400390625,0.11859130859375
1759327436918,515222580,6694,5,-0.06005859375,-1.01983642578125,0.11639404296875
1759327436918,515222580,6694,6,-0.051025390625,-1.01910400390625,0.12322998046875
1759327436918,515222580,6694,7,-0.0380859375,-1.01104736328125,0.13201904296875
1759327436918,515222580,6694,8,-0.0732421875,-1.02374267578125,0.13446044921875
1759327436918,515222580,6694,9,-0.055908203125,-1.02154541015625,0.11810302734375
1759327436918,515222580,6694,10,-0.07177734375,-1.01959228515625,0.12811279296875
1759327436918,515222580,6694,11,-0.052001953125,-1.01495361328125,0.10638427734375
1759327436918,515222580,6694,12,-0.04296875,-1.00860595703125,0.10003662109375
1759327436918,515222580,6694,13,-0.062744140625,-1.01446533203125,0.11785888671875
1759327436918,515222580,6694,14,-0.051513671875,-1.01837158203125,0.11956787109375
1759327436918,515222580,6694,15,-0.05126953125,-1.02569580078125,0.12274169921875
1759327436918,515222580,6694,16,-0.05126953125,-1.02056884765625,0.11859130859375
1759327436918,515222580,6694,17,-0.053466796875,-1.02081298828125,0.12567138671875
1759327436918,515222580,6694,18,-0.05419921875,-1.01202392578125,0.12445068359375
1759327436918,515222580,6694,19,-0.051025390625,-1.01788330078125,0.12762451171875
1759327436918,515222580,6694,20,-0.056640625,-1.01739501953125,0.12664794921875
1759327436918,515222580,6694,21,-0.052734375,-1.01519775390625,0.12591552734375
1759327436918,515222580,6694,22,-0.05126953125,-1.01226806640625,0.12689208984375
1759327436918,515222580,6694,23,-0.06103515625,-1.01593017578125,0.12542724609375
1759327436918,515222580,6694,24,-0.053955078125,-1.01129150390625,0.12542724609375
1759327436918,515222580,6694,25,-0.061279296875,-1.01324462890625,0.12713623046875
1759327436918,515222580,6694,26,-0.059814453125,-1.01641845703125,0.12615966796875
1759327436918,515222580,6694,27,-0.0625,-1.02496337890625,0.12933349609375
1759327436918,515222580,6694,28,-0.06103515625,-1.01446533203125,0.12274169921875
1759327436918,515222580,6694,29,-0.059326171875,-1.01470947265625,0.12152099609375
1759327436918,515222580,6694,30,-0.062255859375,-1.01715087890625,0.12176513671875
1759327436918,515222580,6694,31,-0.05419921875,-1.01885986328125,0.11907958984375
1759327439259,515225117,6695,0,-0.06494140625,-1.01348876953125,0.12420654296875
1759327439259,515225117,6695,1,-0.0517578125,-1.02276611328125,0.12493896484375
1759327439259,515225117,6695,2,-0.064208984375,-1.01666259765625,0.12274169921875
1759327439259,515225117,6695,3,-0.061279296875,-1.01470947265625,0.12689208984375
1759327439259,515225117,6695,4,-0.057373046875,-1.02008056640625,0.12567138671875
1759327439259,515225117,6695,5,-0.060791015625,-1.01544189453125,0.12127685546875
1759327439259,515225117,6695,6,-0.0634765625,-1.01519775390625,0.12591552734375
1759327439259,515225117,6695,7,-0.060302734375,-1.02203369140625,0.12200927734375
1759327439259,515225117,6695,8,-0.061279296875,-1.01129150390625,0.12396240234375
1759327439259,515225117,6695,9,-0.061767578125,-1.02154541015625,0.13055419921875
1759327439259,515225117,6695,10,-0.06494140625,-1.01788330078125,0.12664794921875
1759327439259,515225117,6695,11,-0.056640625,-1.02423095703125,0.13006591796875
1759327439259,515225117,6695,12,-0.070556640625,-1.01202392578125,0.15325927734375
1759327439259,515225117,6695,13,-0.066650390625,-1.01324462890625,0.14227294921875
1759327439259,515225117,6695,14,-0.070556640625,-1.01251220703125,0.14178466796875
1759327439259,515225117,6695,15,-0.06494140625,-1.01104736328125,0.13665771484375
1759327439259,515225117,6695,16,-0.071044921875,-1.00616455078125,0.13836669921875
1759327439259,515225117,6695,17,-0.053466796875,-1.02008056640625,0.12908935546875
1759327439259,515225117,6695,18,-0.06103515625,-1.01788330078125,0.12567138671875
1759327439259,515225117,6695,19,-0.060791015625,-1.01495361328125,0.12786865234375
1759327439259,515225117,6695,20,-0.06298828125,-1.01861572265625,0.12933349609375
1759327439259,515225117,6695,21,-0.05859375,-1.01300048828125,0.13226318359375
1759327439259,515225117,6695,22,-0.060302734375,-1.01715087890625,0.13543701171875
1759327439259,515225117,6695,23,-0.060546875,-1.01495361328125,0.13519287109375
1759327439259,515225117,6695,24,-0.06005859375,-1.01544189453125,0.13446044921875
1759327439259,515225117,6695,25,-0.063232421875,-1.01763916015625,0.13885498046875
1759327439259,515225117,6695,26,-0.06640625,-1.01397705078125,0.13397216796875
1759327439259,515225117,6695,27,-0.072265625,-1.01202392578125,0.14471435546875
1759327439259,515225117,6695,28,-0.06689453125,-1.01715087890625,0.14593505859375
1759327439259,515225117,6695,29,-0.068115234375,-1.00982666015625,0.13763427734375
1759327439259,515225117,6695,30,-0.0703125,-1.00665283203125,0.14129638671875
1759327439259,515225117,6695,31,-0.076171875,-1.01226806640625,0.14666748046875
1759327441794,515227654,6696,0,-0.07177734375,-1.01104736328125,0.14373779296875
1759327441794,515227654,6696,1,-0.079833984375,-1.00860595703125,0.14349365234375
1759327441794,515227654,6696,2,-0.077880859375,-1.01251220703125,0.15008544921875
1759327441794,515227654,6696,3,-0.079345703125,-1.01031494140625,0.14520263671875
1759327441794,515227654,6696,4,-0.083251953125,-1.01495361328125,0.14984130859375
1759327441794,515227654,6696,5,-0.08251953125,-1.01104736328125,0.14886474609375
1759327441794,515227654,6696,6,-0.07763671875,-1.01007080078125,0.14642333984375
1759327441794,515227654,6696,7,-0.08056640625,-1.00982666015625,0.14617919921875
1759327441794,515227654,6696,8,-0.072998046875,-1.00958251953125,0.14471435546875
1759327441794,515227654,6696,9,-0.0810546875,-1.01153564453125,0.14886474609375
1759327441794,515227654,6696,10,-0.07763671875,-1.01031494140625,0.14715576171875
1759327441794,515227654,6696,11,-0.07861328125,-1.01226806640625,0.15130615234375
1759327441794,515227654,6696,12,-0.07763671875,-1.00933837890625,0.14398193359375
1759327441794,515227654,6696,13,-0.079345703125,-1.01080322265625,0.14788818359375
1759327441794,515227654,6696,14,-0.080078125,-1.00885009765625,0.14471435546875
1759327441794,515227654,6696,15,-0.079345703125,-1.01275634765625,0.14666748046875
1759327441794,515227654,6696,16,-0.081787109375,-1.01275634765625,0.14959716796875
1759327441794,515227654,6696,17,-0.078369140625,-1.00860595703125,0.14031982421875
1759327441794,515227654,6696,18,-0.0849609375,-1.01104736328125,0.14764404296875
1759327441794,515227654,6696,19,-0.07666015625,-1.01373291015625,0.14886474609375
1759327441794,515227654,6696,20,-0.084228515625,-1.01104736328125,0.14715576171875
1759327441794,515227654,6696,21,-0.079833984375,-1.01226806640625,0.15228271484375
1759327441794,515227654,6696,22,-0.080810546875,-1.01275634765625,0.14569091796875
1759327441794,515227654,6696,23,-0.082275390625,-1.01251220703125,0.14837646484375
1759327441794,515227654,6696,24,-0.07470703125,-1.02618408203125,0.15057373046875
1759327441794,515227654,6696,25,-0.09130859375,-0.99786376953125,0.17596435546875
1759327441794,515227654,6696,26,-0.104736328125,-1.00079345703125,0.14862060546875
1759327441794,515227654,6696,27,-0.0859375,-1.00250244140625,0.16986083984375
1759327441794,515227654,6696,28,-0.083251953125,-1.00860595703125,0.15203857421875
1759327441794,515227654,6696,29,-0.065673828125,-1.00811767578125,0.16497802734375
1759327441794,515227654,6696,30,-0.086181640625,-0.99761962890625,0.13739013671875
1759327441794,515227654,6696,31,-0.079345703125,-1.02374267578125,0.14984130859375
1759327444330,515230191,6697,0,-0.07470703125,-1.01959228515625,0.13494873046875
1759327444330,515230191,6697,1,-0.072998046875,-1.01446533203125,0.14447021484375
1759327444330,515230191,6697,2,-0.081787109375,-1.00909423828125,0.14837646484375
1759327444330,515230191,6697,3,-0.076171875,-1.00885009765625,0.14569091796875
1759327444330,515230191,6697,4,-0.077392578125,-1.01177978515625,0.14862060546875
1759327444330,515230191,6697,5,-0.086181640625,-1.01202392578125,0.15179443359375
1759327444330,515230191,6697,6,-0.075927734375,-1.01104736328125,0.15032958984375
1759327444330,515230191,6697,7,-0.088134765625,-1.00860595703125,0.14544677734375
1759327444330,515230191,6697,8,-0.077392578125,-1.01593017578125,0.15203857421875
1759327444330,515230191,6697,9,-0.082275390625,-1.01177978515625,0.14739990234375
1759327444330,515230191,6697,10,-0.080322265625,-1.01104736328125,0.14813232421875
1759327444330,515230191,6697,11,-0.082763671875,-1.01007080078125,0.15350341796875
1759327444330,515230191,6697,12,-0.08349609375,-1.00982666015625,0.14837646484375
1759327444330,515230191,6697,13,-0.081787109375,-1.01226806640625,0.15130615234375
1759327444330,515230191,6697,14,-0.089111328125,-1.00909423828125,0.15252685546875
1759327444330,515230191,6697,15,-0.081298828125,-1.00689697265625,0.15203857421875
1759327444330,515230191,6697,16,-0.0888671875,-1.01080322265625,0.15350341796875
1759327444330,515230191,6697,17,-0.08642578125,-1.01031494140625,0.15447998046875
1759327444330,515230191,6697,18,-0.08056640625,-1.01080322265625,0.15325927734375
1759327444330,515230191,6697,19,-0.0849609375,-1.01031494140625,0.15106201171875
1759327444330,515230191,6697,20,-0.081787109375,-1.00860595703125,0.15130615234375
1759327444330,515230191,6697,21,-0.086669921875,-1.00396728515625,0.14813232421875
1759327444330,515230191,6697,22,-0.093017578125,-1.01690673828125,0.16107177734375
1759327444330,515230191,6697,23,-0.090576171875,-1.00982666015625,0.14739990234375
1759327444330,515230191,6697,24,-0.079345703125,-1.00738525390625,0.14813232421875
1759327444330,515230191,6697,25,-0.089599609375,-1.01055908203125,0.15570068359375
1759327444330,515230191,6697,26,-0.08203125,-1.01129150390625,0.14251708984375
1759327444330,515230191,6697,27,-0.08740234375,-1.01373291015625,0.15032958984375
1759327444330,515230191,6697,28,-0.08935546875,-1.01104736328125,0.15130615234375
1759327444330,515230191,6697,29,-0.085693359375,-1.00762939453125,0.14324951171875
1759327444330,515230191,6697,30,-0.087646484375,-1.00860595703125,0.15008544921875
1759327444330,515230191,6697,31,-0.08642578125,-1.01422119140625,0.15032958984375
1759327446857,515232728,6698,0,-0.088134765625,-1.01104736328125,0.14349365234375
1759327446857,515232728,6698,1,-0.086669921875,-1.01055908203125,0.14813232421875
1759327446857,515232728,6698,2,-0.090087890625,-1.01446533203125,0.14544677734375
1759327446857,515232728,6698,3,-0.087890625,-1.01666259765625,0.13909912109375
1759327446857,515232728,6698,4,-0.09033203125,-1.01300048828125,0.14739990234375
1759327446857,515232728,6698,5,-0.080078125,-1.01275634765625,0.14080810546875
1759327446857,515232728,6698,6,-0.09130859375,-1.00860595703125,0.13836669921875
1759327446857,515232728,6698,7,-0.084716796875,-1.00885009765625,0.14129638671875
1759327446857,515232728,6698,8,-0.0849609375,-1.01934814453125,0.14154052734375
1759327446857,515232728,6698,9,-0.093994140625,-1.00958251953125,0.13592529296875
1759327446857,515232728,6698,10,-0.0908203125,-1.01593017578125,0.13299560546875
1759327446857,515232728,6698,11,-0.093994140625,-1.01690673828125,0.13275146484375
1759327446857,515232728,6698,12,-0.090087890625,-1.00396728515625,0.13104248046875
1759327446857,515232728,6698,13,-0.086181640625,-1.02496337890625,0.13665771484375
1759327446857,515232728,6698,14,-0.109619140625,-1.00811767578125,0.13543701171875
1759327446857,515232728,6698,15,-0.095703125,-1.01104736328125,0.13616943359375
1759327446857,515232728,6698,16,-0.0888671875,-1.01959228515625,0.13934326171875
1759327446857,515232728,6698,17,-0.099853515625,-1.00445556640625,0.14569091796875
1759327446857,515232728,6698,18,-0.0869140625,-1.01177978515625,0.13616943359375
1759327446857,515232728,6698,19,-0.099853515625,-1.00811767578125,0.14569091796875
1759327446857,515232728,6698,20,-0.08544921875,-1.01715087890625,0.14862060546875
1759327446857,515232728,6698,21,-0.088623046875,-1.01153564453125,0.13470458984375
1759327446857,515232728,6698,22,-0.083984375,-1.01568603515625,0.14642333984375
1759327446857,515232728,6698,23,-0.08642578125,-1.00421142578125,0.14935302734375
1759327446857,515232728,6698,24,-0.086181640625,-1.01153564453125,0.15130615234375
1759327446857,515232728,6698,25,-0.09033203125,-1.00640869140625,0.14739990234375
1759327446857,515232728,6698,26,-0.085205078125,-1.01129150390625,0.14886474609375
1759327446857,515232728,6698,27,-0.0888671875,-1.00445556640625,0.14593505859375
1759327446857,515232728,6698,28,-0.0927734375,-1.01519775390625,0.15521240234375
1759327446857,515232728,6698,29,-0.088134765625,-1.00933837890625,0.14276123046875
1759327446857,515232728,6698,30,-0.090087890625,-1.01251220703125,0.14593505859375
1759327446857,515232728,6698,31,-0.094482421875,-1.01226806640625,0.15252685546875
1759327449400,515235265,6699,0,-0.090087890625,-1.01055908203125,0.14617919921875
1759327449400,515235265,6699,1,-0.0966796875,-1.01104736328125,0.15008544921875
1759327449400,515235265,6699,2,-0.089599609375,-1.00518798828125,0.15325927734375
1759327449400,515235265,6699,3,-0.089599609375,-1.01397705078125,0.14666748046875
1759327449400,515235265,6699,4,-0.087646484375,-1.01373291015625,0.14984130859375
1759327449400,515235265,6699,5,-0.0927734375,-1.00885009765625,0.14862060546875
1759327449400,515235265,6699,6,-0.08740234375,-1.01593017578125,0.14715576171875
1759327449400,515235265,6699,7,-0.088134765625,-1.00885009765625,0.14300537109375
1759327449400,515235265,6699,8,-0.087646484375,-1.01055908203125,0.14544677734375
1759327449400,515235265,6699,9,-0.084716796875,-1.01397705078125,0.14105224609375
1759327449400,515235265,6699,10,-0.09375,-1.01324462890625,0.14324951171875
