receivedPhoneTimestamp,respeckTimestamp,packetSeqNum,sampleSeqNum,accelX,accelY,accelZ
1688354808659,846916352,5765,4,0.042724609375,-0.27740478515625,-0.97296142578125
1688354808659,846916352,5765,5,0.037841796875,-0.24566650390625,-1.01226806640625
1688354808659,846916352,5765,6,0.040771484375,-0.29083251953125,-0.97393798828125
1688354808659,846916352,5765,7,0.040771484375,-0.27862548828125,-0.99127197265625
1688354808659,846916352,5765,8,0.05078125,-0.29425048828125,-1.00689697265625
1688354808659,846916352,5765,9,0.03271484375,-0.32379150390625,-0.94635009765625
1688354808659,846916352,5765,10,0.04541015625,-0.29107666015625,-1.02032470703125
1688354808659,846916352,5765,11,0.03759765625,-0.39337158203125,-0.91094970703125
1688354808659,846916352,5765,12,0.0419921875,-0.35162353515625,-0.98052978515625
1688354808659,846916352,5765,13,0.04541015625,-0.35357666015625,-0.96783447265625
1688354808659,846916352,5765,14,0.050048828125,-0.37701416015625,-0.93927001953125
1688354808659,846916352,5765,15,0.046142578125,-0.34942626953125,-0.97613525390625
1688354808659,846916352,5765,16,0.048095703125,-0.35333251953125,-0.96392822265625
1688354808659,846916352,5765,17,0.048828125,-0.36163330078125,-0.95025634765625
1688354808659,846916352,5765,18,0.045166015625,-0.33477783203125,-0.97296142578125
1688354808659,846916352,5765,19,0.04443359375,-0.31549072265625,-0.97369384765625
1688354808659,846916352,5765,20,0.024169921875,-0.26885986328125,-0.94293212890625
1688354808659,846916352,5765,21,0.037353515625,-0.14654541015625,-1.03594970703125
1688354808659,846916352,5765,22,0.024169921875,-0.08648681640625,-1.02886962890625
1688354808659,846916352,5765,23,0.015625,-0.08184814453125,-1.02838134765625
1688354808659,846916352,5765,24,0.02490234375,-0.10040283203125,-1.04058837890625
1688354808659,846916352,5765,25,0.04052734375,-0.21099853515625,-0.95855712890625
1688354808659,846916352,5765,26,0.035400390625,-0.15338134765625,-1.03814697265625
1688354808659,846916352,5765,27,0.041259765625,-0.19952392578125,-0.98052978515625
1688354808659,846916352,5765,28,0.03759765625,-0.16485595703125,-1.01739501953125
1688354808659,846916352,5765,29,0.031982421875,-0.15704345703125,-1.00469970703125
1688354808659,846916352,5765,30,0.022705078125,-0.11944580078125,-1.00592041015625
1688354808659,846916352,5765,31,0.01220703125,-0.04840087890625,-1.03424072265625
1688354811584,846918931,5766,0,0.0126953125,-0.04595947265625,-1.02789306640625
1688354811584,846918931,5766,1,0.0087890625,-0.04815673828125,-1.02325439453125
1688354811584,846918931,5766,2,0.005615234375,-0.04571533203125,-1.02618408203125
1688354811584,846918931,5766,3,0.015869140625,-0.05084228515625,-1.03179931640625
1688354811584,846918931,5766,4,0.02685546875,-0.11187744140625,-0.99810791015625
1688354811584,846918931,5766,5,0.028564453125,-0.10455322265625,-1.03253173828125
1688354811584,846918931,5766,6,0.0234375,-0.13677978515625,-0.99566650390625
1688354811584,846918931,5766,7,0.0263671875,-0.10992431640625,-1.03302001953125
1688354811584,846918931,5766,8,0.031494140625,-0.14166259765625,-0.99713134765625
1688354811584,846918931,5766,9,0.02587890625,-0.13262939453125,-1.02764892578125
1688354811584,846918931,5766,10,0.023193359375,-0.16241455078125,-0.99884033203125
1688354811584,846918931,5766,11,0.023193359375,-0.12945556640625,-1.03326416015625
1688354811584,846918931,5766,12,0.0263671875,-0.14508056640625,-1.01617431640625
1688354811584,846918931,5766,13,0.03076171875,-0.15606689453125,-1.01226806640625
1688354811584,846918931,5766,14,0.032958984375,-0.15289306640625,-1.01959228515625
1688354811584,846918931,5766,15,0.035888671875,-0.17388916015625,-1.00201416015625
1688354811584,846918931,5766,16,0.031494140625,-0.15411376953125,-1.02716064453125
1688354811584,846918931,5766,17,0.034423828125,-0.17877197265625,-0.99859619140625
1688354811584,846918931,5766,18,0.02880859375,-0.16290283203125,-1.02520751953125
1688354811584,846918931,5766,19,0.032958984375,-0.19122314453125,-0.99908447265625
1688354811584,846918931,5766,20,0.030517578125,-0.19097900390625,-1.01055908203125
1688354811584,846918931,5766,21,0.0361328125,-0.19732666015625,-1.00274658203125
1688354811584,846918931,5766,22,0.03466796875,-0.19610595703125,-0.99151611328125
1688354811584,846918931,5766,23,0.02392578125,-0.13970947265625,-1.00299072265625
1688354811584,846918931,5766,24,0.0146484375,-0.04888916015625,-1.04669189453125
1688354811584,846918931,5766,25,0.009521484375,-0.04888916015625,-1.02569580078125
1688354811584,846918931,5766,26,0.0068359375,-0.04498291015625,-1.02862548828125
1688354811584,846918931,5766,27,0.013671875,-0.04669189453125,-1.03619384765625
1688354811584,846918931,5766,28,0.01611328125,-0.08062744140625,-1.02545166015625
1688354811584,846918931,5766,29,0.019287109375,-0.09918212890625,-1.01470947265625
1688354811584,846918931,5766,30,0.01708984375,-0.11041259765625,-1.01275634765625
1688354811584,846918931,5766,31,0.0283203125,-0.11944580078125,-1.02154541015625
1688354813924,846921510,5767,0,0.030029296875,-0.14312744140625,-1.01397705078125
1688354813924,846921510,5767,1,0.030029296875,-0.13116455078125,-1.03546142578125
1688354813924,846921510,5767,2,0.0322265625,-0.15899658203125,-1.00128173828125
1688354813924,846921510,5767,3,0.034912109375,-0.15460205078125,-1.02398681640625
1688354813924,846921510,5767,4,0.02978515625,-0.17340087890625,-1.00250244140625
1688354813924,846921510,5767,5,0.03173828125,-0.17779541015625,-1.00885009765625
1688354813924,846921510,5767,6,0.02978515625,-0.17218017578125,-1.01934814453125
1688354813924,846921510,5767,7,0.03466796875,-0.19097900390625,-0.99786376953125
1688354813924,846921510,5767,8,0.032958984375,-0.17828369140625,-1.01763916015625
1688354813924,846921510,5767,9,0.0361328125,-0.19000244140625,-1.00323486328125
1688354813924,846921510,5767,10,0.033203125,-0.18365478515625,-1.01422119140625
1688354813924,846921510,5767,11,0.035400390625,-0.18804931640625,-1.00567626953125
1688354813924,846921510,5767,12,0.035400390625,-0.19317626953125,-1.00274658203125
1688354813924,846921510,5767,13,0.03369140625,-0.18536376953125,-1.00518798828125
1688354813924,846921510,5767,14,0.025390625,-0.17144775390625,-0.98687744140625
1688354813924,846921510,5767,15,0.017578125,-0.06939697265625,-1.04083251953125
1688354813924,846921510,5767,16,0.014892578125,-0.04595947265625,-1.02667236328125
1688354813924,846921510,5767,17,0.009521484375,-0.04473876953125,-1.02276611328125
1688354813924,846921510,5767,18,0.012451171875,-0.03839111328125,-1.03472900390625
1688354813924,846921510,5767,19,0.0244140625,-0.06622314453125,-1.03472900390625
1688354813924,846921510,5767,20,0.031494140625,-0.12750244140625,-0.99420166015625
1688354813924,846921510,5767,21,0.034423828125,-0.13311767578125,-1.02325439453125
1688354813924,846921510,5767,22,0.02294921875,-0.13946533203125,-1.00079345703125
1688354813924,846921510,5767,23,0.027587890625,-0.11920166015625,-1.03692626953125
1688354813924,846921510,5767,24,0.029052734375,-0.15313720703125,-1.00518798828125
1688354813924,846921510,5767,25,0.0224609375,-0.13677978515625,-1.02545166015625
1688354813924,846921510,5767,26,0.0322265625,-0.15875244140625,-1.00665283203125
1688354813924,846921510,5767,27,0.0302734375,-0.16363525390625,-1.01031494140625
1688354813924,846921510,5767,28,0.0263671875,-0.14923095703125,-1.02423095703125
1688354813924,846921510,5767,29,0.02880859375,-0.18682861328125,-0.99420166015625
1688354813924,846921510,5767,30,0.033203125,-0.17413330078125,-1.01763916015625
1688354813924,846921510,5767,31,0.03271484375,-0.17657470703125,-1.01031494140625
1688354816459,846924089,5768,0,0.0341796875,-0.17510986328125,-1.01177978515625
1688354816459,846924089,5768,1,0.027099609375,-0.16925048828125,-1.02349853515625
1688354816459,846924089,5768,2,0.03564453125,-0.19854736328125,-0.99468994140625
1688354816459,846924089,5768,3,0.031005859375,-0.18487548828125,-1.01129150390625
1688354816459,846924089,5768,4,0.0322265625,-0.18487548828125,-1.00567626953125
1688354816459,846924089,5768,5,0.032470703125,-0.17926025390625,-1.00958251953125
1688354816459,846924089,5768,6,0.03125,-0.17633056640625,-1.01593017578125
1688354816459,846924089,5768,7,0.03076171875,-0.18487548828125,-1.00421142578125
1688354816459,846924089,5768,8,0.028564453125,-0.17901611328125,-1.01300048828125
1688354816459,846924089,5768,9,0.03173828125,-0.18731689453125,-1.00006103515625
1688354816459,846924089,5768,10,0.027587890625,-0.18194580078125,-1.01641845703125
1688354816459,846924089,5768,11,0.028564453125,-0.17926025390625,-1.01446533203125
1688354816459,846924089,5768,12,0.029541015625,-0.18023681640625,-1.00518798828125
1688354816459,846924089,5768,13,0.02685546875,-0.15118408203125,-0.99517822265625
1688354816459,846924089,5768,14,0.018310546875,-0.06817626953125,-1.04327392578125
1688354816459,846924089,5768,15,0.010986328125,-0.05059814453125,-1.02471923828125
1688354816459,846924089,5768,16,0.01806640625,-0.05279541015625,-1.02667236328125
1688354816459,846924089,5768,17,0.0234375,-0.07916259765625,-1.00689697265625
1688354816459,846924089,5768,18,0.027587890625,-0.09014892578125,-1.02593994140625
1688354816459,846924089,5768,19,0.031982421875,-0.12774658203125,-0.99957275390625
1688354816459,846924089,5768,20,0.025146484375,-0.09820556640625,-1.03692626953125
1688354816459,846924089,5768,21,0.03271484375,-0.12408447265625,-1.00299072265625
1688354816459,846924089,5768,22,0.0224609375,-0.10723876953125,-1.02813720703125
1688354816459,846924089,5768,23,0.02392578125,-0.10601806640625,-1.03936767578125
1688354816459,846924089,5768,24,0.0322265625,-0.17730712890625,-0.99005126953125
1688354816459,846924089,5768,25,0.03466796875,-0.15240478515625,-1.05987548828125
1688354816459,846924089,5768,26,0.041259765625,-0.31671142578125,-0.91656494140625
1688354816459,846924089,5768,27,0.002685546875,-0.26226806640625,-1.01812744140625
1688354816459,846924089,5768,28,0.043701171875,-0.32965087890625,-0.93170166015625
1688354816459,846924089,5768,29,0.039306640625,-0.25738525390625,-1.02593994140625
1688354816459,846924089,5768,30,0.040283203125,-0.29742431640625,-0.95977783203125
1688354816459,846924089,5768,31,0.036376953125,-0.24420166015625,-1.01446533203125
1688354818993,846926669,5769,0,0.040283203125,-0.25885009765625,-0.98345947265625
1688354818993,846926669,5769,1,0.038330078125,-0.23760986328125,-1.00177001953125
1688354818993,846926669,5769,2,0.03759765625,-0.23980712890625,-0.99664306640625
1688354818993,846926669,5769,3,0.038330078125,-0.24591064453125,-0.99053955078125
1688354818993,846926669,5769,4,0.038818359375,-0.23321533203125,-0.99542236328125
1688354818993,846926669,5769,5,0.039306640625,-0.24981689453125,-1.00006103515625
1688354818993,846926669,5769,6,0.038818359375,-0.26593017578125,-0.99737548828125
1688354818993,846926669,5769,7,0.03369140625,-0.30792236328125,-0.96759033203125
1688354818993,846926669,5769,8,0.0390625,-0.29620361328125,-0.98590087890625
1688354818993,846926669,5769,9,0.033447265625,-0.29473876953125,-0.98516845703125
1688354818993,846926669,5769,10,0.0380859375,-0.29888916015625,-0.96954345703125
1688354818993,846926669,5769,11,0.029541015625,-0.27691650390625,-1.00006103515625
1688354818993,846926669,5769,12,0.034912109375,-0.30108642578125,-0.96807861328125
1688354818993,846926669,5769,13,0.03173828125,-0.26251220703125,-1.01422119140625
1688354818993,846926669,5769,14,0.0361328125,-0.30889892578125,-0.96490478515625
1688354818993,846926669,5769,15,0.03466796875,-0.30035400390625,-0.96734619140625
1688354818993,846926669,5769,16,0.0390625,-0.22320556640625,-0.97564697265625
1688354818993,846926669,5769,17,0.019775390625,-0.06817626953125,-1.05279541015625
1688354818993,846926669,5769,18,0.016357421875,-0.06036376953125,-1.03619384765625
1688354818993,846926669,5769,19,0.02197265625,-0.06182861328125,-1.04083251953125
1688354818993,846926669,5769,20,0.029541015625,-0.13458251953125,-0.98809814453125
1688354818993,846926669,5769,21,0.025146484375,-0.09552001953125,-1.04962158203125
1688354818993,846926669,5769,22,0.0341796875,-0.17169189453125,-0.98199462890625
1688354818993,846926669,5769,23,0.033935546875,-0.12554931640625,-1.04693603515625
1688354818993,846926669,5769,24,0.033447265625,-0.20782470703125,-0.96954345703125
1688354818993,846926669,5769,25,0.027099609375,-0.16192626953125,-1.03741455078125
1688354818993,846926669,5769,26,0.036865234375,-0.20269775390625,-0.98345947265625
1688354818993,846926669,5769,27,0.0361328125,-0.16949462890625,-1.02471923828125
1688354818993,846926669,5769,28,0.035400390625,-0.18731689453125,-1.00347900390625
1688354818993,846926669,5769,29,0.033935546875,-0.18536376953125,-1.00836181640625
1688354818993,846926669,5769,30,0.02978515625,-0.17144775390625,-1.02545166015625
1688354818993,846926669,5769,31,0.033935546875,-0.19415283203125,-0.99468994140625
1688354822108,846929248,5770,0,0.03076171875,-0.16851806640625,-1.02447509765625
1688354822108,846929248,5770,1,0.031005859375,-0.18853759765625,-0.99395751953125
1688354822108,846929248,5770,2,0.023681640625,-0.14776611328125,-1.02886962890625
1688354822108,846929248,5770,3,0.02734375,-0.15972900390625,-1.00469970703125
1688354822108,846929248,5770,4,0.02490234375,-0.14801025390625,-1.01788330078125
1688354822108,846929248,5770,5,0.0234375,-0.14654541015625,-1.02178955078125
1688354822108,846929248,5770,6,0.028076171875,-0.16070556640625,-1.00640869140625
1688354822108,846929248,5770,7,0.024658203125,-0.14752197265625,-1.02252197265625
1688354822108,846929248,5770,8,0.02734375,-0.15899658203125,-1.00982666015625
1688354822108,846929248,5770,9,0.023193359375,-0.14703369140625,-1.02203369140625
1688354822108,846929248,5770,10,0.0244140625,-0.15557861328125,-1.00494384765625
1688354822108,846929248,5770,11,0.025146484375,-0.10235595703125,-1.02154541015625
1688354822108,846929248,5770,12,0.022216796875,-0.05450439453125,-1.03399658203125
1688354822108,846929248,5770,13,0.015380859375,-0.05230712890625,-1.02252197265625
1688354822108,846929248,5770,14,0.01318359375,-0.04766845703125,-1.02569580078125
1688354822108,846929248,5770,15,0.01806640625,-0.06427001953125,-1.02447509765625
1688354822108,846929248,5770,16,0.018798828125,-0.06988525390625,-1.03082275390625
1688354822108,846929248,5770,17,0.031982421875,-0.12359619140625,-1.00885009765625
1688354822108,846929248,5770,18,0.026123046875,-0.09307861328125,-1.02911376953125
1688354822108,846929248,5770,19,0.0263671875,-0.11138916015625,-1.01055908203125
1688354822108,846929248,5770,20,0.022216796875,-0.10479736328125,-1.02984619140625
1688354822108,846929248,5770,21,0.03076171875,-0.11187744140625,-1.02301025390625
1688354822108,846929248,5770,22,0.031494140625,-0.14263916015625,-1.00640869140625
1688354822108,846929248,5770,23,0.03271484375,-0.14312744140625,-1.02545166015625
1688354822108,846929248,5770,24,0.033935546875,-0.16925048828125,-1.00103759765625
1688354822108,846929248,5770,25,0.032470703125,-0.15460205078125,-1.01812744140625
1688354822108,846929248,5770,26,0.03662109375,-0.16998291015625,-1.00885009765625
1688354822108,846929248,5770,27,0.034423828125,-0.17462158203125,-1.01177978515625
1688354822108,846929248,5770,28,0.033935546875,-0.18170166015625,-1.00225830078125
1688354822108,846929248,5770,29,0.03759765625,-0.17022705078125,-1.01031494140625
1688354822108,846929248,5770,30,0.029541015625,-0.14117431640625,-0.99835205078125
1688354822108,846929248,5770,31,0.01416015625,-0.04791259765625,-1.04669189453125
1688354824258,846931827,5771,0,0.009033203125,-0.04278564453125,-1.02862548828125
1688354824258,846931827,5771,1,0.006591796875,-0.04058837890625,-1.02862548828125
1688354824258,846931827,5771,2,0.0068359375,-0.03277587890625,-1.01959228515625
1688354824258,846931827,5771,3,0.012451171875,-0.07769775390625,-1.01910400390625
1688354824258,846931827,5771,4,0.0224609375,-0.09649658203125,-1.01031494140625
1688354824258,846931827,5771,5,0.01416015625,-0.06524658203125,-1.03961181640625
1688354824258,846931827,5771,6,0.0234375,-0.10235595703125,-1.01593017578125
1688354824258,846931827,5771,7,0.0185546875,-0.11236572265625,-1.01861572265625
1688354824258,846931827,5771,8,0.02734375,-0.11627197265625,-1.02252197265625
1688354824258,846931827,5771,9,0.0341796875,-0.14874267578125,-1.00885009765625
1688354824258,846931827,5771,10,0.025634765625,-0.12628173828125,-1.02667236328125
1688354824258,846931827,5771,11,0.027587890625,-0.14752197265625,-1.00567626953125
1688354824258,846931827,5771,12,0.025146484375,-0.13433837890625,-1.02398681640625
1688354824258,846931827,5771,13,0.026611328125,-0.13604736328125,-1.02838134765625
1688354824258,846931827,5771,14,0.03173828125,-0.17047119140625,-0.99932861328125
1688354824258,846931827,5771,15,0.030029296875,-0.15240478515625,-1.02545166015625
1688354824258,846931827,5771,16,0.03173828125,-0.17974853515625,-1.00177001953125
1688354824258,846931827,5771,17,0.033447265625,-0.17437744140625,-1.01153564453125
1688354824258,846931827,5771,18,0.02685546875,-0.17559814453125,-1.01422119140625
1688354824258,846931827,5771,19,0.031494140625,-0.17559814453125,-1.00762939453125
1688354824258,846931827,5771,20,0.027099609375,-0.16851806640625,-1.01617431640625
1688354824258,846931827,5771,21,0.02685546875,-0.17559814453125,-1.00665283203125
1688354824258,846931827,5771,22,0.02587890625,-0.16241455078125,-1.01885986328125
1688354824258,846931827,5771,23,0.02880859375,-0.17266845703125,-1.00494384765625
1688354824258,846931827,5771,24,0.02587890625,-0.16119384765625,-1.01007080078125
1688354824258,846931827,5771,25,0.021484375,-0.12261962890625,-1.00640869140625
1688354824258,846931827,5771,26,0.009033203125,-0.04986572265625,-1.04376220703125
1688354824258,846931827,5771,27,0.01025390625,-0.04498291015625,-1.02496337890625
1688354824258,846931827,5771,28,0.009765625,-0.04522705078125,-1.02642822265625
1688354824258,846931827,5771,29,0.019775390625,-0.06011962890625,-1.01470947265625
1688354824258,846931827,5771,30,0.021240234375,-0.09283447265625,-1.01495361328125
1688354824258,846931827,5771,31,0.020751953125,-0.10797119140625,-1.01617431640625
1688354826987,846934406,5772,0,0.01806640625,-0.09014892578125,-1.03204345703125
1688354826987,846934406,5772,1,0.0234375,-0.11285400390625,-1.00567626953125
1688354826987,846934406,5772,2,0.015380859375,-0.09478759765625,-1.03302001953125
1688354826987,846934406,5772,3,0.025390625,-0.12091064453125,-1.00665283203125
1688354826987,846934406,5772,4,0.020263671875,-0.11920166015625,-1.02520751953125
1688354826987,846934406,5772,5,0.021240234375,-0.10748291015625,-1.02471923828125
1688354826987,846934406,5772,6,0.0263671875,-0.11041259765625,-1.01324462890625
1688354826987,846934406,5772,7,0.0234375,-0.10504150390625,-1.02276611328125
1688354826987,846934406,5772,8,0.019775390625,-0.09161376953125,-1.01300048828125
1688354826987,846934406,5772,9,0.006591796875,-0.04327392578125,-1.03424072265625
1688354826987,846934406,5772,10,0.004638671875,-0.03936767578125,-1.02691650390625
1688354826987,846934406,5772,11,0.002197265625,-0.04107666015625,-1.02716064453125
1688354826987,846934406,5772,12,0.010986328125,-0.03375244140625,-1.03448486328125
1688354826987,846934406,5772,13,0.01416015625,-0.06427001953125,-1.03472900390625
1688354826987,846934406,5772,14,0.013916015625,-0.06500244140625,-1.01959228515625
1688354826987,846934406,5772,15,0.021484375,-0.08966064453125,-1.01983642578125
1688354826987,846934406,5772,16,0.024658203125,-0.08917236328125,-1.01959228515625
1688354826987,846934406,5772,17,0.02734375,-0.10284423828125,-1.01275634765625
1688354826987,846934406,5772,18,0.02099609375,-0.09039306640625,-1.02032470703125
1688354826987,846934406,5772,19,0.016845703125,-0.08428955078125,-1.02716064453125
1688354826987,846934406,5772,20,0.019775390625,-0.08135986328125,-1.02642822265625
1688354826987,846934406,5772,21,0.021484375,-0.09014892578125,-1.01837158203125
1688354826987,846934406,5772,22,0.01318359375,-0.07672119140625,-1.02374267578125
1688354826987,846934406,5772,23,0.016845703125,-0.08477783203125,-1.02154541015625
1688354826987,846934406,5772,24,0.0166015625,-0.09454345703125,-1.01422119140625
1688354826987,846934406,5772,25,0.018310546875,-0.08624267578125,-1.02569580078125
1688354826987,846934406,5772,26,0.0185546875,-0.09332275390625,-1.01788330078125
1688354826987,846934406,5772,27,0.015625,-0.08990478515625,-1.02496337890625
1688354826987,846934406,5772,28,0.0205078125,-0.09796142578125,-1.02154541015625
1688354826987,846934406,5772,29,0.019775390625,-0.10333251953125,-1.01763916015625
1688354826987,846934406,5772,30,0.018310546875,-0.09454345703125,-1.02593994140625
1688354826987,846934406,5772,31,0.02099609375,-0.10552978515625,-1.01617431640625
1688354829329,846936985,5773,0,0.020263671875,-0.09991455078125,-1.02276611328125
1688354829329,846936985,5773,1,0.02099609375,-0.10626220703125,-1.01910400390625
1688354829329,846936985,5773,2,0.01953125,-0.10040283203125,-1.02398681640625
1688354829329,846936985,5773,3,0.019287109375,-0.10479736328125,-1.02032470703125
1688354829329,846936985,5773,4,0.01611328125,-0.09503173828125,-1.01959228515625
1688354829329,846936985,5773,5,0.01416015625,-0.07598876953125,-1.02227783203125
1688354829329,846936985,5773,6,0.003173828125,-0.04107666015625,-1.03399658203125
1688354829329,846936985,5773,7,0.001220703125,-0.04083251953125,-1.03009033203125
1688354829329,846936985,5773,8,0.006591796875,-0.04278564453125,-1.02325439453125
1688354829329,846936985,5773,9,0.0146484375,-0.05474853515625,-1.02447509765625
1688354829329,846936985,5773,10,0.0166015625,-0.07794189453125,-1.02056884765625
1688354829329,846936985,5773,11,0.012451171875,-0.08135986328125,-1.02911376953125
1688354829329,846936985,5773,12,0.021484375,-0.08404541015625,-1.02301025390625
1688354829329,846936985,5773,13,0.019287109375,-0.08624267578125,-1.02227783203125
1688354829329,846936985,5773,14,0.0185546875,-0.08868408203125,-1.02301025390625
1688354829329,846936985,5773,15,0.018310546875,-0.08697509765625,-1.01861572265625
1688354829329,846936985,5773,16,0.023681640625,-0.08209228515625,-1.02471923828125
1688354829329,846936985,5773,17,0.01904296875,-0.08453369140625,-1.02227783203125
1688354829329,846936985,5773,18,0.021484375,-0.08380126953125,-1.02935791015625
1688354829329,846936985,5773,19,0.017333984375,-0.08624267578125,-1.02252197265625
1688354829329,846936985,5773,20,0.0166015625,-0.08843994140625,-1.02471923828125
1688354829329,846936985,5773,21,0.016357421875,-0.08868408203125,-1.02374267578125
1688354829329,846936985,5773,22,0.019287109375,-0.09844970703125,-1.01837158203125
1688354829329,846936985,5773,23,0.02099609375,-0.09063720703125,-1.02349853515625
1688354829329,846936985,5773,24,0.0185546875,-0.09893798828125,-1.01861572265625
1688354829329,846936985,5773,25,0.0166015625,-0.08892822265625,-1.01861572265625
1688354829329,846936985,5773,26,0.008544921875,-0.06036376953125,-1.02764892578125
1688354829329,846936985,5773,27,0.00146484375,-0.04425048828125,-1.03643798828125
1688354829329,846936985,5773,28,0.00390625,-0.04522705078125,-1.02716064453125
1688354829329,846936985,5773,29,0.012939453125,-0.04376220703125,-1.04425048828125
1688354829329,846936985,5773,30,0.017822265625,-0.10943603515625,-0.99566650390625
1688354829329,846936985,5773,31,0.010009765625,-0.08721923828125,-1.05230712890625
1688354832059,846939564,5774,0,0.024169921875,-0.16900634765625,-0.97833251953125
1688354832059,846939564,5774,1,0.025390625,-0.11383056640625,-1.03472900390625
1688354832059,846939564,5774,2,0.024169921875,-0.16192626953125,-1.00079345703125
1688354832059,846939564,5774,3,0.0185546875,-0.15313720703125,-1.01055908203125
1688354832059,846939564,5774,4,0.0205078125,-0.13702392578125,-1.02886962890625
1688354832059,846939564,5774,5,0.023681640625,-0.14947509765625,-1.00689697265625
1688354832059,846939564,5774,6,0.01806640625,-0.11651611328125,-1.02740478515625
1688354832059,846939564,5774,7,0.018798828125,-0.13214111328125,-1.01177978515625
1688354832059,846939564,5774,8,0.017578125,-0.11920166015625,-1.02471923828125
1688354832059,846939564,5774,9,0.0224609375,-0.13775634765625,-1.01373291015625
1688354832059,846939564,5774,10,0.019775390625,-0.12921142578125,-1.02569580078125
1688354832059,846939564,5774,11,0.02392578125,-0.15777587890625,-1.01617431640625
1688354832059,846939564,5774,12,0.027587890625,-0.19659423828125,-0.99908447265625
1688354832059,846939564,5774,13,0.017578125,-0.21148681640625,-1.01129150390625
1688354832059,846939564,5774,14,0.029296875,-0.22979736328125,-0.97955322265625
1688354832059,846939564,5774,15,0.02197265625,-0.19976806640625,-1.02667236328125
1688354832059,846939564,5774,16,0.029052734375,-0.23760986328125,-0.98004150390625
1688354832059,846939564,5774,17,0.021484375,-0.19805908203125,-1.03057861328125
1688354832059,846939564,5774,18,0.028076171875,-0.25079345703125,-0.96588134765625
1688354832059,846939564,5774,19,0.021240234375,-0.17486572265625,-0.99810791015625
1688354832059,846939564,5774,20,0.0185546875,-0.06451416015625,-1.04180908203125
1688354832059,846939564,5774,21,0.010498046875,-0.04791259765625,-1.02056884765625
1688354832059,846939564,5774,22,0.005615234375,-0.05133056640625,-1.03350830078125
1688354832059,846939564,5774,23,0.0107421875,-0.08331298828125,-1.00909423828125
1688354832059,846939564,5774,24,0.0107421875,-0.08111572265625,-1.02838134765625
1688354832059,846939564,5774,25,0.015380859375,-0.10577392578125,-1.00811767578125
1688354832059,846939564,5774,26,0.0244140625,-0.10308837890625,-1.02032470703125
1688354832059,846939564,5774,27,0.019775390625,-0.10455322265625,-1.02154541015625
1688354832059,846939564,5774,28,0.025146484375,-0.12237548828125,-1.00347900390625
1688354832059,846939564,5774,29,0.020751953125,-0.09893798828125,-1.03057861328125
1688354832059,846939564,5774,30,0.020751953125,-0.10894775390625,-1.01031494140625
1688354832059,846939564,5774,31,0.014404296875,-0.08795166015625,-1.03399658203125
1688354834787,846942143,5775,0,0.017333984375,-0.10137939453125,-1.02154541015625
1688354834787,846942143,5775,1,0.022216796875,-0.09942626953125,-1.00762939453125
1688354834787,846942143,5775,2,0.013427734375,-0.05596923828125,-1.02960205078125
1688354834787,846942143,5775,3,0.00927734375,-0.04571533203125,-1.02496337890625
1688354834787,846942143,5775,4,0.005615234375,-0.04034423828125,-1.03082275390625
1688354834787,846942143,5775,5,0.01025390625,-0.03985595703125,-1.02349853515625
1688354834787,846942143,5775,6,0.010986328125,-0.04718017578125,-1.02838134765625
1688354834787,846942143,5775,7,0.012939453125,-0.06842041015625,-1.02471923828125
1688354834787,846942143,5775,8,0.017578125,-0.08184814453125,-1.02130126953125
1688354834787,846942143,5775,9,0.017578125,-0.08428955078125,-1.01837158203125
1688354834787,846942143,5775,10,0.016357421875,-0.06866455078125,-1.01202392578125
1688354834787,846942143,5775,11,0.019775390625,-0.09967041015625,-1.02423095703125
1688354834787,846942143,5775,12,0.023681640625,-0.11920166015625,-1.01055908203125
1688354834787,846942143,5775,13,0.019287109375,-0.09112548828125,-1.03692626953125
1688354834787,846942143,5775,14,0.024658203125,-0.10943603515625,-1.00494384765625
1688354834787,846942143,5775,15,0.021484375,-0.10626220703125,-1.02813720703125
1688354834787,846942143,5775,16,0.02392578125,-0.10406494140625,-1.02154541015625
1688354834787,846942143,5775,17,0.024169921875,-0.10504150390625,-1.02471923828125
1688354834787,846942143,5775,18,0.025634765625,-0.10406494140625,-1.03057861328125
1688354834787,846942143,5775,19,0.03125,-0.12237548828125,-1.00909423828125
1688354834787,846942143,5775,20,0.029296875,-0.10870361328125,-1.01739501953125
1688354834787,846942143,5775,21,0.02685546875,-0.11822509765625,-1.01251220703125
1688354834787,846942143,5775,22,0.023681640625,-0.11138916015625,-1.02203369140625
1688354834787,846942143,5775,23,0.021728515625,-0.10797119140625,-1.01715087890625
1688354834787,846942143,5775,24,0.022216796875,-0.10430908203125,-1.01300048828125
1688354834787,846942143,5775,25,0.01171875,-0.06671142578125,-1.02984619140625
1688354834787,846942143,5775,26,0.00732421875,-0.04083251953125,-1.02911376953125
1688354834787,846942143,5775,27,0.004150390625,-0.04180908203125,-1.02227783203125
1688354834787,846942143,5775,28,0.002197265625,-0.03790283203125,-1.02764892578125
1688354834787,846942143,5775,29,0.007080078125,-0.04376220703125,-1.02471923828125
1688354834787,846942143,5775,30,0.012451171875,-0.05792236328125,-1.02764892578125
1688354834787,846942143,5775,31,0.014404296875,-0.06817626953125,-1.01568603515625
1688354837128,846944723,5776,0,0.01953125,-0.06890869140625,-1.02667236328125
1688354837128,846944723,5776,1,0.021728515625,-0.08087158203125,-1.02252197265625
1688354837128,846944723,5776,2,0.017578125,-0.06768798828125,-1.02325439453125
1688354837128,846944723,5776,3,0.016845703125,-0.06988525390625,-1.02423095703125
1688354837128,846944723,5776,4,0.019775390625,-0.08038330078125,-1.01690673828125
1688354837128,846944723,5776,5,0.022216796875,-0.06939697265625,-1.02838134765625
1688354837128,846944723,5776,6,0.014404296875,-0.08233642578125,-1.01544189453125
1688354837128,846944723,5776,7,0.01708984375,-0.08013916015625,-1.01495361328125
1688354837128,846944723,5776,8,0.022705078125,-0.09527587890625,-1.01910400390625
1688354837128,846944723,5776,9,0.02685546875,-0.10797119140625,-1.01495361328125
1688354837128,846944723,5776,10,0.02099609375,-0.09698486328125,-1.02471923828125
1688354837128,846944723,5776,11,0.024658203125,-0.11627197265625,-1.00982666015625
1688354837128,846944723,5776,12,0.01953125,-0.09185791015625,-1.04254150390625
1688354837128,846944723,5776,13,0.028564453125,-0.16168212890625,-0.98956298828125
1688354837128,846944723,5776,14,0.02880859375,-0.13751220703125,-1.04132080078125
1688354837128,846944723,5776,15,0.03076171875,-0.20611572265625,-0.97955322265625
1688354837128,846944723,5776,16,0.036376953125,-0.17999267578125,-1.01641845703125
1688354837128,846944723,5776,17,0.03271484375,-0.20123291015625,-0.99591064453125
1688354837128,846944723,5776,18,0.03662109375,-0.18023681640625,-1.00421142578125
1688354837128,846944723,5776,19,0.02783203125,-0.15435791015625,-1.01617431640625
1688354837128,846944723,5776,20,0.02587890625,-0.11041259765625,-1.01007080078125
1688354837128,846944723,5776,21,0.005859375,-0.04229736328125,-1.03985595703125
1688354837128,846944723,5776,22,0.002685546875,-0.03839111328125,-1.02618408203125
1688354837128,846944723,5776,23,0.001953125,-0.04083251953125,-1.02667236328125
1688354837128,846944723,5776,24,0.008544921875,-0.04571533203125,-1.02960205078125
1688354837128,846944723,5776,25,0.01123046875,-0.06304931640625,-1.01226806640625
1688354837128,846944723,5776,26,0.01513671875,-0.06915283203125,-1.02593994140625
1688354837128,846944723,5776,27,0.015625,-0.07574462890625,-1.02423095703125
1688354837128,846944723,5776,28,0.01806640625,-0.07427978515625,-1.02423095703125
1688354837128,846944723,5776,29,0.023193359375,-0.09185791015625,-1.01715087890625
1688354837128,846944723,5776,30,0.019287109375,-0.07794189453125,-1.02716064453125
1688354837128,846944723,5776,31,0.020751953125,-0.08331298828125,-1.01837158203125
1688354839663,846947302,5777,0,0.02294921875,-0.07794189453125,-1.02203369140625
1688354839663,846947302,5777,1,0.01708984375,-0.08062744140625,-1.01959228515625
1688354839663,846947302,5777,2,0.018310546875,-0.07305908203125,-1.01812744140625
1688354839663,846947302,5777,3,0.010498046875,-0.05377197265625,-1.02496337890625
1688354839663,846947302,5777,4,0.0029296875,-0.03155517578125,-1.03106689453125
