receivedPhoneTimestamp,respeckTimestamp,packetSeqNum,sampleSeqNum,accelX,accelY,accelZ
1759939226737,7031321,1851,0,-0.28076171875,-0.94049072265625,0.12811279296875
1759939226737,7031321,1851,1,-0.287841796875,-0.95025634765625,0.13616943359375
1759939226737,7031321,1851,2,-0.2802734375,-0.94586181640625,0.12713623046875
1759939226737,7031321,1851,3,-0.274169921875,-0.94683837890625,0.12567138671875
1759939226737,7031321,1851,4,-0.2890625,-0.93511962890625,0.13372802734375
1759939226737,7031321,1851,5,-0.281982421875,-0.94415283203125,0.13299560546875
1759939226737,7031321,1851,6,-0.293701171875,-0.94390869140625,0.14715576171875
1759939226737,7031321,1851,7,-0.29296875,-0.94586181640625,0.13006591796875
1759939226737,7031321,1851,8,-0.25537109375,-0.94024658203125,0.10638427734375
1759939226737,7031321,1851,9,-0.272216796875,-0.95440673828125,0.09979248046875
1759939226737,7031321,1851,10,-0.2734375,-0.93170166015625,0.08392333984375
1759939226737,7031321,1851,11,-0.27978515625,-0.96197509765625,0.11712646484375
1759939226737,7031321,1851,12,-0.26708984375,-0.94219970703125,0.07611083984375
1759939226737,7031321,1851,13,-0.259521484375,-0.97613525390625,0.08905029296875
1759939226737,7031321,1851,14,-0.25390625,-0.95050048828125,0.09490966796875
1759939226737,7031321,1851,15,-0.265380859375,-0.96002197265625,0.08660888671875
1759939226737,7031321,1851,16,-0.260498046875,-0.95074462890625,0.09075927734375
1759939226737,7031321,1851,17,-0.264892578125,-0.95343017578125,0.08026123046875
1759939226737,7031321,1851,18,-0.26220703125,-0.96221923828125,0.07733154296875
1759939226737,7031321,1851,19,-0.265380859375,-0.95196533203125,0.07977294921875
1759939226737,7031321,1851,20,-0.266357421875,-0.95806884765625,0.07855224609375
1759939226737,7031321,1851,21,-0.2607421875,-0.95391845703125,0.08148193359375
1759939226737,7031321,1851,22,-0.24658203125,-0.95782470703125,0.07806396484375
1759939226737,7031321,1851,23,-0.273681640625,-0.95562744140625,0.08050537109375
1759939226737,7031321,1851,24,-0.256591796875,-0.95831298828125,0.08441162109375
1759939226737,7031321,1851,25,-0.239013671875,-0.96661376953125,0.08099365234375
1759939226737,7031321,1851,26,-0.260009765625,-0.94952392578125,0.08734130859375
1759939226737,7031321,1851,27,-0.2490234375,-0.96002197265625,0.08905029296875
1759939226737,7031321,1851,28,-0.255615234375,-0.94927978515625,0.09027099609375
1759939226737,7031321,1851,29,-0.264892578125,-0.95098876953125,0.10540771484375
1759939226737,7031321,1851,30,-0.259765625,-0.95172119140625,0.09588623046875
1759939226737,7031321,1851,31,-0.272216796875,-0.96441650390625,0.09759521484375
1759939229333,7033858,1852,0,-0.247314453125,-0.95196533203125,0.09124755859375
1759939229333,7033858,1852,1,-0.262939453125,-0.95513916015625,0.07879638671875
1759939229333,7033858,1852,2,-0.25732421875,-0.95758056640625,0.09124755859375
1759939229333,7033858,1852,3,-0.265380859375,-0.96783447265625,0.08660888671875
1759939229333,7033858,1852,4,-0.235595703125,-0.95709228515625,0.08563232421875
1759939229333,7033858,1852,5,-0.26513671875,-0.95343017578125,0.08563232421875
1759939229333,7033858,1852,6,-0.244384765625,-0.95587158203125,0.09906005859375
1759939229333,7033858,1852,7,-0.2578125,-0.94610595703125,0.08416748046875
1759939229333,7033858,1852,8,-0.28564453125,-0.96075439453125,0.09002685546875
1759939229333,7033858,1852,9,-0.2353515625,-0.95587158203125,0.08758544921875
1759939229333,7033858,1852,10,-0.266845703125,-0.95367431640625,0.08807373046875
1759939229333,7033858,1852,11,-0.261962890625,-0.95220947265625,0.09539794921875
1759939229333,7033858,1852,12,-0.25146484375,-0.95611572265625,0.11907958984375
1759939229333,7033858,1852,13,-0.25537109375,-0.95196533203125,0.10760498046875
1759939229333,7033858,1852,14,-0.2685546875,-0.95196533203125,0.11663818359375
1759939229333,7033858,1852,15,-0.26416015625,-0.95513916015625,0.11566162109375
1759939229333,7033858,1852,16,-0.2568359375,-0.95123291015625,0.11395263671875
1759939229333,7033858,1852,17,-0.26025390625,-0.95343017578125,0.10906982421875
1759939229333,7033858,1852,18,-0.269775390625,-0.94952392578125,0.11444091796875
1759939229333,7033858,1852,19,-0.260009765625,-0.95489501953125,0.11029052734375
1759939229333,7033858,1852,20,-0.250732421875,-0.94732666015625,0.10931396484375
1759939229333,7033858,1852,21,-0.254150390625,-0.96051025390625,0.11492919921875
1759939229333,7033858,1852,22,-0.25390625,-0.95220947265625,0.11785888671875
1759939229333,7033858,1852,23,-0.255615234375,-0.95245361328125,0.11370849609375
1759939229333,7033858,1852,24,-0.241455078125,-0.96002197265625,0.11322021484375
1759939229333,7033858,1852,25,-0.249755859375,-0.95758056640625,0.10760498046875
1759939229333,7033858,1852,26,-0.25634765625,-0.94635009765625,0.11663818359375
1759939229333,7033858,1852,27,-0.242431640625,-0.95758056640625,0.11346435546875
1759939229333,7033858,1852,28,-0.242431640625,-0.94244384765625,0.11004638671875
1759939229333,7033858,1852,29,-0.26416015625,-0.96612548828125,0.11712646484375
1759939229333,7033858,1852,30,-0.2587890625,-0.95147705078125,0.09613037109375
1759939229333,7033858,1852,31,-0.2529296875,-0.95513916015625,0.10589599609375
1759939231736,7036395,1853,0,-0.258544921875,-0.95343017578125,0.11492919921875
1759939231736,7036395,1853,1,-0.2626953125,-0.94976806640625,0.09783935546875
1759939231736,7036395,1853,2,-0.2490234375,-0.95709228515625,0.11370849609375
1759939231736,7036395,1853,3,-0.255615234375,-0.94586181640625,0.10247802734375
1759939231736,7036395,1853,4,-0.260986328125,-0.95513916015625,0.10662841796875
1759939231736,7036395,1853,5,-0.2568359375,-0.95953369140625,0.10345458984375
1759939231736,7036395,1853,6,-0.24609375,-0.94952392578125,0.11151123046875
1759939231736,7036395,1853,7,-0.264404296875,-0.95806884765625,0.12542724609375
1759939231736,7036395,1853,8,-0.301025390625,-0.94952392578125,0.15838623046875
1759939231736,7036395,1853,9,-0.282470703125,-0.94488525390625,0.13763427734375
1759939231736,7036395,1853,10,-0.275146484375,-0.93072509765625,0.08099365234375
1759939231736,7036395,1853,11,-0.2822265625,-0.93365478515625,0.07562255859375
1759939231736,7036395,1853,12,-0.279541015625,-0.96978759765625,0.09271240234375
1759939231736,7036395,1853,13,-0.281005859375,-0.94708251953125,0.07977294921875
1759939231736,7036395,1853,14,-0.26416015625,-0.95074462890625,0.09271240234375
1759939231736,7036395,1853,15,-0.26416015625,-0.95269775390625,0.09954833984375
1759939231736,7036395,1853,16,-0.28173828125,-0.95025634765625,0.08416748046875
1759939231736,7036395,1853,17,-0.29248046875,-0.94561767578125,0.10223388671875
1759939231736,7036395,1853,18,-0.261474609375,-0.95489501953125,0.10150146484375
1759939231736,7036395,1853,19,-0.274658203125,-0.95855712890625,0.09368896484375
1759939231736,7036395,1853,20,-0.271728515625,-0.93756103515625,0.09832763671875
1759939231736,7036395,1853,21,-0.27978515625,-0.96539306640625,0.09271240234375
1759939231736,7036395,1853,22,-0.276611328125,-0.95269775390625,0.08343505859375
1759939231736,7036395,1853,23,-0.271484375,-0.95294189453125,0.09271240234375
1759939231736,7036395,1853,24,-0.283935546875,-0.94952392578125,0.10516357421875
1759939231736,7036395,1853,25,-0.248046875,-0.94049072265625,0.08636474609375
1759939231736,7036395,1853,26,-0.318359375,-0.95538330078125,0.11395263671875
1759939231736,7036395,1853,27,-0.2470703125,-0.95074462890625,0.09075927734375
1759939231736,7036395,1853,28,-0.27392578125,-0.96343994140625,0.07806396484375
1759939231736,7036395,1853,29,-0.269775390625,-0.95294189453125,0.09588623046875
1759939231736,7036395,1853,30,-0.258544921875,-0.95611572265625,0.08050537109375
1759939231736,7036395,1853,31,-0.28173828125,-0.95123291015625,0.08441162109375
1759939234340,7038932,1854,0,-0.26123046875,-0.95562744140625,0.09027099609375
1759939234340,7038932,1854,1,-0.279052734375,-0.94561767578125,0.09393310546875
1759939234340,7038932,1854,2,-0.26220703125,-0.95562744140625,0.09857177734375
1759939234340,7038932,1854,3,-0.275634765625,-0.95245361328125,0.09613037109375
1759939234340,7038932,1854,4,-0.276611328125,-0.95147705078125,0.09417724609375
1759939234340,7038932,1854,5,-0.270751953125,-0.95855712890625,0.08734130859375
1759939234340,7038932,1854,6,-0.25537109375,-0.94537353515625,0.09857177734375
1759939234340,7038932,1854,7,-0.287841796875,-0.95123291015625,0.11126708984375
1759939234340,7038932,1854,8,-0.25537109375,-0.95220947265625,0.09979248046875
1759939234340,7038932,1854,9,-0.283447265625,-0.94293212890625,0.10028076171875
1759939234340,7038932,1854,10,-0.2626953125,-0.95489501953125,0.11712646484375
1759939234340,7038932,1854,11,-0.2685546875,-0.95367431640625,0.11297607421875
1759939234340,7038932,1854,12,-0.2744140625,-0.94561767578125,0.12030029296875
1759939234340,7038932,1854,13,-0.27490234375,-0.94268798828125,0.11053466796875
1759939234340,7038932,1854,14,-0.2724609375,-0.94976806640625,0.10760498046875
1759939234340,7038932,1854,15,-0.265380859375,-0.95147705078125,0.11907958984375
1759939234340,7038932,1854,16,-0.282958984375,-0.95025634765625,0.11932373046875
1759939234340,7038932,1854,17,-0.28076171875,-0.94464111328125,0.10443115234375
1759939234340,7038932,1854,18,-0.27978515625,-0.93780517578125,0.12518310546875
1759939234340,7038932,1854,19,-0.2734375,-0.95489501953125,0.12860107421875
1759939234340,7038932,1854,20,-0.261474609375,-0.95220947265625,0.12176513671875
1759939234340,7038932,1854,21,-0.27197265625,-0.94073486328125,0.12493896484375
1759939234340,7038932,1854,22,-0.280029296875,-0.95343017578125,0.11492919921875
1759939234340,7038932,1854,23,-0.268310546875,-0.94244384765625,0.10931396484375
1759939234340,7038932,1854,24,-0.26513671875,-0.95318603515625,0.12225341796875
1759939234340,7038932,1854,25,-0.263427734375,-0.95025634765625,0.11151123046875
1759939234340,7038932,1854,26,-0.274169921875,-0.94610595703125,0.11395263671875
1759939234340,7038932,1854,27,-0.26318359375,-0.95513916015625,0.11712646484375
1759939234340,7038932,1854,28,-0.266845703125,-0.94561767578125,0.11029052734375
1759939234340,7038932,1854,29,-0.2666015625,-0.94952392578125,0.10491943359375
1759939234340,7038932,1854,30,-0.26513671875,-0.95489501953125,0.11663818359375
1759939234340,7038932,1854,31,-0.24462890625,-0.95513916015625,0.11322021484375
1759939236937,7041469,1855,0,-0.26611328125,-0.94708251953125,0.12469482421875
1759939236937,7041469,1855,1,-0.291748046875,-0.93487548828125,0.13348388671875
1759939236937,7041469,1855,2,-0.273681640625,-0.94610595703125,0.13665771484375
1759939236937,7041469,1855,3,-0.2783203125,-0.94854736328125,0.12371826171875
1759939236937,7041469,1855,4,-0.250244140625,-0.94415283203125,0.12103271484375
1759939236937,7041469,1855,5,-0.282470703125,-0.95147705078125,0.11004638671875
1759939236937,7041469,1855,6,-0.255859375,-0.94854736328125,0.11956787109375
1759939236937,7041469,1855,7,-0.274658203125,-0.95025634765625,0.11126708984375
1759939236937,7041469,1855,8,-0.27294921875,-0.94537353515625,0.10784912109375
1759939236937,7041469,1855,9,-0.2587890625,-0.95928955078125,0.11932373046875
1759939236937,7041469,1855,10,-0.276123046875,-0.94219970703125,0.10760498046875
1759939236937,7041469,1855,11,-0.265625,-0.95587158203125,0.10614013671875
1759939236937,7041469,1855,12,-0.275146484375,-0.95050048828125,0.12396240234375
1759939236937,7041469,1855,13,-0.265869140625,-0.95465087890625,0.13006591796875
1759939236937,7041469,1855,14,-0.291748046875,-0.94000244140625,0.15032958984375
1759939236937,7041469,1855,15,-0.279052734375,-0.93829345703125,0.11248779296875
1759939236937,7041469,1855,16,-0.25146484375,-0.93731689453125,0.07293701171875
1759939236937,7041469,1855,17,-0.26806640625,-0.95050048828125,0.10369873046875
1759939236937,7041469,1855,18,-0.2705078125,-0.96929931640625,0.09490966796875
1759939236937,7041469,1855,19,-0.229248046875,-0.96710205078125,0.10784912109375
1759939236937,7041469,1855,20,-0.26513671875,-0.94610595703125,0.10882568359375
1759939236937,7041469,1855,21,-0.261474609375,-0.94781494140625,0.09808349609375
1759939236937,7041469,1855,22,-0.2861328125,-0.94000244140625,0.09271240234375
1759939236937,7041469,1855,23,-0.265380859375,-0.96124267578125,0.10760498046875
1759939236937,7041469,1855,24,-0.258544921875,-0.95294189453125,0.08758544921875
1759939236937,7041469,1855,25,-0.275146484375,-0.94073486328125,0.09246826171875
1759939236937,7041469,1855,26,-0.2861328125,-0.96270751953125,0.11224365234375
1759939236937,7041469,1855,27,-0.255859375,-0.94708251953125,0.09344482421875
1759939236937,7041469,1855,28,-0.2900390625,-0.96026611328125,0.09710693359375
1759939236937,7041469,1855,29,-0.27587890625,-0.94586181640625,0.09857177734375
1759939236937,7041469,1855,30,-0.26220703125,-0.95294189453125,0.10882568359375
1759939236937,7041469,1855,31,-0.271240234375,-0.94195556640625,0.10369873046875
1759939239333,7044006,1856,0,-0.286865234375,-0.94854736328125,0.10614013671875
1759939239333,7044006,1856,1,-0.26953125,-0.95684814453125,0.09539794921875
1759939239333,7044006,1856,2,-0.271240234375,-0.95098876953125,0.09783935546875
1759939239333,7044006,1856,3,-0.2666015625,-0.95611572265625,0.12298583984375
1759939239333,7044006,1856,4,-0.27099609375,-0.93951416015625,0.10906982421875
1759939239333,7044006,1856,5,-0.265869140625,-0.94366455078125,0.11834716796875
1759939239333,7044006,1856,6,-0.2666015625,-0.95367431640625,0.12664794921875
1759939239333,7044006,1856,7,-0.265869140625,-0.94805908203125,0.11224365234375
1759939239333,7044006,1856,8,-0.272705078125,-0.94635009765625,0.10565185546875
1759939239333,7044006,1856,9,-0.272216796875,-0.94683837890625,0.11956787109375
1759939239333,7044006,1856,10,-0.264892578125,-0.97003173828125,0.12567138671875
1759939239333,7044006,1856,11,-0.245849609375,-0.93878173828125,0.11688232421875
1759939239333,7044006,1856,12,-0.28271484375,-0.94171142578125,0.13641357421875
1759939239333,7044006,1856,13,-0.266357421875,-0.95587158203125,0.14373779296875
1759939239333,7044006,1856,14,-0.264892578125,-0.94122314453125,0.13104248046875
1759939239333,7044006,1856,15,-0.275146484375,-0.94635009765625,0.12860107421875
1759939239333,7044006,1856,16,-0.265625,-0.94854736328125,0.12274169921875
1759939239333,7044006,1856,17,-0.278564453125,-0.94219970703125,0.13787841796875
1759939239333,7044006,1856,18,-0.27783203125,-0.94415283203125,0.14984130859375
1759939239333,7044006,1856,19,-0.27392578125,-0.94903564453125,0.12738037109375
1759939239333,7044006,1856,20,-0.262451171875,-0.94805908203125,0.13421630859375
1759939239333,7044006,1856,21,-0.270263671875,-0.95025634765625,0.12933349609375
1759939239333,7044006,1856,22,-0.2646484375,-0.93634033203125,0.13543701171875
1759939239333,7044006,1856,23,-0.27880859375,-0.95660400390625,0.13421630859375
1759939239333,7044006,1856,24,-0.279052734375,-0.93292236328125,0.12689208984375
1759939239333,7044006,1856,25,-0.2578125,-0.95074462890625,0.13739013671875
1759939239333,7044006,1856,26,-0.276611328125,-0.95977783203125,0.11932373046875
1759939239333,7044006,1856,27,-0.257568359375,-0.94512939453125,0.11614990234375
1759939239333,7044006,1856,28,-0.291015625,-0.93463134765625,0.12420654296875
1759939239333,7044006,1856,29,-0.28466796875,-0.95123291015625,0.14227294921875
1759939239333,7044006,1856,30,-0.26123046875,-0.94244384765625,0.11541748046875
1759939239333,7044006,1856,31,-0.26904296875,-0.95489501953125,0.11492919921875
1759939241938,7046543,1857,0,-0.26806640625,-0.94781494140625,0.12713623046875
1759939241938,7046543,1857,1,-0.26806640625,-0.95489501953125,0.12200927734375
1759939241938,7046543,1857,2,-0.259765625,-0.94781494140625,0.12200927734375
1759939241938,7046543,1857,3,-0.272216796875,-0.94927978515625,0.13031005859375
1759939241938,7046543,1857,4,-0.273193359375,-0.94732666015625,0.12420654296875
1759939241938,7046543,1857,5,-0.275634765625,-0.94635009765625,0.12274169921875
1759939241938,7046543,1857,6,-0.269775390625,-0.95074462890625,0.12567138671875
1759939241938,7046543,1857,7,-0.264404296875,-0.94317626953125,0.12225341796875
1759939241938,7046543,1857,8,-0.2578125,-0.95001220703125,0.13519287109375
1759939241938,7046543,1857,9,-0.2490234375,-0.95611572265625,0.12884521484375
1759939241938,7046543,1857,10,-0.264892578125,-0.94586181640625,0.12005615234375
1759939241938,7046543,1857,11,-0.280029296875,-0.93658447265625,0.12689208984375
1759939241938,7046543,1857,12,-0.25537109375,-0.96734619140625,0.12860107421875
1759939241938,7046543,1857,13,-0.24755859375,-0.94195556640625,0.12371826171875
1759939241938,7046543,1857,14,-0.27587890625,-0.94683837890625,0.13446044921875
1759939241938,7046543,1857,15,-0.265380859375,-0.95294189453125,0.12005615234375
1759939241938,7046543,1857,16,-0.24169921875,-0.94342041015625,0.11883544921875
1759939241938,7046543,1857,17,-0.261474609375,-0.96221923828125,0.12030029296875
1759939241938,7046543,1857,18,-0.25341796875,-0.96978759765625,0.13690185546875
1759939241938,7046543,1857,19,-0.258056640625,-0.92877197265625,0.11737060546875
1759939241938,7046543,1857,20,-0.264892578125,-0.94512939453125,0.12347412109375
1759939241938,7046543,1857,21,-0.256103515625,-0.95684814453125,0.12811279296875
1759939241938,7046543,1857,22,-0.23193359375,-0.96124267578125,0.12152099609375
1759939241938,7046543,1857,23,-0.238037109375,-0.94439697265625,0.11614990234375
1759939241938,7046543,1857,24,-0.265625,-0.95709228515625,0.12640380859375
1759939241938,7046543,1857,25,-0.273681640625,-0.94586181640625,0.13568115234375
1759939241938,7046543,1857,26,-0.267578125,-0.94586181640625,0.13494873046875
1759939241938,7046543,1857,27,-0.233154296875,-0.94903564453125,0.11956787109375
1759939241938,7046543,1857,28,-0.238037109375,-0.96368408203125,0.13128662109375
1759939241938,7046543,1857,29,-0.23486328125,-0.96319580078125,0.11761474609375
1759939241938,7046543,1857,30,-0.269775390625,-0.94097900390625,0.10638427734375
1759939241938,7046543,1857,31,-0.247314453125,-0.93975830078125,0.11395263671875
1759939244738,7049080,1858,0,-0.2373046875,-0.96661376953125,0.13006591796875
1759939244738,7049080,1858,1,-0.23486328125,-0.96319580078125,0.11590576171875
1759939244738,7049080,1858,2,-0.244140625,-0.95904541015625,0.13299560546875
1759939244738,7049080,1858,3,-0.263671875,-0.93096923828125,0.12957763671875
1759939244738,7049080,1858,4,-0.24365234375,-0.95831298828125,0.13201904296875
1759939244738,7049080,1858,5,-0.254150390625,-0.95977783203125,0.13323974609375
1759939244738,7049080,1858,6,-0.246337890625,-0.93658447265625,0.15106201171875
1759939244738,7049080,1858,7,-0.279541015625,-0.93511962890625,0.13616943359375
1759939244738,7049080,1858,8,-0.2568359375,-0.96636962890625,0.13421630859375
1759939244738,7049080,1858,9,-0.26416015625,-0.93463134765625,0.14984130859375
1759939244738,7049080,1858,10,-0.255615234375,-0.94952392578125,0.14642333984375
1759939244738,7049080,1858,11,-0.2587890625,-0.94805908203125,0.16644287109375
1759939244738,7049080,1858,12,-0.259765625,-0.93487548828125,0.15716552734375
1759939244738,7049080,1858,13,-0.283203125,-0.93487548828125,0.16302490234375
1759939244738,7049080,1858,14,-0.26123046875,-0.94854736328125,0.16937255859375
1759939244738,7049080,1858,15,-0.2646484375,-0.93267822265625,0.18475341796875
1759939244738,7049080,1858,16,-0.270263671875,-0.94097900390625,0.18450927734375
1759939244738,7049080,1858,17,-0.25830078125,-0.93316650390625,0.19110107421875
1759939244738,7049080,1858,18,-0.28125,-0.93536376953125,0.17694091796875
1759939244738,7049080,1858,19,-0.2783203125,-0.92022705078125,0.17840576171875
1759939244738,7049080,1858,20,-0.266357421875,-0.94293212890625,0.18646240234375
1759939244738,7049080,1858,21,-0.26953125,-0.92852783203125,0.20477294921875
1759939244738,7049080,1858,22,-0.32958984375,-0.93121337890625,0.21112060546875
1759939244738,7049080,1858,23,-0.30908203125,-0.91510009765625,0.20745849609375
1759939244738,7049080,1858,24,-0.2958984375,-0.93634033203125,0.12982177734375
1759939244738,7049080,1858,25,-0.292724609375,-0.92022705078125,0.15252685546875
1759939244738,7049080,1858,26,-0.31787109375,-0.95196533203125,0.15130615234375
1759939244738,7049080,1858,27,-0.2822265625,-0.92413330078125,0.15399169921875
1759939244738,7049080,1858,28,-0.306640625,-0.93536376953125,0.14837646484375
1759939244738,7049080,1858,29,-0.3076171875,-0.93365478515625,0.15643310546875
1759939244738,7049080,1858,30,-0.322998046875,-0.93829345703125,0.13836669921875
1759939244738,7049080,1858,31,-0.291748046875,-0.93072509765625,0.13616943359375
1759939246937,7051617,1859,0,-0.31005859375,-0.93536376953125,0.15228271484375
1759939246937,7051617,1859,1,-0.3017578125,-0.94903564453125,0.13568115234375
1759939246937,7051617,1859,2,-0.295166015625,-0.93341064453125,0.13201904296875
1759939246937,7051617,1859,3,-0.302001953125,-0.93267822265625,0.12982177734375
1759939246937,7051617,1859,4,-0.29345703125,-0.94805908203125,0.13763427734375
1759939246937,7051617,1859,5,-0.273681640625,-0.93756103515625,0.12689208984375
1759939246937,7051617,1859,6,-0.302978515625,-0.94805908203125,0.12200927734375
1759939246937,7051617,1859,7,-0.267333984375,-0.93853759765625,0.12054443359375
1759939246937,7051617,1859,8,-0.270263671875,-0.95440673828125,0.13519287109375
1759939246937,7051617,1859,9,-0.28759765625,-0.94781494140625,0.13055419921875
1759939246937,7051617,1859,10,-0.27197265625,-0.94830322265625,0.11639404296875
1759939246937,7051617,1859,11,-0.27978515625,-0.93829345703125,0.12542724609375
1759939246937,7051617,1859,12,-0.283935546875,-0.95733642578125,0.13055419921875
1759939246937,7051617,1859,13,-0.27783203125,-0.93048095703125,0.11639404296875
1759939246937,7051617,1859,14,-0.2548828125,-0.96075439453125,0.12811279296875
1759939246937,7051617,1859,15,-0.289794921875,-0.94146728515625,0.13714599609375
1759939246937,7051617,1859,16,-0.298583984375,-0.93414306640625,0.13372802734375
1759939246937,7051617,1859,17,-0.284423828125,-0.93707275390625,0.13812255859375
1759939246937,7051617,1859,18,-0.291748046875,-0.94659423828125,0.14398193359375
1759939246937,7051617,1859,19,-0.284423828125,-0.93682861328125,0.14447021484375
1759939246937,7051617,1859,20,-0.283447265625,-0.94171142578125,0.13543701171875
1759939246937,7051617,1859,21,-0.294677734375,-0.94024658203125,0.14984130859375
1759939246937,7051617,1859,22,-0.277099609375,-0.94073486328125,0.14715576171875
1759939246937,7051617,1859,23,-0.296142578125,-0.93487548828125,0.15228271484375
1759939246937,7051617,1859,24,-0.2861328125,-0.94024658203125,0.17352294921875
1759939246937,7051617,1859,25,-0.29443359375,-0.91729736328125,0.16204833984375
1759939246937,7051617,1859,26,-0.30615234375,-0.93414306640625,0.16204833984375
1759939246937,7051617,1859,27,-0.310791015625,-0.92047119140625,0.16156005859375
1759939246937,7051617,1859,28,-0.313720703125,-0.93853759765625,0.16131591796875
1759939246937,7051617,1859,29,-0.2919921875,-0.93951416015625,0.17156982421875
1759939246937,7051617,1859,30,-0.275634765625,-0.93487548828125,0.17230224609375
1759939246937,7051617,1859,31,-0.305908203125,-0.92169189453125,0.17913818359375
1759939249539,7054154,1860,0,-0.3076171875,-0.94024658203125,0.18304443359375
1759939249539,7054154,1860,1,-0.316650390625,-0.91851806640625,0.18060302734375
1759939249539,7054154,1860,2,-0.30908203125,-0.90484619140625,0.18035888671875
1759939249539,7054154,1860,3,-0.330810546875,-0.92803955078125,0.19622802734375
1759939249539,7054154,1860,4,-0.298583984375,-0.93072509765625,0.20941162109375
1759939249539,7054154,1860,5,-0.30078125,-0.91656494140625,0.19500732421875
1759939249539,7054154,1860,6,-0.32861328125,-0.91754150390625,0.19183349609375
1759939249539,7054154,1860,7,-0.325927734375,-0.89630126953125,0.19525146484375
1759939249539,7054154,1860,8,-0.30908203125,-0.94268798828125,0.19915771484375
1759939249539,7054154,1860,9,-0.281982421875,-0.93316650390625,0.20257568359375
1759939249539,7054154,1860,10,-0.284423828125,-0.91851806640625,0.18890380859375
1759939249539,7054154,1860,11,-0.2861328125,-0.93609619140625,0.20208740234375
1759939249539,7054154,1860,12,-0.32421875,-0.92730712890625,0.19744873046875
1759939249539,7054154,1860,13,-0.29638671875,-0.92852783203125,0.18695068359375
1759939249539,7054154,1860,14,-0.29296875,-0.92364501953125,0.13128662109375
1759939249539,7054154,1860,15,-0.33447265625,-0.91485595703125,0.16717529296875
1759939249539,7054154,1860,16,-0.293212890625,-0.94561767578125,0.14739990234375
1759939249539,7054154,1860,17,-0.298828125,-0.94952392578125,0.16571044921875
1759939249539,7054154,1860,18,-0.2998046875,-0.91485595703125,0.14935302734375
1759939249539,7054154,1860,19,-0.318115234375,-0.93902587890625,0.14959716796875
1759939249539,7054154,1860,20,-0.317626953125,-0.91998291015625,0.16448974609375
1759939249539,7054154,1860,21,-0.31005859375,-0.93560791015625,0.16546630859375
1759939249539,7054154,1860,22,-0.30712890625,-0.92950439453125,0.15814208984375
1759939249539,7054154,1860,23,-0.320556640625,-0.91583251953125,0.15692138671875
1759939249539,7054154,1860,24,-0.303955078125,-0.92974853515625,0.15887451171875
1759939249539,7054154,1860,25,-0.312744140625,-0.92730712890625,0.18743896484375
1759939249539,7054154,1860,26,-0.29736328125,-0.93023681640625,0.16180419921875
1759939249539,7054154,1860,27,-0.36279296875,-0.94146728515625,0.14154052734375
1759939249539,7054154,1860,28,-0.342041015625,-0.90704345703125,0.15008544921875
1759939249539,7054154,1860,29,-0.362060546875,-0.90655517578125,0.17962646484375
1759939249539,7054154,1860,30,-0.30322265625,-0.92608642578125,0.18255615234375
1759939249539,7054154,1860,31,-0.324462890625,-0.92388916015625,0.19818115234375
1759939252135,7056691,1861,0,-0.33984375,-0.90338134765625,0.19378662109375
1759939252135,7056691,1861,1,-0.3447265625,-0.90509033203125,0.19378662109375
1759939252135,7056691,1861,2,-0.356689453125,-0.90484619140625,0.20867919921875
1759939252135,7056691,1861,3,-0.345947265625,-0.90777587890625,0.20477294921875
1759939252135,7056691,1861,4,-0.375732421875,-0.91021728515625,0.20159912109375
1759939252135,7056691,1861,5,-0.370361328125,-0.88848876953125,0.19622802734375
1759939252135,7056691,1861,6,-0.360107421875,-0.90142822265625,0.19744873046875
1759939252135,7056691,1861,7,-0.391845703125,-0.90191650390625,0.20648193359375
1759939252135,7056691,1861,8,-0.36279296875,-0.90264892578125,0.19671630859375
1759939252135,7056691,1861,9,-0.37158203125,-0.90655517578125,0.17132568359375
1759939252135,7056691,1861,10,-0.357177734375,-0.91143798828125,0.18475341796875
1759939252135,7056691,1861,11,-0.35302734375,-0.90777587890625,0.17205810546875
1759939252135,7056691,1861,12,-0.345458984375,-0.91217041015625,0.16522216796875
1759939252135,7056691,1861,13,-0.383056640625,-0.92242431640625,0.21453857421875
1759939252135,7056691,1861,14,-0.33837890625,-0.89410400390625,0.17205810546875
1759939252135,7056691,1861,15,-0.385498046875,-0.91070556640625,0.14471435546875
1759939252135,7056691,1861,16,-0.37841796875,-0.89459228515625,0.15325927734375
1759939252135,7056691,1861,17,-0.372802734375,-0.91607666015625,0.14056396484375
1759939252135,7056691,1861,18,-0.34765625,-0.93023681640625,0.17596435546875
1759939252135,7056691,1861,19,-0.34814453125,-0.89459228515625,0.18817138671875
1759939252135,7056691,1861,20,-0.390869140625,-0.90631103515625,0.18426513671875
1759939252135,7056691,1861,21,-0.384765625,-0.89630126953125,0.17620849609375
1759939252135,7056691,1861,22,-0.409912109375,-0.89190673828125,0.16180419921875
1759939252135,7056691,1861,23,-0.385009765625,-0.89898681640625,0.18743896484375
1759939252135,7056691,1861,24,-0.391845703125,-0.90509033203125,0.18035888671875
1759939252135,7056691,1861,25,-0.38134765625,-0.89312744140625,0.18206787109375
1759939252135,7056691,1861,26,-0.365478515625,-0.90093994140625,0.18084716796875
1759939252135,7056691,1861,27,-0.392822265625,-0.89971923828125,0.19573974609375
1759939252135,7056691,1861,28,-0.3818359375,-0.89752197265625,0.19525146484375
1759939252135,7056691,1861,29,-0.35791015625,-0.90386962890625,0.18255615234375
1759939252135,7056691,1861,30,-0.364990234375,-0.90972900390625,0.19403076171875
1759939252135,7056691,1861,31,-0.360107421875,-0.90289306640625,0.19403076171875
1759939254538,7059228,1862,0,-0.368896484375,-0.88897705078125,0.19818115234375
1759939254538,7059228,1862,1,-0.38818359375,-0.91973876953125,0.22747802734375
1759939254538,7059228,1862,2,-0.36328125,-0.88946533203125,0.20648193359375
1759939254538,7059228,1862,3,-0.37548828125,-0.89288330078125,0.21502685546875
1759939254538,7059228,1862,4,-0.395263671875,-0.88604736328125,0.20721435546875
1759939254538,7059228,1862,5,-0.37451171875,-0.88702392578125,0.22552490234375
1759939254538,7059228,1862,6,-0.376220703125,-0.89337158203125,0.21990966796875
1759939254538,7059228,1862,7,-0.378662109375,-0.90069580078125,0.20916748046875
1759939254538,7059228,1862,8,-0.368896484375,-0.88848876953125,0.21795654296875
1759939254538,7059228,1862,9,-0.389892578125,-0.88580322265625,0.21551513671875
1759939254538,7059228,1862,10,-0.382568359375,-0.89532470703125,0.23211669921875
1759939254538,7059228,1862,11,-0.380615234375,-0.89703369140625,0.22210693359375
1759939254538,7059228,1862,12,-0.3525390625,-0.89630126953125,0.20965576171875
1759939254538,7059228,1862,13,-0.378173828125,-0.90167236328125,0.20745849609375
1759939254538,7059228,1862,14,-0.358642578125,-0.90264892578125,0.21209716796875
1759939254538,7059228,1862,15,-0.378173828125,-0.90216064453125,0.19964599609375
1759939254538,7059228,1862,16,-0.358154296875,-0.89410400390625,0.20159912109375
1759939254538,7059228,1862,17,-0.365966796875,-0.90655517578125,0.20745849609375
1759939254538,7059228,1862,18,-0.3642578125,-0.90362548828125,0.19256591796875
1759939254538,7059228,1862,19,-0.359619140625,-0.89678955078125,0.19915771484375
1759939254538,7059228,1862,20,-0.369384765625,-0.90557861328125,0.19207763671875
1759939254538,7059228,1862,21,-0.351318359375,-0.90753173828125,0.19036865234375
1759939254538,7059228,1862,22,-0.364501953125,-0.90582275390625,0.18304443359375
1759939254538,7059228,1862,23,-0.353271484375,-0.91241455078125,0.19915771484375
1759939254538,7059228,1862,24,-0.35302734375,-0.91632080078125,0.20037841796875
1759939254538,7059228,1862,25,-0.339599609375,-0.90264892578125,0.20111083984375
1759939254538,7059228,1862,26,-0.357177734375,-0.88873291015625,0.21258544921875
1759939254538,7059228,1862,27,-0.385009765625,-0.90777587890625,0.23773193359375
