receivedPhoneTimestamp,respeckTimestamp,packetSeqNum,sampleSeqNum,accelX,accelY,accelZ
1760105929761,1201395626,18655,15,0.095947265625,-0.96856689453125,0.24554443359375
1760105929761,1201395626,18655,16,0.099609375,-0.97100830078125,0.24359130859375
1760105929761,1201395626,18655,17,0.100830078125,-0.96173095703125,0.23748779296875
1760105929761,1201395626,18655,18,0.104248046875,-0.96246337890625,0.24456787109375
1760105929761,1201395626,18655,19,0.095947265625,-0.97686767578125,0.24871826171875
1760105929761,1201395626,18655,20,0.09228515625,-0.96759033203125,0.24847412109375
1760105929761,1201395626,18655,21,0.0927734375,-0.97589111328125,0.25042724609375
1760105929761,1201395626,18655,22,0.088134765625,-0.96466064453125,0.24212646484375
1760105929761,1201395626,18655,23,0.09326171875,-0.96783447265625,0.25213623046875
1760105929761,1201395626,18655,24,0.09033203125,-0.96832275390625,0.25555419921875
1760105929761,1201395626,18655,25,0.09130859375,-0.95928955078125,0.25457763671875
1760105929761,1201395626,18655,26,0.0908203125,-0.97052001953125,0.26678466796875
1760105929761,1201395626,18655,27,0.082275390625,-0.96661376953125,0.26849365234375
1760105929761,1201395626,18655,28,0.098876953125,-0.95758056640625,0.25164794921875
1760105929761,1201395626,18655,29,0.089111328125,-0.96612548828125,0.26947021484375
1760105929761,1201395626,18655,30,0.093505859375,-0.96270751953125,0.26287841796875
1760105929761,1201395626,18655,31,0.08984375,-0.95977783203125,0.26312255859375
1760105932345,1201398217,18656,0,0.0927734375,-0.95855712890625,0.27288818359375
1760105932345,1201398217,18656,1,0.0927734375,-0.95758056640625,0.26654052734375
1760105932345,1201398217,18656,2,0.09326171875,-0.96221923828125,0.26751708984375
1760105932345,1201398217,18656,3,0.093017578125,-0.96392822265625,0.26605224609375
1760105932345,1201398217,18656,4,0.075927734375,-0.95831298828125,0.25604248046875
1760105932345,1201398217,18656,5,0.056640625,-0.98297119140625,0.26190185546875
1760105932345,1201398217,18656,6,0.0712890625,-0.96514892578125,0.25115966796875
1760105932345,1201398217,18656,7,0.0830078125,-0.96295166015625,0.26019287109375
1760105932345,1201398217,18656,8,0.09423828125,-0.96002197265625,0.26727294921875
1760105932345,1201398217,18656,9,0.0947265625,-0.96295166015625,0.27581787109375
1760105932345,1201398217,18656,10,0.092041015625,-0.97344970703125,0.27532958984375
1760105932345,1201398217,18656,11,0.097900390625,-0.95758056640625,0.24700927734375
1760105932345,1201398217,18656,12,0.073974609375,-0.97296142578125,0.25238037109375
1760105932345,1201398217,18656,13,0.073974609375,-0.96343994140625,0.24383544921875
1760105932345,1201398217,18656,14,0.07861328125,-0.96392822265625,0.26068115234375
1760105932345,1201398217,18656,15,0.08203125,-0.96832275390625,0.26995849609375
1760105932345,1201398217,18656,16,0.080810546875,-0.95831298828125,0.26605224609375
1760105932345,1201398217,18656,17,0.090576171875,-0.95733642578125,0.28167724609375
1760105932345,1201398217,18656,18,0.08740234375,-0.95318603515625,0.27703857421875
1760105932345,1201398217,18656,19,0.07080078125,-0.95806884765625,0.28167724609375
1760105932345,1201398217,18656,20,0.0595703125,-0.96173095703125,0.29461669921875
1760105932345,1201398217,18656,21,0.076171875,-0.96343994140625,0.27532958984375
1760105932345,1201398217,18656,22,0.0751953125,-0.96099853515625,0.27606201171875
1760105932345,1201398217,18656,23,0.086181640625,-0.96075439453125,0.27679443359375
1760105932345,1201398217,18656,24,0.09228515625,-0.95806884765625,0.27313232421875
1760105932345,1201398217,18656,25,0.08837890625,-0.95733642578125,0.27386474609375
1760105932345,1201398217,18656,26,0.0791015625,-0.95953369140625,0.28118896484375
1760105932345,1201398217,18656,27,0.064208984375,-0.95977783203125,0.29510498046875
1760105932345,1201398217,18656,28,0.083251953125,-0.95904541015625,0.28582763671875
1760105932345,1201398217,18656,29,0.080078125,-0.95465087890625,0.27728271484375
1760105932345,1201398217,18656,30,0.083984375,-0.96319580078125,0.27557373046875
1760105932345,1201398217,18656,31,0.08056640625,-0.96099853515625,0.27288818359375
1760105935325,1201400808,18657,0,0.072021484375,-0.96026611328125,0.27166748046875
1760105935325,1201400808,18657,1,0.0849609375,-0.95391845703125,0.27557373046875
1760105935325,1201400808,18657,2,0.07373046875,-0.97149658203125,0.28533935546875
1760105935325,1201400808,18657,3,0.08642578125,-0.95953369140625,0.27484130859375
1760105935325,1201400808,18657,4,0.098388671875,-0.94781494140625,0.28338623046875
1760105935325,1201400808,18657,5,0.08349609375,-0.94976806640625,0.28558349609375
1760105935325,1201400808,18657,6,0.068359375,-0.95684814453125,0.27606201171875
1760105935325,1201400808,18657,7,0.06298828125,-0.96563720703125,0.28997802734375
1760105935325,1201400808,18657,8,0.080322265625,-0.95782470703125,0.27191162109375
1760105935325,1201400808,18657,9,0.08056640625,-0.95660400390625,0.28387451171875
1760105935325,1201400808,18657,10,0.0810546875,-0.96563720703125,0.27825927734375
1760105935325,1201400808,18657,11,0.07080078125,-0.95587158203125,0.25994873046875
1760105935325,1201400808,18657,12,0.06884765625,-0.97247314453125,0.27752685546875
1760105935325,1201400808,18657,13,0.0654296875,-0.96856689453125,0.26409912109375
1760105935325,1201400808,18657,14,0.072998046875,-0.96563720703125,0.26776123046875
1760105935325,1201400808,18657,15,0.07568359375,-0.96026611328125,0.26165771484375
1760105935325,1201400808,18657,16,0.07763671875,-0.95635986328125,0.27728271484375
1760105935325,1201400808,18657,17,0.071044921875,-0.96856689453125,0.28485107421875
1760105935325,1201400808,18657,18,0.063720703125,-0.94927978515625,0.28021240234375
1760105935325,1201400808,18657,19,0.068603515625,-0.96270751953125,0.29412841796875
1760105935325,1201400808,18657,20,0.0712890625,-0.95391845703125,0.28826904296875
1760105935325,1201400808,18657,21,0.072265625,-0.95123291015625,0.28656005859375
1760105935325,1201400808,18657,22,0.0869140625,-0.95489501953125,0.28582763671875
1760105935325,1201400808,18657,23,0.0751953125,-0.95928955078125,0.29144287109375
1760105935325,1201400808,18657,24,0.072509765625,-0.95831298828125,0.27850341796875
1760105935325,1201400808,18657,25,0.06787109375,-0.96148681640625,0.28021240234375
1760105935325,1201400808,18657,26,0.065673828125,-0.96441650390625,0.28045654296875
1760105935325,1201400808,18657,27,0.075439453125,-0.96148681640625,0.28338623046875
1760105935325,1201400808,18657,28,0.07666015625,-0.95904541015625,0.28485107421875
1760105935325,1201400808,18657,29,0.082763671875,-0.95538330078125,0.28607177734375
1760105935325,1201400808,18657,30,0.074951171875,-0.94805908203125,0.29803466796875
1760105935325,1201400808,18657,31,0.075927734375,-0.95489501953125,0.30023193359375
1760105937510,1201403399,18658,0,0.062255859375,-0.95587158203125,0.29486083984375
1760105937510,1201403399,18658,1,0.0849609375,-0.95709228515625,0.29095458984375
1760105937510,1201403399,18658,2,0.077880859375,-0.96051025390625,0.28631591796875
1760105937510,1201403399,18658,3,0.06982421875,-0.96075439453125,0.26434326171875
1760105937510,1201403399,18658,4,0.069091796875,-0.95977783203125,0.28509521484375
1760105937510,1201403399,18658,5,0.077880859375,-0.96075439453125,0.28704833984375
1760105937510,1201403399,18658,6,0.070068359375,-0.95416259765625,0.28460693359375
1760105937510,1201403399,18658,7,0.073974609375,-0.96392822265625,0.29241943359375
1760105937510,1201403399,18658,8,0.083251953125,-0.95782470703125,0.28265380859375
1760105937510,1201403399,18658,9,0.08935546875,-0.95172119140625,0.28485107421875
1760105937510,1201403399,18658,10,0.079345703125,-0.95538330078125,0.28900146484375
1760105937510,1201403399,18658,11,0.078125,-0.95977783203125,0.29364013671875
1760105937510,1201403399,18658,12,0.07861328125,-0.95465087890625,0.28607177734375
1760105937510,1201403399,18658,13,0.073974609375,-0.95465087890625,0.28778076171875
1760105937510,1201403399,18658,14,0.0791015625,-0.95172119140625,0.28607177734375
1760105937510,1201403399,18658,15,0.08203125,-0.95269775390625,0.29315185546875
1760105937510,1201403399,18658,16,0.082275390625,-0.95513916015625,0.29241943359375
1760105937510,1201403399,18658,17,0.0693359375,-0.95855712890625,0.29486083984375
1760105937510,1201403399,18658,18,0.083740234375,-0.95074462890625,0.28656005859375
1760105937510,1201403399,18658,19,0.080322265625,-0.95806884765625,0.28411865234375
1760105937510,1201403399,18658,20,0.07763671875,-0.95806884765625,0.27947998046875
1760105937510,1201403399,18658,21,0.076416015625,-0.96148681640625,0.28729248046875
1760105937510,1201403399,18658,22,0.0830078125,-0.95391845703125,0.29608154296875
1760105937510,1201403399,18658,23,0.07373046875,-0.95367431640625,0.29608154296875
1760105937510,1201403399,18658,24,0.075439453125,-0.95367431640625,0.30975341796875
1760105937510,1201403399,18658,25,0.075927734375,-0.95831298828125,0.30657958984375
1760105937510,1201403399,18658,26,0.074951171875,-0.94610595703125,0.28729248046875
1760105937510,1201403399,18658,27,0.07763671875,-0.95977783203125,0.29071044921875
1760105937510,1201403399,18658,28,0.086669921875,-0.96759033203125,0.27264404296875
1760105937510,1201403399,18658,29,0.09521484375,-0.95660400390625,0.26898193359375
1760105937510,1201403399,18658,30,0.099365234375,-0.96343994140625,0.25189208984375
1760105937510,1201403399,18658,31,0.092041015625,-0.96783447265625,0.24578857421875
1760105940295,1201405990,18659,0,0.09814453125,-0.96368408203125,0.23162841796875
1760105940295,1201405990,18659,1,0.11083984375,-0.96026611328125,0.24310302734375
1760105940295,1201405990,18659,2,0.093505859375,-0.98443603515625,0.25628662109375
1760105940295,1201405990,18659,3,0.0908203125,-0.95758056640625,0.24603271484375
1760105940295,1201405990,18659,4,0.088623046875,-0.97344970703125,0.25531005859375
1760105940295,1201405990,18659,5,0.087158203125,-0.96466064453125,0.24530029296875
1760105940295,1201405990,18659,6,0.082763671875,-0.96319580078125,0.25579833984375
1760105940295,1201405990,18659,7,0.09423828125,-0.96807861328125,0.25897216796875
1760105940295,1201405990,18659,8,0.087890625,-0.96978759765625,0.26068115234375
1760105940295,1201405990,18659,9,0.08984375,-0.96368408203125,0.25262451171875
1760105940295,1201405990,18659,10,0.083251953125,-0.97027587890625,0.26507568359375
1760105940295,1201405990,18659,11,0.0859375,-0.96588134765625,0.25457763671875
1760105940295,1201405990,18659,12,0.08984375,-0.96246337890625,0.26434326171875
1760105940295,1201405990,18659,13,0.0986328125,-0.95758056640625,0.26654052734375
1760105940295,1201405990,18659,14,0.087890625,-0.96783447265625,0.26947021484375
1760105940295,1201405990,18659,15,0.093505859375,-0.96612548828125,0.26409912109375
1760105940295,1201405990,18659,16,0.090087890625,-0.95928955078125,0.26531982421875
1760105940295,1201405990,18659,17,0.0869140625,-0.96270751953125,0.25897216796875
1760105940295,1201405990,18659,18,0.080810546875,-0.96343994140625,0.26629638671875
1760105940295,1201405990,18659,19,0.084228515625,-0.96221923828125,0.26531982421875
1760105940295,1201405990,18659,20,0.08447265625,-0.96343994140625,0.27362060546875
1760105940295,1201405990,18659,21,0.086669921875,-0.96099853515625,0.26458740234375
1760105940295,1201405990,18659,22,0.079833984375,-0.96368408203125,0.27142333984375
1760105940295,1201405990,18659,23,0.088623046875,-0.96343994140625,0.26898193359375
1760105940295,1201405990,18659,24,0.0830078125,-0.95635986328125,0.26800537109375
1760105940295,1201405990,18659,25,0.08349609375,-0.95953369140625,0.27484130859375
1760105940295,1201405990,18659,26,0.083984375,-0.95684814453125,0.28094482421875
1760105940295,1201405990,18659,27,0.076171875,-0.95806884765625,0.27874755859375
1760105940295,1201405990,18659,28,0.08203125,-0.95562744140625,0.27532958984375
1760105940295,1201405990,18659,29,0.072265625,-0.95977783203125,0.27410888671875
1760105940295,1201405990,18659,30,0.074951171875,-0.96466064453125,0.26702880859375
1760105940295,1201405990,18659,31,0.067626953125,-0.96636962890625,0.26385498046875
1760105943277,1201408582,18660,0,0.07177734375,-0.97955322265625,0.25750732421875
1760105943277,1201408582,18660,1,0.08154296875,-0.96832275390625,0.25555419921875
1760105943277,1201408582,18660,2,0.083740234375,-0.97100830078125,0.25091552734375
1760105943277,1201408582,18660,3,0.09130859375,-0.95928955078125,0.25286865234375
1760105943277,1201408582,18660,4,0.090087890625,-0.96246337890625,0.26580810546875
1760105943277,1201408582,18660,5,0.08984375,-0.96759033203125,0.27117919921875
1760105943277,1201408582,18660,6,0.07421875,-0.96124267578125,0.25994873046875
1760105943277,1201408582,18660,7,0.08349609375,-0.96295166015625,0.26654052734375
1760105943277,1201408582,18660,8,0.08349609375,-0.96710205078125,0.26141357421875
1760105943277,1201408582,18660,9,0.07666015625,-0.96905517578125,0.25531005859375
1760105943277,1201408582,18660,10,0.085205078125,-0.96441650390625,0.25067138671875
1760105943277,1201408582,18660,11,0.0771484375,-0.96685791015625,0.26873779296875
1760105943277,1201408582,18660,12,0.080078125,-0.96490478515625,0.26947021484375
1760105943277,1201408582,18660,13,0.06982421875,-0.96246337890625,0.27069091796875
1760105943277,1201408582,18660,14,0.074462890625,-0.96466064453125,0.27191162109375
1760105943277,1201408582,18660,15,0.074951171875,-0.96441650390625,0.26947021484375
1760105943277,1201408582,18660,16,0.071044921875,-0.96173095703125,0.27239990234375
1760105943277,1201408582,18660,17,0.072998046875,-0.96392822265625,0.26214599609375
1760105943277,1201408582,18660,18,0.071044921875,-0.96783447265625,0.26898193359375
1760105943277,1201408582,18660,19,0.069580078125,-0.96881103515625,0.26239013671875
1760105943277,1201408582,18660,20,0.06591796875,-0.96636962890625,0.27239990234375
1760105943277,1201408582,18660,21,0.07275390625,-0.96099853515625,0.27044677734375
1760105943277,1201408582,18660,22,0.07080078125,-0.96002197265625,0.27508544921875
1760105943277,1201408582,18660,23,0.07275390625,-0.95782470703125,0.28607177734375
1760105943277,1201408582,18660,24,0.076171875,-0.95684814453125,0.29095458984375
1760105943277,1201408582,18660,25,0.072998046875,-0.95391845703125,0.28680419921875
1760105943277,1201408582,18660,26,0.070556640625,-0.95587158203125,0.27899169921875
1760105943277,1201408582,18660,27,0.067626953125,-0.95758056640625,0.28631591796875
1760105943277,1201408582,18660,28,0.0634765625,-0.96051025390625,0.28070068359375
1760105943277,1201408582,18660,29,0.06298828125,-0.96099853515625,0.28118896484375
1760105943277,1201408582,18660,30,0.059814453125,-0.96319580078125,0.28582763671875
1760105943277,1201408582,18660,31,0.066650390625,-0.96124267578125,0.28948974609375
1760105945461,1201411173,18661,0,0.06787109375,-0.95904541015625,0.28875732421875
1760105945461,1201411173,18661,1,0.0732421875,-0.95977783203125,0.28436279296875
1760105945461,1201411173,18661,2,0.0771484375,-0.94927978515625,0.28582763671875
1760105945461,1201411173,18661,3,0.052734375,-0.96612548828125,0.29266357421875
1760105945461,1201411173,18661,4,0.061279296875,-0.96246337890625,0.28753662109375
1760105945461,1201411173,18661,5,0.07373046875,-0.95220947265625,0.28704833984375
1760105945461,1201411173,18661,6,0.08056640625,-0.95416259765625,0.29510498046875
1760105945461,1201411173,18661,7,0.077880859375,-0.95196533203125,0.29339599609375
1760105945461,1201411173,18661,8,0.081298828125,-0.95147705078125,0.29730224609375
1760105945461,1201411173,18661,9,0.08154296875,-0.94781494140625,0.29071044921875
1760105945461,1201411173,18661,10,0.0712890625,-0.95782470703125,0.30511474609375
1760105945461,1201411173,18661,11,0.07958984375,-0.94952392578125,0.29412841796875
1760105945461,1201411173,18661,12,0.073974609375,-0.95465087890625,0.29754638671875
1760105945461,1201411173,18661,13,0.072021484375,-0.95709228515625,0.30072021484375
1760105945461,1201411173,18661,14,0.065673828125,-0.96783447265625,0.28387451171875
1760105945461,1201411173,18661,15,0.07373046875,-0.96026611328125,0.26898193359375
1760105945461,1201411173,18661,16,0.071044921875,-0.96783447265625,0.26116943359375
1760105945461,1201411173,18661,17,0.07763671875,-0.97857666015625,0.25799560546875
1760105945461,1201411173,18661,18,0.086669921875,-0.96270751953125,0.23822021484375
1760105945461,1201411173,18661,19,0.0732421875,-0.95880126953125,0.23870849609375
1760105945461,1201411173,18661,20,0.07177734375,-0.98004150390625,0.26263427734375
1760105945461,1201411173,18661,21,0.060302734375,-0.97808837890625,0.25482177734375
1760105945461,1201411173,18661,22,0.068115234375,-0.96173095703125,0.25628662109375
1760105945461,1201411173,18661,23,0.07666015625,-0.98223876953125,0.26409912109375
1760105945461,1201411173,18661,24,0.08056640625,-0.96026611328125,0.25701904296875
1760105945461,1201411173,18661,25,0.083740234375,-0.96343994140625,0.25775146484375
1760105945461,1201411173,18661,26,0.08251953125,-0.96734619140625,0.25140380859375
1760105945461,1201411173,18661,27,0.07373046875,-0.96563720703125,0.26043701171875
1760105945461,1201411173,18661,28,0.08154296875,-0.96490478515625,0.25408935546875
1760105945461,1201411173,18661,29,0.093017578125,-0.96295166015625,0.26751708984375
1760105945461,1201411173,18661,30,0.10205078125,-0.95928955078125,0.25701904296875
1760105945461,1201411173,18661,31,0.1015625,-0.95782470703125,0.26019287109375
1760105948046,1201413764,18662,0,0.103759765625,-0.96417236328125,0.26239013671875
1760105948046,1201413764,18662,1,0.09228515625,-0.95953369140625,0.25799560546875
1760105948046,1201413764,18662,2,0.077880859375,-0.96563720703125,0.26092529296875
1760105948046,1201413764,18662,3,0.0869140625,-0.96856689453125,0.25994873046875
1760105948046,1201413764,18662,4,0.08203125,-0.96514892578125,0.26068115234375
1760105948046,1201413764,18662,5,0.078857421875,-0.96783447265625,0.25579833984375
1760105948046,1201413764,18662,6,0.07275390625,-0.96978759765625,0.25579833984375
1760105948046,1201413764,18662,7,0.070556640625,-0.97467041015625,0.25506591796875
1760105948046,1201413764,18662,8,0.072998046875,-0.96588134765625,0.26873779296875
1760105948046,1201413764,18662,9,0.0673828125,-0.96588134765625,0.25677490234375
1760105948046,1201413764,18662,10,0.069580078125,-0.96539306640625,0.27191162109375
1760105948046,1201413764,18662,11,0.07080078125,-0.96636962890625,0.27069091796875
1760105948046,1201413764,18662,12,0.064453125,-0.96905517578125,0.27044677734375
1760105948046,1201413764,18662,13,0.06640625,-0.96221923828125,0.26312255859375
1760105948046,1201413764,18662,14,0.07421875,-0.96661376953125,0.26849365234375
1760105948046,1201413764,18662,15,0.070556640625,-0.96636962890625,0.26629638671875
1760105948046,1201413764,18662,16,0.074951171875,-0.95831298828125,0.26531982421875
1760105948046,1201413764,18662,17,0.06787109375,-0.96734619140625,0.27337646484375
1760105948046,1201413764,18662,18,0.069091796875,-0.96124267578125,0.26116943359375
1760105948046,1201413764,18662,19,0.0712890625,-0.96783447265625,0.26751708984375
1760105948046,1201413764,18662,20,0.077392578125,-0.96978759765625,0.26214599609375
1760105948046,1201413764,18662,21,0.088134765625,-0.95782470703125,0.25531005859375
1760105948046,1201413764,18662,22,0.084716796875,-0.96441650390625,0.26702880859375
1760105948046,1201413764,18662,23,0.0908203125,-0.96466064453125,0.26800537109375
1760105948046,1201413764,18662,24,0.080078125,-0.96514892578125,0.26971435546875
1760105948046,1201413764,18662,25,0.08251953125,-0.96026611328125,0.26727294921875
1760105948046,1201413764,18662,26,0.0859375,-0.95904541015625,0.26654052734375
1760105948046,1201413764,18662,27,0.08056640625,-0.96051025390625,0.26068115234375
1760105948046,1201413764,18662,28,0.083251953125,-0.96685791015625,0.26287841796875
1760105948046,1201413764,18662,29,0.083740234375,-0.96246337890625,0.26800537109375
1760105948046,1201413764,18662,30,0.080810546875,-0.96124267578125,0.26409912109375
1760105948046,1201413764,18662,31,0.078125,-0.96466064453125,0.26678466796875
1760105950632,1201416355,18663,0,0.078369140625,-0.96783447265625,0.26800537109375
1760105950632,1201416355,18663,1,0.080322265625,-0.96051025390625,0.27239990234375
1760105950632,1201416355,18663,2,0.0771484375,-0.95782470703125,0.27264404296875
1760105950632,1201416355,18663,3,0.074462890625,-0.95391845703125,0.27728271484375
1760105950632,1201416355,18663,4,0.0693359375,-0.97100830078125,0.27777099609375
1760105950632,1201416355,18663,5,0.08544921875,-0.96051025390625,0.28240966796875
1760105950632,1201416355,18663,6,0.089599609375,-0.95025634765625,0.28167724609375
1760105950632,1201416355,18663,7,0.071533203125,-0.95709228515625,0.29437255859375
1760105950632,1201416355,18663,8,0.063720703125,-0.96051025390625,0.29046630859375
1760105950632,1201416355,18663,9,0.0537109375,-0.95709228515625,0.28656005859375
1760105950632,1201416355,18663,10,0.050048828125,-0.96392822265625,0.28656005859375
1760105950632,1201416355,18663,11,0.0576171875,-0.96392822265625,0.27752685546875
1760105950632,1201416355,18663,12,0.0615234375,-0.96197509765625,0.28411865234375
1760105950632,1201416355,18663,13,0.072509765625,-0.95928955078125,0.27825927734375
1760105950632,1201416355,18663,14,0.0712890625,-0.95074462890625,0.28192138671875
1760105950632,1201416355,18663,15,0.0703125,-0.96148681640625,0.30657958984375
1760105950632,1201416355,18663,16,0.075927734375,-0.94219970703125,0.29534912109375
1760105950632,1201416355,18663,17,0.078369140625,-0.96270751953125,0.30389404296875
1760105950632,1201416355,18663,18,0.060791015625,-0.96124267578125,0.28680419921875
1760105950632,1201416355,18663,19,0.082275390625,-0.95098876953125,0.28289794921875
1760105950632,1201416355,18663,20,0.068603515625,-0.96197509765625,0.29827880859375
1760105950632,1201416355,18663,21,0.081298828125,-0.94952392578125,0.28314208984375
1760105950632,1201416355,18663,22,0.076904296875,-0.95074462890625,0.29193115234375
1760105950632,1201416355,18663,23,0.080322265625,-0.95977783203125,0.29852294921875
1760105950632,1201416355,18663,24,0.07373046875,-0.95001220703125,0.29510498046875
1760105950632,1201416355,18663,25,0.069580078125,-0.96588134765625,0.30755615234375
1760105950632,1201416355,18663,26,0.05078125,-0.94268798828125,0.29486083984375
1760105950632,1201416355,18663,27,0.065673828125,-0.94635009765625,0.30877685546875
1760105950632,1201416355,18663,28,0.065185546875,-0.94317626953125,0.30633544921875
1760105950632,1201416355,18663,29,0.053955078125,-0.95245361328125,0.31463623046875
1760105950632,1201416355,18663,30,0.072998046875,-0.94927978515625,0.31488037109375
1760105950632,1201416355,18663,31,0.060302734375,-0.94342041015625,0.30731201171875
1760105953212,1201418946,18664,0,0.051025390625,-0.95318603515625,0.31439208984375
1760105953212,1201418946,18664,1,0.053466796875,-0.95025634765625,0.30316162109375
1760105953212,1201418946,18664,2,0.06201171875,-0.95758056640625,0.29998779296875
1760105953212,1201418946,18664,3,0.06982421875,-0.95880126953125,0.29681396484375
1760105953212,1201418946,18664,4,0.06103515625,-0.96441650390625,0.29315185546875
1760105953212,1201418946,18664,5,0.068115234375,-0.95367431640625,0.29144287109375
1760105953212,1201418946,18664,6,0.0673828125,-0.97515869140625,0.28045654296875
1760105953212,1201418946,18664,7,0.07861328125,-0.95880126953125,0.27923583984375
1760105953212,1201418946,18664,8,0.079345703125,-0.96099853515625,0.28289794921875
1760105953212,1201418946,18664,9,0.08447265625,-0.96636962890625,0.27264404296875
1760105953212,1201418946,18664,10,0.090576171875,-0.96099853515625,0.25677490234375
1760105953212,1201418946,18664,11,0.09375,-0.96319580078125,0.24652099609375
1760105953212,1201418946,18664,12,0.092529296875,-0.96636962890625,0.23358154296875
1760105953212,1201418946,18664,13,0.095947265625,-0.95538330078125,0.22113037109375
1760105953212,1201418946,18664,14,0.101318359375,-0.96832275390625,0.22137451171875
1760105953212,1201418946,18664,15,0.090087890625,-0.99249267578125,0.23992919921875
1760105953212,1201418946,18664,16,0.080078125,-0.97930908203125,0.23553466796875
1760105953212,1201418946,18664,17,0.08447265625,-0.96929931640625,0.23309326171875
1760105953212,1201418946,18664,18,0.091064453125,-0.98541259765625,0.23504638671875
1760105953212,1201418946,18664,19,0.081787109375,-0.97003173828125,0.23016357421875
1760105953212,1201418946,18664,20,0.08984375,-0.97564697265625,0.23309326171875
1760105953212,1201418946,18664,21,0.084716796875,-0.98297119140625,0.23040771484375
1760105953212,1201418946,18664,22,0.0830078125,-0.98004150390625,0.23162841796875
1760105953212,1201418946,18664,23,0.09619140625,-0.97930908203125,0.22991943359375
1760105953212,1201418946,18664,24,0.083740234375,-0.96466064453125,0.22454833984375
1760105953212,1201418946,18664,25,0.08203125,-0.96685791015625,0.24114990234375
1760105953212,1201418946,18664,26,0.079345703125,-0.96685791015625,0.24749755859375
1760105953212,1201418946,18664,27,0.08349609375,-0.97003173828125,0.25238037109375
1760105953212,1201418946,18664,28,0.08251953125,-0.96392822265625,0.24505615234375
1760105953212,1201418946,18664,29,0.08544921875,-0.96295166015625,0.24847412109375
1760105953212,1201418946,18664,30,0.0888671875,-0.97125244140625,0.24896240234375
1760105953212,1201418946,18664,31,0.085205078125,-0.96563720703125,0.24114990234375
1760105955796,1201421537,18665,0,0.07861328125,-0.97589111328125,0.24700927734375
1760105955796,1201421537,18665,1,0.084716796875,-0.97369384765625,0.24334716796875
1760105955796,1201421537,18665,2,0.080078125,-0.97369384765625,0.24774169921875
1760105955796,1201421537,18665,3,0.081298828125,-0.96978759765625,0.24627685546875
1760105955796,1201421537,18665,4,0.08154296875,-0.97515869140625,0.25213623046875
1760105955796,1201421537,18665,5,0.080078125,-0.97076416015625,0.24676513671875
1760105955796,1201421537,18665,6,0.07861328125,-0.96197509765625,0.24920654296875
1760105955796,1201421537,18665,7,0.075927734375,-0.96954345703125,0.24554443359375
1760105955796,1201421537,18665,8,0.076171875,-0.98150634765625,0.24774169921875
1760105955796,1201421537,18665,9,0.08544921875,-0.97222900390625,0.23577880859375
1760105955796,1201421537,18665,10,0.101806640625,-0.96343994140625,0.24212646484375
1760105955796,1201421537,18665,11,0.09521484375,-0.97784423828125,0.23651123046875
1760105955796,1201421537,18665,12,0.10302734375,-0.97808837890625,0.23602294921875
1760105955796,1201421537,18665,13,0.1083984375,-0.96197509765625,0.23870849609375
1760105955796,1201421537,18665,14,0.09130859375,-0.97003173828125,0.24285888671875
1760105955796,1201421537,18665,15,0.0966796875,-0.96197509765625,0.23406982421875
1760105955796,1201421537,18665,16,0.0986328125,-0.96270751953125,0.25262451171875
1760105955796,1201421537,18665,17,0.08251953125,-0.96783447265625,0.25677490234375
1760105955796,1201421537,18665,18,0.08203125,-0.96295166015625,0.25335693359375
1760105955796,1201421537,18665,19,0.079833984375,-0.96734619140625,0.25677490234375
1760105955796,1201421537,18665,20,0.07470703125,-0.96905517578125,0.24749755859375
1760105955796,1201421537,18665,21,0.07421875,-0.97467041015625,0.24847412109375
1760105955796,1201421537,18665,22,0.075927734375,-0.97369384765625,0.25042724609375
1760105955796,1201421537,18665,23,0.076416015625,-0.96490478515625,0.25189208984375
1760105955796,1201421537,18665,24,0.06884765625,-0.97882080078125,0.24969482421875
1760105955796,1201421537,18665,25,0.05810546875,-0.98028564453125,0.24676513671875
1760105955796,1201421537,18665,26,0.0576171875,-0.96954345703125,0.24700927734375
1760105955796,1201421537,18665,27,0.078369140625,-0.97418212890625,0.25018310546875
1760105955796,1201421537,18665,28,0.07666015625,-0.97027587890625,0.25360107421875
1760105955796,1201421537,18665,29,0.06982421875,-0.97052001953125,0.25701904296875
1760105955796,1201421537,18665,30,0.074462890625,-0.96807861328125,0.25335693359375
1760105955796,1201421537,18665,31,0.069580078125,-0.97149658203125,0.25750732421875
1760105958382,1201424129,18666,0,0.06982421875,-0.96856689453125,0.25213623046875
1760105958382,1201424129,18666,1,0.072998046875,-0.96685791015625,0.25994873046875
1760105958382,1201424129,18666,2,0.083251953125,-0.96441650390625,0.25653076171875
1760105958382,1201424129,18666,3,0.08837890625,-0.96392822265625,0.26483154296875
1760105958382,1201424129,18666,4,0.08349609375,-0.96466064453125,0.26361083984375
1760105958382,1201424129,18666,5,0.09033203125,-0.95562744140625,0.25994873046875
1760105958382,1201424129,18666,6,0.0810546875,-0.96343994140625,0.27093505859375
1760105958382,1201424129,18666,7,0.08447265625,-0.96368408203125,0.26043701171875
1760105958382,1201424129,18666,8,0.082275390625,-0.95904541015625,0.26458740234375
1760105958382,1201424129,18666,9,0.080810546875,-0.96295166015625,0.26800537109375
1760105958382,1201424129,18666,10,0.077880859375,-0.96270751953125,0.26385498046875
1760105958382,1201424129,18666,11,0.074951171875,-0.96368408203125,0.26141357421875
1760105958382,1201424129,18666,12,0.0791015625,-0.96636962890625,0.26287841796875
1760105958382,1201424129,18666,13,0.07861328125,-0.96246337890625,0.26409912109375
1760105958382,1201424129,18666,14,0.073486328125,-0.96905517578125,0.26971435546875
1760105958382,1201424129,18666,15,0.075927734375,-0.96588134765625,0.25042724609375
1760105958382,1201424129,18666,16,0.068603515625,-0.97296142578125,0.25921630859375
1760105958382,1201424129,18666,17,0.07666015625,-0.97564697265625,0.26654052734375
1760105958382,1201424129,18666,18,0.08837890625,-0.96392822265625,0.26239013671875
1760105958382,1201424129,18666,19,0.089111328125,-0.95318603515625,0.26629638671875
1760105958382,1201424129,18666,20,0.086669921875,-0.94903564453125,0.27801513671875
1760105958382,1201424129,18666,21,0.077880859375,-0.95343017578125,0.29071044921875
1760105958382,1201424129,18666,22,0.086669921875,-0.95538330078125,0.28997802734375
1760105958382,1201424129,18666,23,0.092529296875,-0.95465087890625,0.29071044921875
1760105958382,1201424129,18666,24,0.094482421875,-0.95489501953125,0.28070068359375
1760105958382,1201424129,18666,25,0.086669921875,-0.95977783203125,0.27850341796875
1760105958382,1201424129,18666,26,0.083740234375,-0.96392822265625,0.27484130859375
1760105958382,1201424129,18666,27,0.077392578125,-0.96124267578125,0.27801513671875
1760105958382,1201424129,18666,28,0.071044921875,-0.96685791015625,0.28167724609375
1760105958382,1201424129,18666,29,0.076904296875,-0.96612548828125,0.27606201171875
1760105958382,1201424129,18666,30,0.06884765625,-0.96881103515625,0.27093505859375
1760105958382,1201424129,18666,31,0.074951171875,-0.95953369140625,0.26043701171875
