receivedPhoneTimestamp,respeckTimestamp,packetSeqNum,sampleSeqNum,accelX,accelY,accelZ
1759913240773,1008724173,9359,29,0.296875,-0.91925048828125,-0.31329345703125
1759913240773,1008724173,9359,30,0.290283203125,-0.93218994140625,-0.30474853515625
1759913240773,1008724173,9359,31,0.273681640625,-0.93243408203125,-0.30181884765625
1759913243618,1008726764,9360,0,0.27734375,-0.93365478515625,-0.30841064453125
1759913243618,1008726764,9360,1,0.288818359375,-0.92901611328125,-0.31134033203125
1759913243618,1008726764,9360,2,0.31298828125,-0.92047119140625,-0.33184814453125
1759913243618,1008726764,9360,3,0.3134765625,-0.91168212890625,-0.32427978515625
1759913243618,1008726764,9360,4,0.311767578125,-0.91973876953125,-0.32012939453125
1759913243618,1008726764,9360,5,0.295166015625,-0.92047119140625,-0.31500244140625
1759913243618,1008726764,9360,6,0.28662109375,-0.93096923828125,-0.30230712890625
1759913243618,1008726764,9360,7,0.27587890625,-0.93682861328125,-0.29083251953125
1759913243618,1008726764,9360,8,0.278564453125,-0.93707275390625,-0.29132080078125
1759913243618,1008726764,9360,9,0.2802734375,-0.93463134765625,-0.29742431640625
1759913243618,1008726764,9360,10,0.30078125,-0.93023681640625,-0.31353759765625
1759913243618,1008726764,9360,11,0.311279296875,-0.91705322265625,-0.31597900390625
1759913243618,1008726764,9360,12,0.325439453125,-0.91217041015625,-0.30718994140625
1759913243618,1008726764,9360,13,0.32666015625,-0.91925048828125,-0.29718017578125
1759913243618,1008726764,9360,14,0.31201171875,-0.93023681640625,-0.27545166015625
1759913243618,1008726764,9360,15,0.303466796875,-0.93829345703125,-0.27081298828125
1759913243618,1008726764,9360,16,0.290771484375,-0.93707275390625,-0.26861572265625
1759913243618,1008726764,9360,17,0.292724609375,-0.93463134765625,-0.25787353515625
1759913243618,1008726764,9360,18,0.306884765625,-0.93365478515625,-0.26202392578125
1759913243618,1008726764,9360,19,0.3115234375,-0.93096923828125,-0.28741455078125
1759913243618,1008726764,9360,20,0.304931640625,-0.92486572265625,-0.28302001953125
1759913243618,1008726764,9360,21,0.32373046875,-0.93341064453125,-0.27838134765625
1759913243618,1008726764,9360,22,0.31689453125,-0.92486572265625,-0.27496337890625
1759913243618,1008726764,9360,23,0.31640625,-0.92926025390625,-0.26788330078125
1759913243618,1008726764,9360,24,0.303955078125,-0.93194580078125,-0.26544189453125
1759913243618,1008726764,9360,25,0.298095703125,-0.93927001953125,-0.26055908203125
1759913243618,1008726764,9360,26,0.288330078125,-0.94024658203125,-0.25201416015625
1759913243618,1008726764,9360,27,0.292724609375,-0.94317626953125,-0.26202392578125
1759913243618,1008726764,9360,28,0.295166015625,-0.93853759765625,-0.26617431640625
1759913243618,1008726764,9360,29,0.31396484375,-0.92974853515625,-0.26129150390625
1759913243618,1008726764,9360,30,0.329833984375,-0.92828369140625,-0.26373291015625
1759913243618,1008726764,9360,31,0.328125,-0.93267822265625,-0.26031494140625
1759913246022,1008729355,9361,0,0.313232421875,-0.92681884765625,-0.24737548828125
1759913246022,1008729355,9361,1,0.30224609375,-0.94610595703125,-0.23956298828125
1759913246022,1008729355,9361,2,0.2822265625,-0.94586181640625,-0.23199462890625
1759913246022,1008729355,9361,3,0.279052734375,-0.95269775390625,-0.22906494140625
1759913246022,1008729355,9361,4,0.286865234375,-0.94781494140625,-0.23956298828125
1759913246022,1008729355,9361,5,0.2958984375,-0.94146728515625,-0.23785400390625
1759913246022,1008729355,9361,6,0.30859375,-0.94293212890625,-0.24688720703125
1759913246022,1008729355,9361,7,0.315673828125,-0.93170166015625,-0.25738525390625
1759913246022,1008729355,9361,8,0.314697265625,-0.93829345703125,-0.25225830078125
1759913246022,1008729355,9361,9,0.305908203125,-0.93658447265625,-0.24639892578125
1759913246022,1008729355,9361,10,0.296142578125,-0.94708251953125,-0.24151611328125
1759913246022,1008729355,9361,11,0.289306640625,-0.94146728515625,-0.23785400390625
1759913246022,1008729355,9361,12,0.287109375,-0.94708251953125,-0.24249267578125
1759913246022,1008729355,9361,13,0.29248046875,-0.94610595703125,-0.25079345703125
1759913246022,1008729355,9361,14,0.299072265625,-0.93829345703125,-0.25469970703125
1759913246022,1008729355,9361,15,0.3173828125,-0.93438720703125,-0.26739501953125
1759913246022,1008729355,9361,16,0.319580078125,-0.92974853515625,-0.26055908203125
1759913246022,1008729355,9361,17,0.30908203125,-0.93341064453125,-0.24664306640625
1759913246022,1008729355,9361,18,0.296875,-0.93902587890625,-0.25177001953125
1759913246022,1008729355,9361,19,0.283203125,-0.93023681640625,-0.26446533203125
1759913246022,1008729355,9361,20,0.28759765625,-0.94708251953125,-0.29742431640625
1759913246022,1008729355,9361,21,0.279296875,-0.92755126953125,-0.31695556640625
1759913246022,1008729355,9361,22,0.310546875,-0.91900634765625,-0.33306884765625
1759913246022,1008729355,9361,23,0.32080078125,-0.91802978515625,-0.31671142578125
1759913246022,1008729355,9361,24,0.314697265625,-0.91632080078125,-0.30499267578125
1759913246022,1008729355,9361,25,0.310546875,-0.92071533203125,-0.30841064453125
1759913246022,1008729355,9361,26,0.301513671875,-0.91973876953125,-0.30865478515625
1759913246022,1008729355,9361,27,0.300537109375,-0.92193603515625,-0.31524658203125
1759913246022,1008729355,9361,28,0.29638671875,-0.92535400390625,-0.31793212890625
1759913246022,1008729355,9361,29,0.285888671875,-0.92877197265625,-0.31304931640625
1759913246022,1008729355,9361,30,0.294921875,-0.92999267578125,-0.31890869140625
1759913246022,1008729355,9361,31,0.299072265625,-0.92095947265625,-0.31939697265625
1759913248572,1008731946,9362,0,0.3115234375,-0.91900634765625,-0.32574462890625
1759913248572,1008731946,9362,1,0.31494140625,-0.91510009765625,-0.32550048828125
1759913248572,1008731946,9362,2,0.315185546875,-0.91436767578125,-0.31915283203125
1759913248572,1008731946,9362,3,0.307861328125,-0.91802978515625,-0.31793212890625
1759913248572,1008731946,9362,4,0.2998046875,-0.92828369140625,-0.31158447265625
1759913248572,1008731946,9362,5,0.28857421875,-0.93121337890625,-0.29986572265625
1759913248572,1008731946,9362,6,0.283935546875,-0.93365478515625,-0.30694580078125
1759913248572,1008731946,9362,7,0.287109375,-0.92828369140625,-0.30499267578125
1759913248572,1008731946,9362,8,0.294189453125,-0.92657470703125,-0.30548095703125
1759913248572,1008731946,9362,9,0.30712890625,-0.92071533203125,-0.31719970703125
1759913248572,1008731946,9362,10,0.31787109375,-0.91680908203125,-0.32818603515625
1759913248572,1008731946,9362,11,0.318115234375,-0.91729736328125,-0.31964111328125
1759913248572,1008731946,9362,12,0.302734375,-0.91973876953125,-0.30108642578125
1759913248572,1008731946,9362,13,0.296630859375,-0.93121337890625,-0.29815673828125
1759913248572,1008731946,9362,14,0.28466796875,-0.93463134765625,-0.29083251953125
1759913248572,1008731946,9362,15,0.27685546875,-0.93389892578125,-0.29156494140625
1759913248572,1008731946,9362,16,0.2861328125,-0.93438720703125,-0.29400634765625
1759913248572,1008731946,9362,17,0.290283203125,-0.92852783203125,-0.29547119140625
1759913248572,1008731946,9362,18,0.313720703125,-0.92218017578125,-0.31207275390625
1759913248572,1008731946,9362,19,0.313232421875,-0.91632080078125,-0.31500244140625
1759913248572,1008731946,9362,20,0.31494140625,-0.91802978515625,-0.31085205078125
1759913248572,1008731946,9362,21,0.3046875,-0.92437744140625,-0.30084228515625
1759913248572,1008731946,9362,22,0.29638671875,-0.93023681640625,-0.28546142578125
1759913248572,1008731946,9362,23,0.284912109375,-0.93707275390625,-0.28424072265625
1759913248572,1008731946,9362,24,0.27978515625,-0.93658447265625,-0.28375244140625
1759913248572,1008731946,9362,25,0.2880859375,-0.93414306640625,-0.28765869140625
1759913248572,1008731946,9362,26,0.293212890625,-0.92999267578125,-0.29302978515625
1759913248572,1008731946,9362,27,0.310791015625,-0.92926025390625,-0.30572509765625
1759913248572,1008731946,9362,28,0.314208984375,-0.92266845703125,-0.30377197265625
1759913248572,1008731946,9362,29,0.315185546875,-0.92266845703125,-0.29986572265625
1759913248572,1008731946,9362,30,0.30712890625,-0.92681884765625,-0.28741455078125
1759913248572,1008731946,9362,31,0.287841796875,-0.93756103515625,-0.26934814453125
1759913251271,1008734538,9363,0,0.27880859375,-0.94171142578125,-0.25909423828125
1759913251271,1008734538,9363,1,0.28955078125,-0.93951416015625,-0.26715087890625
1759913251271,1008734538,9363,2,0.297607421875,-0.93536376953125,-0.26397705078125
1759913251271,1008734538,9363,3,0.3095703125,-0.93243408203125,-0.27618408203125
1759913251271,1008734538,9363,4,0.31494140625,-0.93316650390625,-0.27862548828125
1759913251271,1008734538,9363,5,0.320556640625,-0.92559814453125,-0.27325439453125
1759913251271,1008734538,9363,6,0.31640625,-0.92974853515625,-0.26422119140625
1759913251271,1008734538,9363,7,0.301025390625,-0.93878173828125,-0.25250244140625
1759913251271,1008734538,9363,8,0.285400390625,-0.94610595703125,-0.24981689453125
1759913251271,1008734538,9363,9,0.282470703125,-0.94927978515625,-0.24322509765625
1759913251271,1008734538,9363,10,0.291015625,-0.94293212890625,-0.24810791015625
1759913251271,1008734538,9363,11,0.297607421875,-0.94390869140625,-0.25299072265625
1759913251271,1008734538,9363,12,0.3115234375,-0.93804931640625,-0.26641845703125
1759913251271,1008734538,9363,13,0.318115234375,-0.92999267578125,-0.27325439453125
1759913251271,1008734538,9363,14,0.31201171875,-0.92999267578125,-0.25885009765625
1759913251271,1008734538,9363,15,0.30419921875,-0.93780517578125,-0.24810791015625
1759913251271,1008734538,9363,16,0.290283203125,-0.94415283203125,-0.23931884765625
1759913251271,1008734538,9363,17,0.276123046875,-0.94342041015625,-0.24664306640625
1759913251271,1008734538,9363,18,0.290771484375,-0.94512939453125,-0.23663330078125
1759913251271,1008734538,9363,19,0.3017578125,-0.93951416015625,-0.27130126953125
1759913251271,1008734538,9363,20,0.3076171875,-0.93145751953125,-0.27911376953125
1759913251271,1008734538,9363,21,0.314453125,-0.92486572265625,-0.30035400390625
1759913251271,1008734538,9363,22,0.31005859375,-0.92828369140625,-0.29595947265625
1759913251271,1008734538,9363,23,0.291748046875,-0.92706298828125,-0.29010009765625
1759913251271,1008734538,9363,24,0.28369140625,-0.93829345703125,-0.29937744140625
1759913251271,1008734538,9363,25,0.273681640625,-0.93634033203125,-0.29840087890625
1759913251271,1008734538,9363,26,0.289306640625,-0.93145751953125,-0.30645751953125
1759913251271,1008734538,9363,27,0.298583984375,-0.92706298828125,-0.30377197265625
1759913251271,1008734538,9363,28,0.310791015625,-0.92462158203125,-0.30767822265625
1759913251271,1008734538,9363,29,0.31982421875,-0.91534423828125,-0.31524658203125
1759913251271,1008734538,9363,30,0.322265625,-0.91802978515625,-0.31280517578125
1759913251271,1008734538,9363,31,0.30419921875,-0.92340087890625,-0.30035400390625
1759913253823,1008737129,9364,0,0.296142578125,-0.92706298828125,-0.30426025390625
1759913253823,1008737129,9364,1,0.281982421875,-0.93438720703125,-0.29278564453125
1759913253823,1008737129,9364,2,0.283447265625,-0.93585205078125,-0.30328369140625
1759913253823,1008737129,9364,3,0.291748046875,-0.93048095703125,-0.30303955078125
1759913253823,1008737129,9364,4,0.298095703125,-0.92584228515625,-0.31011962890625
1759913253823,1008737129,9364,5,0.3076171875,-0.92071533203125,-0.31573486328125
1759913253823,1008737129,9364,6,0.317138671875,-0.91900634765625,-0.31573486328125
1759913253823,1008737129,9364,7,0.296875,-0.92413330078125,-0.30230712890625
1759913253823,1008737129,9364,8,0.30078125,-0.92999267578125,-0.29937744140625
1759913253823,1008737129,9364,9,0.285400390625,-0.93511962890625,-0.28863525390625
1759913253823,1008737129,9364,10,0.281982421875,-0.93609619140625,-0.28302001953125
1759913253823,1008737129,9364,11,0.286376953125,-0.93609619140625,-0.29132080078125
1759913253823,1008737129,9364,12,0.29296875,-0.93170166015625,-0.30303955078125
1759913253823,1008737129,9364,13,0.31396484375,-0.91949462890625,-0.30987548828125
1759913253823,1008737129,9364,14,0.322509765625,-0.91607666015625,-0.30865478515625
1759913253823,1008737129,9364,15,0.30615234375,-0.91998291015625,-0.30548095703125
1759913253823,1008737129,9364,16,0.29931640625,-0.93145751953125,-0.29864501953125
1759913253823,1008737129,9364,17,0.27978515625,-0.93389892578125,-0.29034423828125
1759913253823,1008737129,9364,18,0.279541015625,-0.94073486328125,-0.28228759765625
1759913253823,1008737129,9364,19,0.28759765625,-0.93341064453125,-0.28643798828125
1759913253823,1008737129,9364,20,0.29736328125,-0.92950439453125,-0.29376220703125
1759913253823,1008737129,9364,21,0.308349609375,-0.92535400390625,-0.30010986328125
1759913253823,1008737129,9364,22,0.30615234375,-0.92633056640625,-0.30670166015625
1759913253823,1008737129,9364,23,0.29833984375,-0.92462158203125,-0.30230712890625
1759913253823,1008737129,9364,24,0.313720703125,-0.92388916015625,-0.29913330078125
1759913253823,1008737129,9364,25,0.297119140625,-0.93096923828125,-0.28155517578125
1759913253823,1008737129,9364,26,0.277587890625,-0.93853759765625,-0.26983642578125
1759913253823,1008737129,9364,27,0.27783203125,-0.94244384765625,-0.27667236328125
1759913253823,1008737129,9364,28,0.291015625,-0.93365478515625,-0.28155517578125
1759913253823,1008737129,9364,29,0.293212890625,-0.93389892578125,-0.28497314453125
1759913253823,1008737129,9364,30,0.302734375,-0.93145751953125,-0.29400634765625
1759913253823,1008737129,9364,31,0.30712890625,-0.92510986328125,-0.30523681640625
1759913256521,1008739720,9365,0,0.30810546875,-0.92486572265625,-0.29449462890625
1759913256521,1008739720,9365,1,0.29736328125,-0.93023681640625,-0.29083251953125
1759913256521,1008739720,9365,2,0.288818359375,-0.93560791015625,-0.28448486328125
1759913256521,1008739720,9365,3,0.2861328125,-0.93780517578125,-0.27960205078125
1759913256521,1008739720,9365,4,0.283203125,-0.93634033203125,-0.27423095703125
1759913256521,1008739720,9365,5,0.29345703125,-0.93389892578125,-0.28057861328125
1759913256521,1008739720,9365,6,0.29638671875,-0.93487548828125,-0.28057861328125
1759913256521,1008739720,9365,7,0.306396484375,-0.93389892578125,-0.29132080078125
1759913256521,1008739720,9365,8,0.3076171875,-0.92413330078125,-0.29449462890625
1759913256521,1008739720,9365,9,0.31396484375,-0.92852783203125,-0.27935791015625
1759913256521,1008739720,9365,10,0.298095703125,-0.93267822265625,-0.26959228515625
1759913256521,1008739720,9365,11,0.28662109375,-0.94195556640625,-0.26177978515625
1759913256521,1008739720,9365,12,0.27978515625,-0.94561767578125,-0.25933837890625
1759913256521,1008739720,9365,13,0.280517578125,-0.94000244140625,-0.27105712890625
1759913256521,1008739720,9365,14,0.297119140625,-0.93658447265625,-0.27325439453125
1759913256521,1008739720,9365,15,0.299072265625,-0.93707275390625,-0.27520751953125
1759913256521,1008739720,9365,16,0.31640625,-0.93194580078125,-0.28961181640625
1759913256521,1008739720,9365,17,0.29833984375,-0.92633056640625,-0.27838134765625
1759913256521,1008739720,9365,18,0.2998046875,-0.93389892578125,-0.27105712890625
1759913256521,1008739720,9365,19,0.2841796875,-0.93731689453125,-0.26983642578125
1759913256521,1008739720,9365,20,0.27734375,-0.94171142578125,-0.27911376953125
1759913256521,1008739720,9365,21,0.27734375,-0.93389892578125,-0.28277587890625
1759913256521,1008739720,9365,22,0.292724609375,-0.93194580078125,-0.30133056640625
1759913256521,1008739720,9365,23,0.298095703125,-0.92828369140625,-0.30694580078125
1759913256521,1008739720,9365,24,0.302734375,-0.92169189453125,-0.31573486328125
1759913256521,1008739720,9365,25,0.30859375,-0.92144775390625,-0.33453369140625
1759913256521,1008739720,9365,26,0.2978515625,-0.92169189453125,-0.30938720703125
1759913256521,1008739720,9365,27,0.294921875,-0.92852783203125,-0.30572509765625
1759913256521,1008739720,9365,28,0.27734375,-0.93414306640625,-0.29156494140625
1759913256521,1008739720,9365,29,0.27294921875,-0.93975830078125,-0.28961181640625
1759913256521,1008739720,9365,30,0.27978515625,-0.93365478515625,-0.29302978515625
1759913256521,1008739720,9365,31,0.29248046875,-0.92852783203125,-0.29205322265625
1759913258921,1008742311,9366,0,0.306640625,-0.92462158203125,-0.31231689453125
1759913258921,1008742311,9366,1,0.313720703125,-0.92266845703125,-0.31500244140625
1759913258921,1008742311,9366,2,0.310302734375,-0.92218017578125,-0.30670166015625
1759913258921,1008742311,9366,3,0.300537109375,-0.92852783203125,-0.30450439453125
1759913258921,1008742311,9366,4,0.28271484375,-0.93316650390625,-0.28472900390625
1759913258921,1008742311,9366,5,0.272216796875,-0.94097900390625,-0.28106689453125
1759913258921,1008742311,9366,6,0.2841796875,-0.93804931640625,-0.27838134765625
1759913258921,1008742311,9366,7,0.287109375,-0.93145751953125,-0.28765869140625
1759913258921,1008742311,9366,8,0.302734375,-0.93292236328125,-0.30377197265625
1759913258921,1008742311,9366,9,0.311279296875,-0.92535400390625,-0.31231689453125
1759913258921,1008742311,9366,10,0.3076171875,-0.92291259765625,-0.30035400390625
1759913258921,1008742311,9366,11,0.302978515625,-0.92877197265625,-0.29132080078125
1759913258921,1008742311,9366,12,0.298583984375,-0.93389892578125,-0.28009033203125
1759913258921,1008742311,9366,13,0.275146484375,-0.94219970703125,-0.27618408203125
1759913258921,1008742311,9366,14,0.279052734375,-0.94195556640625,-0.27667236328125
1759913258921,1008742311,9366,15,0.2900390625,-0.93511962890625,-0.28155517578125
1759913258921,1008742311,9366,16,0.2919921875,-0.93414306640625,-0.28302001953125
1759913258921,1008742311,9366,17,0.291748046875,-0.93414306640625,-0.28741455078125
1759913258921,1008742311,9366,18,0.304443359375,-0.93072509765625,-0.29351806640625
1759913258921,1008742311,9366,19,0.30419921875,-0.92950439453125,-0.29107666015625
1759913258921,1008742311,9366,20,0.29931640625,-0.92974853515625,-0.27716064453125
1759913258921,1008742311,9366,21,0.291015625,-0.93634033203125,-0.26641845703125
1759913258921,1008742311,9366,22,0.277099609375,-0.94024658203125,-0.26300048828125
1759913258921,1008742311,9366,23,0.282958984375,-0.94586181640625,-0.26446533203125
1759913258921,1008742311,9366,24,0.287353515625,-0.93682861328125,-0.27032470703125
1759913258921,1008742311,9366,25,0.30224609375,-0.93731689453125,-0.28228759765625
1759913258921,1008742311,9366,26,0.293701171875,-0.92974853515625,-0.28106689453125
1759913258921,1008742311,9366,27,0.307373046875,-0.93316650390625,-0.28863525390625
1759913258921,1008742311,9366,28,0.304931640625,-0.92730712890625,-0.28228759765625
1759913258921,1008742311,9366,29,0.295654296875,-0.93414306640625,-0.27349853515625
1759913258921,1008742311,9366,30,0.2880859375,-0.94097900390625,-0.26397705078125
1759913258921,1008742311,9366,31,0.2763671875,-0.94781494140625,-0.25860595703125
1759913261621,1008744902,9367,0,0.274658203125,-0.94610595703125,-0.25909423828125
1759913261621,1008744902,9367,1,0.2900390625,-0.94073486328125,-0.26324462890625
1759913261621,1008744902,9367,2,0.298828125,-0.93560791015625,-0.27813720703125
1759913261621,1008744902,9367,3,0.30126953125,-0.93585205078125,-0.27325439453125
1759913261621,1008744902,9367,4,0.303955078125,-0.93536376953125,-0.27081298828125
1759913261621,1008744902,9367,5,0.301025390625,-0.93414306640625,-0.26226806640625
1759913261621,1008744902,9367,6,0.296875,-0.93634033203125,-0.26055908203125
1759913261621,1008744902,9367,7,0.282470703125,-0.94317626953125,-0.25128173828125
1759913261621,1008744902,9367,8,0.27490234375,-0.95001220703125,-0.24371337890625
1759913261621,1008744902,9367,9,0.277099609375,-0.94952392578125,-0.24176025390625
1759913261621,1008744902,9367,10,0.28857421875,-0.94293212890625,-0.24615478515625
1759913261621,1008744902,9367,11,0.29638671875,-0.94195556640625,-0.26080322265625
1759913261621,1008744902,9367,12,0.3037109375,-0.93975830078125,-0.26300048828125
1759913261621,1008744902,9367,13,0.305908203125,-0.93853759765625,-0.26177978515625
1759913261621,1008744902,9367,14,0.302001953125,-0.93878173828125,-0.24810791015625
1759913261621,1008744902,9367,15,0.28955078125,-0.94659423828125,-0.24078369140625
1759913261621,1008744902,9367,16,0.2763671875,-0.94635009765625,-0.23028564453125
1759913261621,1008744902,9367,17,0.278076171875,-0.95440673828125,-0.22979736328125
1759913261621,1008744902,9367,18,0.285400390625,-0.94561767578125,-0.23712158203125
1759913261621,1008744902,9367,19,0.2939453125,-0.94439697265625,-0.24102783203125
1759913261621,1008744902,9367,20,0.298583984375,-0.94464111328125,-0.25592041015625
1759913261621,1008744902,9367,21,0.29248046875,-0.94293212890625,-0.25347900390625
1759913261621,1008744902,9367,22,0.306884765625,-0.93927001953125,-0.25054931640625
1759913261621,1008744902,9367,23,0.3046875,-0.93365478515625,-0.24664306640625
1759913261621,1008744902,9367,24,0.2890625,-0.94439697265625,-0.23565673828125
1759913261621,1008744902,9367,25,0.27734375,-0.94219970703125,-0.23614501953125
1759913261621,1008744902,9367,26,0.285400390625,-0.94635009765625,-0.29278564453125
1759913261621,1008744902,9367,27,0.281494140625,-0.93560791015625,-0.28839111328125
1759913261621,1008744902,9367,28,0.31005859375,-0.93170166015625,-0.30767822265625
1759913261621,1008744902,9367,29,0.304931640625,-0.92535400390625,-0.29669189453125
1759913261621,1008744902,9367,30,0.312255859375,-0.92388916015625,-0.30596923828125
1759913261621,1008744902,9367,31,0.308349609375,-0.92144775390625,-0.29962158203125
1759913264172,1008747493,9368,0,0.294921875,-0.93341064453125,-0.28717041015625
1759913264172,1008747493,9368,1,0.28271484375,-0.93487548828125,-0.27838134765625
1759913264172,1008747493,9368,2,0.27783203125,-0.94024658203125,-0.26593017578125
1759913264172,1008747493,9368,3,0.27978515625,-0.93609619140625,-0.27935791015625
1759913264172,1008747493,9368,4,0.29638671875,-0.93487548828125,-0.30181884765625
1759913264172,1008747493,9368,5,0.30419921875,-0.92364501953125,-0.30328369140625
1759913264172,1008747493,9368,6,0.31787109375,-0.92120361328125,-0.30670166015625
1759913264172,1008747493,9368,7,0.31201171875,-0.92242431640625,-0.30059814453125
1759913264172,1008747493,9368,8,0.302734375,-0.92706298828125,-0.29058837890625
1759913264172,1008747493,9368,9,0.2978515625,-0.93170166015625,-0.27984619140625
1759913264172,1008747493,9368,10,0.2822265625,-0.93853759765625,-0.27374267578125
1759913264172,1008747493,9368,11,0.2705078125,-0.94293212890625,-0.27105712890625
1759913264172,1008747493,9368,12,0.27978515625,-0.94415283203125,-0.28594970703125
1759913264172,1008747493,9368,13,0.289794921875,-0.93194580078125,-0.28277587890625
1759913264172,1008747493,9368,14,0.308349609375,-0.92828369140625,-0.30133056640625
1759913264172,1008747493,9368,15,0.306884765625,-0.92144775390625,-0.30767822265625
1759913264172,1008747493,9368,16,0.310546875,-0.92706298828125,-0.30206298828125
1759913264172,1008747493,9368,17,0.30322265625,-0.92584228515625,-0.29473876953125
1759913264172,1008747493,9368,18,0.294921875,-0.93341064453125,-0.27838134765625
1759913264172,1008747493,9368,19,0.27587890625,-0.94390869140625,-0.26715087890625
1759913264172,1008747493,9368,20,0.26416015625,-0.95196533203125,-0.26324462890625
1759913264172,1008747493,9368,21,0.288818359375,-0.94049072265625,-0.27032470703125
1759913264172,1008747493,9368,22,0.306396484375,-0.92755126953125,-0.28179931640625
1759913264172,1008747493,9368,23,0.31640625,-0.92803955078125,-0.28009033203125
1759913264172,1008747493,9368,24,0.3056640625,-0.93780517578125,-0.28570556640625
1759913264172,1008747493,9368,25,0.309326171875,-0.92877197265625,-0.27716064453125
1759913264172,1008747493,9368,26,0.305908203125,-0.92901611328125,-0.26226806640625
1759913264172,1008747493,9368,27,0.284912109375,-0.94244384765625,-0.25079345703125
1759913264172,1008747493,9368,28,0.27197265625,-0.95074462890625,-0.25738525390625
1759913264172,1008747493,9368,29,0.2744140625,-0.94635009765625,-0.25250244140625
1759913264172,1008747493,9368,30,0.301025390625,-0.93878173828125,-0.26568603515625
1759913264172,1008747493,9368,31,0.317626953125,-0.92828369140625,-0.27130126953125
1759913266722,1008750085,9369,0,0.303466796875,-0.93438720703125,-0.26934814453125
1759913266722,1008750085,9369,1,0.3037109375,-0.93707275390625,-0.25860595703125
1759913266722,1008750085,9369,2,0.308349609375,-0.93487548828125,-0.25299072265625
1759913266722,1008750085,9369,3,0.296630859375,-0.93853759765625,-0.24224853515625
1759913266722,1008750085,9369,4,0.281982421875,-0.95074462890625,-0.24591064453125
1759913266722,1008750085,9369,5,0.277099609375,-0.95050048828125,-0.23565673828125
1759913266722,1008750085,9369,6,0.300537109375,-0.94293212890625,-0.24688720703125
1759913266722,1008750085,9369,7,0.31298828125,-0.93365478515625,-0.25518798828125
1759913266722,1008750085,9369,8,0.2998046875,-0.94122314453125,-0.25689697265625
1759913266722,1008750085,9369,9,0.313232421875,-0.93804931640625,-0.25543212890625
1759913266722,1008750085,9369,10,0.30810546875,-0.93365478515625,-0.24932861328125
1759913266722,1008750085,9369,11,0.2978515625,-0.94512939453125,-0.24249267578125
1759913266722,1008750085,9369,12,0.27490234375,-0.94854736328125,-0.22979736328125
1759913266722,1008750085,9369,13,0.279541015625,-0.95782470703125,-0.22686767578125
1759913266722,1008750085,9369,14,0.2890625,-0.94586181640625,-0.23150634765625
1759913266722,1008750085,9369,15,0.304931640625,-0.94415283203125,-0.24517822265625
1759913266722,1008750085,9369,16,0.3076171875,-0.93511962890625,-0.24517822265625
1759913266722,1008750085,9369,17,0.30224609375,-0.94415283203125,-0.24468994140625
1759913266722,1008750085,9369,18,0.31005859375,-0.93511962890625,-0.25030517578125
1759913266722,1008750085,9369,19,0.30615234375,-0.93975830078125,-0.24298095703125
1759913266722,1008750085,9369,20,0.28759765625,-0.94268798828125,-0.22906494140625
1759913266722,1008750085,9369,21,0.267333984375,-0.95294189453125,-0.22906494140625
1759913266722,1008750085,9369,22,0.2890625,-0.95001220703125,-0.24591064453125
1759913266722,1008750085,9369,23,0.291748046875,-0.93438720703125,-0.25689697265625
1759913266722,1008750085,9369,24,0.31396484375,-0.93463134765625,-0.27960205078125
1759913266722,1008750085,9369,25,0.30810546875,-0.92486572265625,-0.28887939453125
1759913266722,1008750085,9369,26,0.3134765625,-0.92706298828125,-0.29278564453125
1759913266722,1008750085,9369,27,0.30078125,-0.92755126953125,-0.28057861328125
1759913266722,1008750085,9369,28,0.291259765625,-0.94195556640625,-0.27203369140625
1759913266722,1008750085,9369,29,0.291748046875,-0.93927001953125,-0.26470947265625
1759913266722,1008750085,9369,30,0.298828125,-0.93560791015625,-0.27740478515625
1759913266722,1008750085,9369,31,0.310546875,-0.92413330078125,-0.28326416015625
1759913269422,1008752676,9370,0,0.326416015625,-0.91827392578125,-0.29888916015625
1759913269422,1008752676,9370,1,0.310546875,-0.92266845703125,-0.28399658203125
1759913269422,1008752676,9370,2,0.29248046875,-0.93756103515625,-0.28179931640625
1759913269422,1008752676,9370,3,0.279541015625,-0.94146728515625,-0.26885986328125
1759913269422,1008752676,9370,4,0.291015625,-0.93804931640625,-0.26812744140625
1759913269422,1008752676,9370,5,0.300537109375,-0.93023681640625,-0.28472900390625
1759913269422,1008752676,9370,6,0.31201171875,-0.92657470703125,-0.29522705078125
1759913269422,1008752676,9370,7,0.324462890625,-0.92120361328125,-0.28985595703125
1759913269422,1008752676,9370,8,0.319580078125,-0.92144775390625,-0.28668212890625
1759913269422,1008752676,9370,9,0.294677734375,-0.93365478515625,-0.26812744140625
1759913269422,1008752676,9370,10,0.2822265625,-0.94659423828125,-0.26470947265625
1759913269422,1008752676,9370,11,0.284423828125,-0.94171142578125,-0.26617431640625
1759913269422,1008752676,9370,12,0.300537109375,-0.93194580078125,-0.28179931640625
1759913269422,1008752676,9370,13,0.314697265625,-0.92681884765625,-0.29742431640625
1759913269422,1008752676,9370,14,0.31689453125,-0.92462158203125,-0.30401611328125
1759913269422,1008752676,9370,15,0.316162109375,-0.92193603515625,-0.29278564453125
1759913269422,1008752676,9370,16,0.30322265625,-0.93023681640625,-0.28424072265625
1759913269422,1008752676,9370,17,0.2861328125,-0.93975830078125,-0.26300048828125
1759913269422,1008752676,9370,18,0.278564453125,-0.94512939453125,-0.26055908203125
1759913269422,1008752676,9370,19,0.298828125,-0.93292236328125,-0.27984619140625
1759913269422,1008752676,9370,20,0.311767578125,-0.92926025390625,-0.28643798828125
1759913269422,1008752676,9370,21,0.320556640625,-0.92047119140625,-0.30377197265625
1759913269422,1008752676,9370,22,0.3125,-0.92266845703125,-0.29547119140625
1759913269422,1008752676,9370,23,0.312255859375,-0.92266845703125,-0.28521728515625
1759913269422,1008752676,9370,24,0.298095703125,-0.93634033203125,-0.27691650390625
1759913269422,1008752676,9370,25,0.29052734375,-0.94073486328125,-0.26690673828125
1759913269422,1008752676,9370,26,0.296875,-0.93707275390625,-0.27105712890625
1759913269422,1008752676,9370,27,0.302734375,-0.93194580078125,-0.28277587890625
1759913269422,1008752676,9370,28,0.31103515625,-0.92730712890625,-0.28399658203125
1759913269422,1008752676,9370,29,0.320068359375,-0.92364501953125,-0.28765869140625
1759913269422,1008752676,9370,30,0.314453125,-0.93096923828125,-0.28155517578125
1759913269422,1008752676,9370,31,0.302734375,-0.92926025390625,-0.26763916015625
1759913272116,1008755267,9371,0,0.294189453125,-0.93951416015625,-0.25885009765625
1759913272116,1008755267,9371,1,0.28466796875,-0.94390869140625,-0.25128173828125
1759913272116,1008755267,9371,2,0.29345703125,-0.94439697265625,-0.26763916015625
1759913272116,1008755267,9371,3,0.297607421875,-0.93560791015625,-0.27349853515625
1759913272116,1008755267,9371,4,0.3125,-0.93096923828125,-0.28155517578125
1759913272116,1008755267,9371,5,0.319580078125,-0.92510986328125,-0.27935791015625
1759913272116,1008755267,9371,6,0.308837890625,-0.92999267578125,-0.26715087890625
1759913272116,1008755267,9371,7,0.28955078125,-0.94000244140625,-0.25860595703125
1759913272116,1008755267,9371,8,0.2841796875,-0.94879150390625,-0.24761962890625
1759913272116,1008755267,9371,9,0.288818359375,-0.94195556640625,-0.24932861328125
1759913272116,1008755267,9371,10,0.292236328125,-0.94268798828125,-0.26007080078125
1759913272116,1008755267,9371,11,0.3125,-0.93096923828125,-0.26690673828125
1759913272116,1008755267,9371,12,0.31396484375,-0.93341064453125,-0.26959228515625
1759913272116,1008755267,9371,13,0.30126953125,-0.93218994140625,-0.25909423828125
1759913272116,1008755267,9371,14,0.294189453125,-0.94586181640625,-0.25250244140625
1759913272116,1008755267,9371,15,0.285888671875,-0.94512939453125,-0.25299072265625
1759913272116,1008755267,9371,16,0.281494140625,-0.94732666015625,-0.25006103515625
1759913272116,1008755267,9371,17,0.285888671875,-0.93756103515625,-0.25982666015625
1759913272116,1008755267,9371,18,0.29736328125,-0.93560791015625,-0.26055908203125
