receivedPhoneTimestamp,respeckTimestamp,packetSeqNum,sampleSeqNum,accelX,accelY,accelZ
1759867861727,1055586648,20361,0,-0.231201171875,-0.67169189453125,0.65985107421875
1759867861727,1055586648,20361,1,-0.250244140625,-0.72393798828125,0.65106201171875
1759867861727,1055586648,20361,2,-0.27490234375,-0.72100830078125,0.67938232421875
1759867861727,1055586648,20361,3,-0.18896484375,-0.70758056640625,0.66180419921875
1759867861727,1055586648,20361,4,-0.252197265625,-0.67877197265625,0.68182373046875
1759867861727,1055586648,20361,5,-0.239501953125,-0.65802001953125,0.64642333984375
1759867861727,1055586648,20361,6,-0.275390625,-0.72344970703125,0.66326904296875
1759867861727,1055586648,20361,7,-0.23388671875,-0.70245361328125,0.66864013671875
1759867861727,1055586648,20361,8,-0.249267578125,-0.67681884765625,0.66766357421875
1759867861727,1055586648,20361,9,-0.251220703125,-0.69293212890625,0.66082763671875
1759867861727,1055586648,20361,10,-0.256103515625,-0.69024658203125,0.67449951171875
1759867861727,1055586648,20361,11,-0.249755859375,-0.69586181640625,0.67572021484375
1759867861727,1055586648,20361,12,-0.25244140625,-0.65313720703125,0.68133544921875
1759867861727,1055586648,20361,13,-0.25244140625,-0.72930908203125,0.65643310546875
1759867861727,1055586648,20361,14,-0.227783203125,-0.72149658203125,0.63348388671875
1759867861727,1055586648,20361,15,-0.26806640625,-0.65826416015625,0.70452880859375
1759867861727,1055586648,20361,16,-0.251953125,-0.68560791015625,0.66815185546875
1759867861727,1055586648,20361,17,-0.237548828125,-0.68658447265625,0.66424560546875
1759867861727,1055586648,20361,18,-0.21826171875,-0.70074462890625,0.66375732421875
1759867861727,1055586648,20361,19,-0.272705078125,-0.69293212890625,0.67059326171875
1759867861727,1055586648,20361,20,-0.2607421875,-0.63043212890625,0.66351318359375
1759867861727,1055586648,20361,21,-0.251220703125,-0.72857666015625,0.66595458984375
1759867861727,1055586648,20361,22,-0.242919921875,-0.75885009765625,0.64764404296875
1759867861727,1055586648,20361,23,-0.24658203125,-0.68634033203125,0.67596435546875
1759867861727,1055586648,20361,24,-0.2734375,-0.65997314453125,0.67791748046875
1759867861727,1055586648,20361,25,-0.25537109375,-0.73028564453125,0.66302490234375
1759867861727,1055586648,20361,26,-0.259521484375,-0.69049072265625,0.65740966796875
1759867861727,1055586648,20361,27,-0.2412109375,-0.69024658203125,0.65692138671875
1759867861727,1055586648,20361,28,-0.24658203125,-0.70538330078125,0.65374755859375
1759867861727,1055586648,20361,29,-0.235595703125,-0.64581298828125,0.63543701171875
1759867861727,1055586648,20361,30,-0.249267578125,-0.68194580078125,0.67620849609375
1759867861727,1055586648,20361,31,-0.23046875,-0.79425048828125,0.62933349609375
1759867864505,1055589167,20362,0,-0.26416015625,-0.70855712890625,0.63494873046875
1759867864505,1055589167,20362,1,-0.228759765625,-0.75347900390625,0.64202880859375
1759867864505,1055589167,20362,2,-0.2578125,-0.73345947265625,0.65106201171875
1759867864505,1055589167,20362,3,-0.24853515625,-0.66119384765625,0.63812255859375
1759867864505,1055589167,20362,4,-0.25830078125,-0.73590087890625,0.65350341796875
1759867864505,1055589167,20362,5,-0.25,-0.73980712890625,0.63421630859375
1759867864505,1055589167,20362,6,-0.25537109375,-0.71954345703125,0.61712646484375
1759867864505,1055589167,20362,7,-0.237060546875,-0.69049072265625,0.66473388671875
1759867864505,1055589167,20362,8,-0.266357421875,-0.72247314453125,0.65545654296875
1759867864505,1055589167,20362,9,-0.301513671875,-0.69903564453125,0.65838623046875
1759867864505,1055589167,20362,10,-0.24658203125,-0.70343017578125,0.62030029296875
1759867864505,1055589167,20362,11,-0.249267578125,-0.68829345703125,0.66497802734375
1759867864505,1055589167,20362,12,-0.28466796875,-0.73443603515625,0.66107177734375
1759867864505,1055589167,20362,13,-0.2509765625,-0.69561767578125,0.64520263671875
1759867864505,1055589167,20362,14,-0.264404296875,-0.70538330078125,0.65472412109375
1759867864505,1055589167,20362,15,-0.273193359375,-0.64703369140625,0.66082763671875
1759867864505,1055589167,20362,16,-0.261962890625,-0.70025634765625,0.66278076171875
1759867864505,1055589167,20362,17,-0.2509765625,-0.75103759765625,0.63739013671875
1759867864505,1055589167,20362,18,-0.2587890625,-0.65167236328125,0.65570068359375
1759867864505,1055589167,20362,19,-0.265625,-0.73101806640625,0.65057373046875
1759867864505,1055589167,20362,20,-0.2529296875,-0.69464111328125,0.65570068359375
1759867864505,1055589167,20362,21,-0.26171875,-0.73052978515625,0.63665771484375
1759867864505,1055589167,20362,22,-0.26318359375,-0.68536376953125,0.66668701171875
1759867864505,1055589167,20362,23,-0.248779296875,-0.74078369140625,0.63909912109375
1759867864505,1055589167,20362,24,-0.2607421875,-0.68658447265625,0.65887451171875
1759867864505,1055589167,20362,25,-0.251220703125,-0.71099853515625,0.64837646484375
1759867864505,1055589167,20362,26,-0.2578125,-0.72003173828125,0.64056396484375
1759867864505,1055589167,20362,27,-0.24560546875,-0.71319580078125,0.65496826171875
1759867864505,1055589167,20362,28,-0.2412109375,-0.69390869140625,0.63397216796875
1759867864505,1055589167,20362,29,-0.263671875,-0.71514892578125,0.65106201171875
1759867864505,1055589167,20362,30,-0.251708984375,-0.72662353515625,0.65399169921875
1759867864505,1055589167,20362,31,-0.24755859375,-0.70660400390625,0.64105224609375
1759867866691,1055591680,20363,0,-0.25439453125,-0.70440673828125,0.63983154296875
1759867866691,1055591680,20363,1,-0.270263671875,-0.72515869140625,0.64862060546875
1759867866691,1055591680,20363,2,-0.2880859375,-0.70245361328125,0.67620849609375
1759867866691,1055591680,20363,3,-0.28076171875,-0.69976806640625,0.63397216796875
1759867866691,1055591680,20363,4,-0.24267578125,-0.68292236328125,0.65032958984375
1759867866691,1055591680,20363,5,-0.2607421875,-0.72882080078125,0.66571044921875
1759867866691,1055591680,20363,6,-0.263427734375,-0.68170166015625,0.63763427734375
1759867866691,1055591680,20363,7,-0.255615234375,-0.65631103515625,0.62371826171875
1759867866691,1055591680,20363,8,-0.26123046875,-0.75445556640625,0.64422607421875
1759867866691,1055591680,20363,9,-0.238525390625,-0.72906494140625,0.64910888671875
1759867866691,1055591680,20363,10,-0.270263671875,-0.70587158203125,0.65814208984375
1759867866691,1055591680,20363,11,-0.228271484375,-0.74957275390625,0.61663818359375
1759867866691,1055591680,20363,12,-0.255615234375,-0.75982666015625,0.60760498046875
1759867866691,1055591680,20363,13,-0.257568359375,-0.74713134765625,0.65570068359375
1759867866691,1055591680,20363,14,-0.237060546875,-0.75811767578125,0.65081787109375
1759867866691,1055591680,20363,15,-0.228759765625,-0.72491455078125,0.61175537109375
1759867866691,1055591680,20363,16,-0.25634765625,-0.68438720703125,0.63983154296875
1759867866691,1055591680,20363,17,-0.234375,-0.69952392578125,0.63177490234375
1759867866691,1055591680,20363,18,-0.252685546875,-0.72442626953125,0.63592529296875
1759867866691,1055591680,20363,19,-0.246826171875,-0.71807861328125,0.63470458984375
1759867866691,1055591680,20363,20,-0.256591796875,-0.72418212890625,0.64129638671875
1759867866691,1055591680,20363,21,-0.24169921875,-0.73004150390625,0.65496826171875
1759867866691,1055591680,20363,22,-0.27001953125,-0.71539306640625,0.62103271484375
1759867866691,1055591680,20363,23,-0.2412109375,-0.67974853515625,0.64544677734375
1759867866691,1055591680,20363,24,-0.256591796875,-0.71002197265625,0.65374755859375
1759867866691,1055591680,20363,25,-0.2607421875,-0.62725830078125,0.63909912109375
1759867866691,1055591680,20363,26,-0.2412109375,-0.75299072265625,0.63226318359375
1759867866691,1055591680,20363,27,-0.29736328125,-0.81964111328125,0.62493896484375
1759867866691,1055591680,20363,28,-0.275634765625,-0.68634033203125,0.62298583984375
1759867866691,1055591680,20363,29,-0.27294921875,-0.70660400390625,0.66253662109375
1759867866691,1055591680,20363,30,-0.25830078125,-0.73297119140625,0.63909912109375
1759867866691,1055591680,20363,31,-0.271240234375,-0.72198486328125,0.62738037109375
1759867869277,1055594193,20364,0,-0.246337890625,-0.67950439453125,0.66180419921875
1759867869277,1055594193,20364,1,-0.259521484375,-0.71148681640625,0.65496826171875
1759867869277,1055594193,20364,2,-0.265869140625,-0.75665283203125,0.61639404296875
1759867869277,1055594193,20364,3,-0.266357421875,-0.71905517578125,0.62762451171875
1759867869277,1055594193,20364,4,-0.25,-0.69268798828125,0.64105224609375
1759867869277,1055594193,20364,5,-0.259765625,-0.72882080078125,0.63201904296875
1759867869277,1055594193,20364,6,-0.27099609375,-0.72467041015625,0.62396240234375
1759867869277,1055594193,20364,7,-0.2685546875,-0.73248291015625,0.64398193359375
1759867869277,1055594193,20364,8,-0.248779296875,-0.74884033203125,0.63739013671875
1759867869277,1055594193,20364,9,-0.244384765625,-0.71319580078125,0.64642333984375
1759867869277,1055594193,20364,10,-0.274169921875,-0.70220947265625,0.65740966796875
1759867869277,1055594193,20364,11,-0.30322265625,-0.70513916015625,0.63543701171875
1759867869277,1055594193,20364,12,-0.246337890625,-0.71392822265625,0.62957763671875
1759867869277,1055594193,20364,13,-0.272216796875,-0.73321533203125,0.63494873046875
1759867869277,1055594193,20364,14,-0.246337890625,-0.70733642578125,0.64251708984375
1759867869277,1055594193,20364,15,-0.25537109375,-0.72076416015625,0.63519287109375
1759867869277,1055594193,20364,16,-0.25390625,-0.72369384765625,0.63787841796875
1759867869277,1055594193,20364,17,-0.245361328125,-0.70147705078125,0.64788818359375
1759867869277,1055594193,20364,18,-0.241943359375,-0.71514892578125,0.63348388671875
1759867869277,1055594193,20364,19,-0.244140625,-0.72589111328125,0.62933349609375
1759867869277,1055594193,20364,20,-0.239013671875,-0.73297119140625,0.63983154296875
1759867869277,1055594193,20364,21,-0.24169921875,-0.72320556640625,0.62811279296875
1759867869277,1055594193,20364,22,-0.23876953125,-0.73077392578125,0.63275146484375
1759867869277,1055594193,20364,23,-0.260009765625,-0.72271728515625,0.63397216796875
1759867869277,1055594193,20364,24,-0.240234375,-0.73028564453125,0.63201904296875
1759867869277,1055594193,20364,25,-0.245361328125,-0.74005126953125,0.63104248046875
1759867869277,1055594193,20364,26,-0.257568359375,-0.65997314453125,0.62371826171875
1759867869277,1055594193,20364,27,-0.2587890625,-0.68487548828125,0.66888427734375
1759867869277,1055594193,20364,28,-0.218505859375,-0.83917236328125,0.56024169921875
1759867869277,1055594193,20364,29,-0.291015625,-0.79864501953125,0.62371826171875
1759867869277,1055594193,20364,30,-0.265869140625,-0.67340087890625,0.65838623046875
1759867869277,1055594193,20364,31,-0.235107421875,-0.74151611328125,0.61395263671875
1759867872059,1055596712,20365,0,-0.24560546875,-0.70318603515625,0.65814208984375
1759867872059,1055596712,20365,1,-0.264892578125,-0.71759033203125,0.62811279296875
1759867872059,1055596712,20365,2,-0.254638671875,-0.73004150390625,0.61175537109375
1759867872059,1055596712,20365,3,-0.26513671875,-0.69927978515625,0.63714599609375
1759867872059,1055596712,20365,4,-0.263916015625,-0.74761962890625,0.62664794921875
1759867872059,1055596712,20365,5,-0.260498046875,-0.74322509765625,0.63421630859375
1759867872059,1055596712,20365,6,-0.262451171875,-0.69586181640625,0.62054443359375
1759867872059,1055596712,20365,7,-0.25927734375,-0.74957275390625,0.63128662109375
1759867872059,1055596712,20365,8,-0.258544921875,-0.70758056640625,0.62713623046875
1759867872059,1055596712,20365,9,-0.267333984375,-0.74957275390625,0.63861083984375
1759867872059,1055596712,20365,10,-0.2607421875,-0.74542236328125,0.61517333984375
1759867872059,1055596712,20365,11,-0.25048828125,-0.73907470703125,0.62078857421875
1759867872059,1055596712,20365,12,-0.248046875,-0.69732666015625,0.64910888671875
1759867872059,1055596712,20365,13,-0.265380859375,-0.75543212890625,0.63372802734375
1759867872059,1055596712,20365,14,-0.2353515625,-0.69219970703125,0.63104248046875
1759867872059,1055596712,20365,15,-0.251708984375,-0.77593994140625,0.62322998046875
1759867872059,1055596712,20365,16,-0.2470703125,-0.69757080078125,0.64080810546875
1759867872059,1055596712,20365,17,-0.256103515625,-0.74615478515625,0.62103271484375
1759867872059,1055596712,20365,18,-0.259521484375,-0.73565673828125,0.63177490234375
1759867872059,1055596712,20365,19,-0.248779296875,-0.72613525390625,0.64788818359375
1759867872059,1055596712,20365,20,-0.236083984375,-0.73321533203125,0.63519287109375
1759867872059,1055596712,20365,21,-0.25732421875,-0.71368408203125,0.66229248046875
1759867872059,1055596712,20365,22,-0.268310546875,-0.65728759765625,0.63616943359375
1759867872059,1055596712,20365,23,-0.278076171875,-0.62408447265625,0.63568115234375
1759867872059,1055596712,20365,24,-0.243408203125,-0.84722900390625,0.61541748046875
1759867872059,1055596712,20365,25,-0.2568359375,-0.69000244140625,0.63153076171875
1759867872059,1055596712,20365,26,-0.269775390625,-0.78961181640625,0.64593505859375
1759867872059,1055596712,20365,27,-0.262451171875,-0.69488525390625,0.61053466796875
1759867872059,1055596712,20365,28,-0.253662109375,-0.73907470703125,0.65008544921875
1759867872059,1055596712,20365,29,-0.254150390625,-0.71173095703125,0.62493896484375
1759867872059,1055596712,20365,30,-0.26806640625,-0.75030517578125,0.65765380859375
1759867872059,1055596712,20365,31,-0.25537109375,-0.70001220703125,0.61297607421875
1759867874443,1055599231,20366,0,-0.258056640625,-0.74200439453125,0.64105224609375
1759867874443,1055599231,20366,1,-0.26416015625,-0.70538330078125,0.63763427734375
1759867874443,1055599231,20366,2,-0.258544921875,-0.74005126953125,0.64105224609375
1759867874443,1055599231,20366,3,-0.256591796875,-0.70391845703125,0.62957763671875
1759867874443,1055599231,20366,4,-0.2646484375,-0.71099853515625,0.64910888671875
1759867874443,1055599231,20366,5,-0.2578125,-0.71221923828125,0.63543701171875
1759867874443,1055599231,20366,6,-0.2392578125,-0.74859619140625,0.63031005859375
1759867874443,1055599231,20366,7,-0.240966796875,-0.74249267578125,0.63153076171875
1759867874443,1055599231,20366,8,-0.2705078125,-0.67974853515625,0.65447998046875
1759867874443,1055599231,20366,9,-0.2412109375,-0.75567626953125,0.61932373046875
1759867874443,1055599231,20366,10,-0.23876953125,-0.78131103515625,0.64031982421875
1759867874443,1055599231,20366,11,-0.27294921875,-0.69635009765625,0.67132568359375
1759867874443,1055599231,20366,12,-0.246337890625,-0.68780517578125,0.64666748046875
1759867874443,1055599231,20366,13,-0.271728515625,-0.58746337890625,0.62738037109375
1759867874443,1055599231,20366,14,-0.250244140625,-0.80987548828125,0.60418701171875
1759867874443,1055599231,20366,15,-0.26171875,-0.70489501953125,0.64178466796875
1759867874443,1055599231,20366,16,-0.279296875,-0.75885009765625,0.64886474609375
1759867874443,1055599231,20366,17,-0.233154296875,-0.70733642578125,0.62664794921875
1759867874443,1055599231,20366,18,-0.258056640625,-0.70245361328125,0.62884521484375
1759867874443,1055599231,20366,19,-0.24560546875,-0.73883056640625,0.64715576171875
1759867874443,1055599231,20366,20,-0.2509765625,-0.75909423828125,0.63104248046875
1759867874443,1055599231,20366,21,-0.2568359375,-0.69732666015625,0.63787841796875
1759867874443,1055599231,20366,22,-0.2412109375,-0.74005126953125,0.63592529296875
1759867874443,1055599231,20366,23,-0.251953125,-0.71246337890625,0.61761474609375
1759867874443,1055599231,20366,24,-0.25341796875,-0.72271728515625,0.65765380859375
1759867874443,1055599231,20366,25,-0.228271484375,-0.78546142578125,0.59930419921875
1759867874443,1055599231,20366,26,-0.250244140625,-0.70709228515625,0.62567138671875
1759867874443,1055599231,20366,27,-0.25634765625,-0.75201416015625,0.63909912109375
1759867874443,1055599231,20366,28,-0.221435546875,-0.78204345703125,0.64031982421875
1759867874443,1055599231,20366,29,-0.232177734375,-0.71954345703125,0.64813232421875
1759867874443,1055599231,20366,30,-0.2275390625,-0.70489501953125,0.61761474609375
1759867874443,1055599231,20366,31,-0.27783203125,-0.73736572265625,0.62542724609375
1759867876831,1055601750,20367,0,-0.279541015625,-0.74737548828125,0.62371826171875
1759867876831,1055601750,20367,1,-0.225830078125,-0.72149658203125,0.62933349609375
1759867876831,1055601750,20367,2,-0.217041015625,-0.70465087890625,0.62835693359375
1759867876831,1055601750,20367,3,-0.198974609375,-0.73052978515625,0.64202880859375
1759867876831,1055601750,20367,4,-0.228271484375,-0.72271728515625,0.63519287109375
1759867876831,1055601750,20367,5,-0.2578125,-0.64019775390625,0.62274169921875
1759867876831,1055601750,20367,6,-0.264892578125,-0.72540283203125,0.68377685546875
1759867876831,1055601750,20367,7,-0.245361328125,-0.84356689453125,0.57244873046875
1759867876831,1055601750,20367,8,-0.267822265625,-0.66851806640625,0.65960693359375
1759867876831,1055601750,20367,9,-0.237060546875,-0.78472900390625,0.61395263671875
1759867876831,1055601750,20367,10,-0.258056640625,-0.75836181640625,0.60394287109375
1759867876831,1055601750,20367,11,-0.253173828125,-0.71343994140625,0.64080810546875
1759867876831,1055601750,20367,12,-0.242919921875,-0.71539306640625,0.61883544921875
1759867876831,1055601750,20367,13,-0.260009765625,-0.77593994140625,0.61737060546875
1759867876831,1055601750,20367,14,-0.253173828125,-0.73126220703125,0.64105224609375
1759867876831,1055601750,20367,15,-0.20068359375,-0.74005126953125,0.64910888671875
1759867876831,1055601750,20367,16,-0.235107421875,-0.71832275390625,0.63616943359375
1759867876831,1055601750,20367,17,-0.255859375,-0.69024658203125,0.62078857421875
1759867876831,1055601750,20367,18,-0.2578125,-0.71661376953125,0.64202880859375
1759867876831,1055601750,20367,19,-0.259033203125,-0.67120361328125,0.64080810546875
1759867876831,1055601750,20367,20,-0.253173828125,-0.68560791015625,0.64105224609375
1759867876831,1055601750,20367,21,-0.246826171875,-0.75372314453125,0.64031982421875
1759867876831,1055601750,20367,22,-0.2880859375,-0.71295166015625,0.63104248046875
1759867876831,1055601750,20367,23,-0.250244140625,-0.74151611328125,0.63055419921875
1759867876831,1055601750,20367,24,-0.273681640625,-0.75494384765625,0.62786865234375
1759867876831,1055601750,20367,25,-0.224365234375,-0.69635009765625,0.61517333984375
1759867876831,1055601750,20367,26,-0.269775390625,-0.78228759765625,0.62835693359375
1759867876831,1055601750,20367,27,-0.279541015625,-0.74981689453125,0.62420654296875
1759867876831,1055601750,20367,28,-0.268310546875,-0.67681884765625,0.63714599609375
1759867876831,1055601750,20367,29,-0.258544921875,-0.78619384765625,0.62835693359375
1759867876831,1055601750,20367,30,-0.247802734375,-0.70611572265625,0.63055419921875
1759867876831,1055601750,20367,31,-0.2685546875,-0.70953369140625,0.62396240234375
1759867879412,1055604269,20368,0,-0.26220703125,-0.71978759765625,0.63641357421875
1759867879412,1055604269,20368,1,-0.29345703125,-0.73199462890625,0.65863037109375
1759867879412,1055604269,20368,2,-0.248779296875,-0.70440673828125,0.62786865234375
1759867879412,1055604269,20368,3,-0.24072265625,-0.70294189453125,0.63031005859375
1759867879412,1055604269,20368,4,-0.265625,-0.72711181640625,0.64910888671875
1759867879412,1055604269,20368,5,-0.25732421875,-0.74005126953125,0.64080810546875
1759867879412,1055604269,20368,6,-0.234130859375,-0.71905517578125,0.63177490234375
1759867879412,1055604269,20368,7,-0.26513671875,-0.68438720703125,0.66448974609375
1759867879412,1055604269,20368,8,-0.26708984375,-0.72052001953125,0.64056396484375
1759867879412,1055604269,20368,9,-0.257080078125,-0.74395751953125,0.66717529296875
1759867879412,1055604269,20368,10,-0.266845703125,-0.70806884765625,0.63397216796875
1759867879412,1055604269,20368,11,-0.284912109375,-0.69415283203125,0.63861083984375
1759867879412,1055604269,20368,12,-0.269775390625,-0.67144775390625,0.62811279296875
1759867879412,1055604269,20368,13,-0.271240234375,-0.74053955078125,0.63128662109375
1759867879412,1055604269,20368,14,-0.255859375,-0.71734619140625,0.63909912109375
1759867879412,1055604269,20368,15,-0.26953125,-0.70025634765625,0.64349365234375
1759867879412,1055604269,20368,16,-0.277099609375,-0.73297119140625,0.62445068359375
1759867879412,1055604269,20368,17,-0.274658203125,-0.68170166015625,0.63616943359375
1759867879412,1055604269,20368,18,-0.28125,-0.71368408203125,0.65594482421875
1759867879412,1055604269,20368,19,-0.27392578125,-0.72906494140625,0.63958740234375
1759867879412,1055604269,20368,20,-0.26416015625,-0.71856689453125,0.64520263671875
1759867879412,1055604269,20368,21,-0.26953125,-0.69732666015625,0.64764404296875
1759867879412,1055604269,20368,22,-0.267333984375,-0.68756103515625,0.64813232421875
1759867879412,1055604269,20368,23,-0.26171875,-0.71417236328125,0.65594482421875
1759867879412,1055604269,20368,24,-0.277587890625,-0.70343017578125,0.65301513671875
1759867879412,1055604269,20368,25,-0.259033203125,-0.70318603515625,0.63739013671875
1759867879412,1055604269,20368,26,-0.27392578125,-0.69805908203125,0.64202880859375
1759867879412,1055604269,20368,27,-0.274658203125,-0.64874267578125,0.68011474609375
1759867879412,1055604269,20368,28,-0.220458984375,-0.84136962890625,0.59735107421875
1759867879412,1055604269,20368,29,-0.285888671875,-0.68048095703125,0.62860107421875
1759867879412,1055604269,20368,30,-0.2529296875,-0.74688720703125,0.63983154296875
1759867879412,1055604269,20368,31,-0.26123046875,-0.70611572265625,0.63616943359375
1759867881998,1055606782,20369,0,-0.26318359375,-0.71051025390625,0.64373779296875
1759867881998,1055606782,20369,1,-0.251953125,-0.72735595703125,0.63568115234375
1759867881998,1055606782,20369,2,-0.255859375,-0.73516845703125,0.63543701171875
1759867881998,1055606782,20369,3,-0.260498046875,-0.69586181640625,0.64202880859375
1759867881998,1055606782,20369,4,-0.2626953125,-0.72882080078125,0.63446044921875
1759867881998,1055606782,20369,5,-0.261474609375,-0.71173095703125,0.64154052734375
1759867881998,1055606782,20369,6,-0.254638671875,-0.69073486328125,0.67083740234375
1759867881998,1055606782,20369,7,-0.21630859375,-0.74639892578125,0.62225341796875
1759867881998,1055606782,20369,8,-0.241943359375,-0.70806884765625,0.64739990234375
1759867881998,1055606782,20369,9,-0.218994140625,-0.71051025390625,0.65179443359375
1759867881998,1055606782,20369,10,-0.24755859375,-0.71978759765625,0.64007568359375
1759867881998,1055606782,20369,11,-0.24560546875,-0.71710205078125,0.63641357421875
1759867881998,1055606782,20369,12,-0.28759765625,-0.72467041015625,0.70184326171875
1759867881998,1055606782,20369,13,-0.19287109375,-0.68096923828125,0.63250732421875
1759867881998,1055606782,20369,14,-0.241455078125,-0.74273681640625,0.62518310546875
1759867881998,1055606782,20369,15,-0.302734375,-0.72320556640625,0.66717529296875
1759867881998,1055606782,20369,16,-0.231689453125,-0.72296142578125,0.65570068359375
1759867881998,1055606782,20369,17,-0.206298828125,-0.74346923828125,0.64642333984375
1759867881998,1055606782,20369,18,-0.229248046875,-0.71270751953125,0.63983154296875
1759867881998,1055606782,20369,19,-0.237060546875,-0.70709228515625,0.61614990234375
1759867881998,1055606782,20369,20,-0.240966796875,-0.70489501953125,0.64276123046875
1759867881998,1055606782,20369,21,-0.225341796875,-0.70538330078125,0.64422607421875
1759867881998,1055606782,20369,22,-0.208740234375,-0.72125244140625,0.64471435546875
1759867881998,1055606782,20369,23,-0.223876953125,-0.72637939453125,0.64276123046875
1759867881998,1055606782,20369,24,-0.242919921875,-0.73297119140625,0.63201904296875
1759867881998,1055606782,20369,25,-0.250732421875,-0.72247314453125,0.65179443359375
1759867881998,1055606782,20369,26,-0.238037109375,-0.61920166015625,0.64520263671875
1759867881998,1055606782,20369,27,-0.21875,-0.81573486328125,0.63763427734375
1759867881998,1055606782,20369,28,-0.24267578125,-0.71954345703125,0.61956787109375
1759867881998,1055606782,20369,29,-0.270751953125,-0.77911376953125,0.65740966796875
1759867881998,1055606782,20369,30,-0.2314453125,-0.75299072265625,0.60565185546875
1759867881998,1055606782,20369,31,-0.20458984375,-0.66094970703125,0.69012451171875
1759867884383,1055609301,20370,0,-0.261962890625,-0.75836181640625,0.64666748046875
1759867884383,1055609301,20370,1,-0.2451171875,-0.69268798828125,0.66058349609375
1759867884383,1055609301,20370,2,-0.232421875,-0.69903564453125,0.64739990234375
1759867884383,1055609301,20370,3,-0.27490234375,-0.68902587890625,0.66937255859375
1759867884383,1055609301,20370,4,-0.26220703125,-0.65045166015625,0.64471435546875
1759867884383,1055609301,20370,5,-0.247314453125,-0.69219970703125,0.64398193359375
1759867884383,1055609301,20370,6,-0.2548828125,-0.79156494140625,0.62420654296875
1759867884383,1055609301,20370,7,-0.2744140625,-0.69390869140625,0.64666748046875
1759867884383,1055609301,20370,8,-0.240478515625,-0.73394775390625,0.62054443359375
1759867884383,1055609301,20370,9,-0.26611328125,-0.72882080078125,0.63153076171875
1759867884383,1055609301,20370,10,-0.240234375,-0.75836181640625,0.62640380859375
1759867884383,1055609301,20370,11,-0.263671875,-0.73614501953125,0.60101318359375
1759867884383,1055609301,20370,12,-0.25634765625,-0.75250244140625,0.63812255859375
1759867884383,1055609301,20370,13,-0.24169921875,-0.70196533203125,0.61517333984375
1759867884383,1055609301,20370,14,-0.24853515625,-0.74078369140625,0.65228271484375
1759867884383,1055609301,20370,15,-0.2509765625,-0.69854736328125,0.63934326171875
1759867884383,1055609301,20370,16,-0.249267578125,-0.69927978515625,0.63616943359375
1759867884383,1055609301,20370,17,-0.272216796875,-0.71929931640625,0.65374755859375
1759867884383,1055609301,20370,18,-0.28955078125,-0.75054931640625,0.67913818359375
1759867884383,1055609301,20370,19,-0.232177734375,-0.69879150390625,0.61102294921875
1759867884383,1055609301,20370,20,-0.258544921875,-0.67144775390625,0.63153076171875
1759867884383,1055609301,20370,21,-0.258056640625,-0.75787353515625,0.65106201171875
1759867884383,1055609301,20370,22,-0.25830078125,-0.73858642578125,0.63177490234375
1759867884383,1055609301,20370,23,-0.25439453125,-0.69439697265625,0.66107177734375
1759867884383,1055609301,20370,24,-0.215087890625,-0.73858642578125,0.62152099609375
1759867884383,1055609301,20370,25,-0.246337890625,-0.70635986328125,0.64813232421875
1759867884383,1055609301,20370,26,-0.2412109375,-0.76593017578125,0.64007568359375
1759867884383,1055609301,20370,27,-0.232666015625,-0.73638916015625,0.63397216796875
1759867884383,1055609301,20370,28,-0.25390625,-0.68634033203125,0.69158935546875
1759867884383,1055609301,20370,29,-0.23681640625,-0.68804931640625,0.63568115234375
1759867884383,1055609301,20370,30,-0.262451171875,-0.68975830078125,0.63983154296875
1759867884383,1055609301,20370,31,-0.2470703125,-0.70147705078125,0.64691162109375
1759867886965,1055611820,20371,0,-0.251953125,-0.71734619140625,0.65521240234375
1759867886965,1055611820,20371,1,-0.2568359375,-0.67071533203125,0.66229248046875
1759867886965,1055611820,20371,2,-0.27734375,-0.76861572265625,0.62371826171875
1759867886965,1055611820,20371,3,-0.251220703125,-0.63433837890625,0.65252685546875
1759867886965,1055611820,20371,4,-0.2763671875,-0.75933837890625,0.65423583984375
1759867886965,1055611820,20371,5,-0.27978515625,-0.70904541015625,0.63372802734375
1759867886965,1055611820,20371,6,-0.238037109375,-0.67218017578125,0.65643310546875
1759867886965,1055611820,20371,7,-0.258544921875,-0.72637939453125,0.65350341796875
1759867886965,1055611820,20371,8,-0.2734375,-0.69635009765625,0.68548583984375
1759867886965,1055611820,20371,9,-0.25390625,-0.70098876953125,0.62738037109375
1759867886965,1055611820,20371,10,-0.246337890625,-0.71929931640625,0.63983154296875
1759867886965,1055611820,20371,11,-0.24658203125,-0.73809814453125,0.67254638671875
1759867886965,1055611820,20371,12,-0.239013671875,-0.72222900390625,0.63372802734375
1759867886965,1055611820,20371,13,-0.268310546875,-0.69781494140625,0.64886474609375
1759867886965,1055611820,20371,14,-0.224365234375,-0.70074462890625,0.62811279296875
1759867886965,1055611820,20371,15,-0.263671875,-0.73150634765625,0.63665771484375
1759867886965,1055611820,20371,16,-0.25244140625,-0.72735595703125,0.63104248046875
1759867886965,1055611820,20371,17,-0.2236328125,-0.72467041015625,0.62127685546875
1759867886965,1055611820,20371,18,-0.2470703125,-0.72808837890625,0.63983154296875
1759867886965,1055611820,20371,19,-0.2431640625,-0.72930908203125,0.64276123046875
1759867886965,1055611820,20371,20,-0.25244140625,-0.71148681640625,0.64788818359375
1759867886965,1055611820,20371,21,-0.244384765625,-0.64385986328125,0.62982177734375
1759867886965,1055611820,20371,22,-0.24951171875,-0.78546142578125,0.63421630859375
1759867886965,1055611820,20371,23,-0.2578125,-0.69122314453125,0.63958740234375
1759867886965,1055611820,20371,24,-0.255859375,-0.71905517578125,0.64398193359375
1759867886965,1055611820,20371,25,-0.259765625,-0.78692626953125,0.61737060546875
1759867886965,1055611820,20371,26,-0.25537109375,-0.73345947265625,0.59466552734375
1759867886965,1055611820,20371,27,-0.234130859375,-0.75445556640625,0.64129638671875
1759867886965,1055611820,20371,28,-0.245361328125,-0.78033447265625,0.61541748046875
1759867886965,1055611820,20371,29,-0.236328125,-0.68609619140625,0.61297607421875
1759867886965,1055611820,20371,30,-0.271484375,-0.72491455078125,0.64959716796875
1759867886965,1055611820,20371,31,-0.244140625,-0.74200439453125,0.63275146484375
1759867889548,1055614339,20372,0,-0.261474609375,-0.73541259765625,0.62884521484375
1759867889548,1055614339,20372,1,-0.277587890625,-0.67706298828125,0.62786865234375
1759867889548,1055614339,20372,2,-0.23876953125,-0.75762939453125,0.60540771484375
1759867889548,1055614339,20372,3,-0.228271484375,-0.79840087890625,0.63885498046875
1759867889548,1055614339,20372,4,-0.211181640625,-0.77130126953125,0.63226318359375
1759867889548,1055614339,20372,5,-0.2373046875,-0.69415283203125,0.64666748046875
1759867889548,1055614339,20372,6,-0.268310546875,-0.75518798828125,0.60101318359375
1759867889548,1055614339,20372,7,-0.250244140625,-0.74151611328125,0.61370849609375
1759867889548,1055614339,20372,8,-0.24365234375,-0.69512939453125,0.65106201171875
1759867889548,1055614339,20372,9,-0.239501953125,-0.71685791015625,0.60467529296875
1759867889548,1055614339,20372,10,-0.269775390625,-0.66754150390625,0.61834716796875
1759867889548,1055614339,20372,11,-0.250732421875,-0.76373291015625,0.65960693359375
1759867889548,1055614339,20372,12,-0.241943359375,-0.79254150390625,0.59808349609375
1759867889548,1055614339,20372,13,-0.26318359375,-0.69415283203125,0.64154052734375
1759867889548,1055614339,20372,14,-0.24169921875,-0.72686767578125,0.63031005859375
1759867889548,1055614339,20372,15,-0.24755859375,-0.74737548828125,0.63006591796875
1759867889548,1055614339,20372,16,-0.247802734375,-0.69927978515625,0.63958740234375
1759867889548,1055614339,20372,17,-0.25439453125,-0.74395751953125,0.61883544921875
1759867889548,1055614339,20372,18,-0.262451171875,-0.72955322265625,0.64447021484375
1759867889548,1055614339,20372,19,-0.251708984375,-0.73687744140625,0.61907958984375
1759867889548,1055614339,20372,20,-0.26513671875,-0.69635009765625,0.66986083984375
1759867889548,1055614339,20372,21,-0.25,-0.72076416015625,0.63787841796875
1759867889548,1055614339,20372,22,-0.245361328125,-0.71881103515625,0.63372802734375
