receivedPhoneTimestamp,respeckTimestamp,packetSeqNum,sampleSeqNum,accelX,accelY,accelZ
1760019796875,77571677,680,17,0.06884765625,-1.00177001953125,0.14031982421875
1760019796875,77571677,680,18,0.04443359375,-1.04962158203125,0.21527099609375
1760019796875,77571677,680,19,0.04638671875,-1.02569580078125,0.17279052734375
1760019796875,77571677,680,20,0.037841796875,-1.02862548828125,0.19549560546875
1760019796875,77571677,680,21,0.024658203125,-1.03375244140625,0.16082763671875
1760019796875,77571677,680,22,0.02880859375,-1.03302001953125,0.16619873046875
1760019796875,77571677,680,23,0.021728515625,-1.03399658203125,0.18011474609375
1760019796875,77571677,680,24,0.024658203125,-1.03179931640625,0.18939208984375
1760019796875,77571677,680,25,0.0146484375,-1.03839111328125,0.20892333984375
1760019796875,77571677,680,26,0.010498046875,-1.01934814453125,0.17816162109375
1760019796875,77571677,680,27,0.022216796875,-1.01885986328125,0.19720458984375
1760019796875,77571677,680,28,0.004638671875,-1.02716064453125,0.19598388671875
1760019796875,77571677,680,29,0.013671875,-1.03179931640625,0.17498779296875
1760019796875,77571677,680,30,0.022216796875,-1.03912353515625,0.17938232421875
1760019796875,77571677,680,31,0.0029296875,-1.05255126953125,0.17132568359375
1760019799427,77574250,681,0,0.006103515625,-1.04302978515625,0.15545654296875
1760019799427,77574250,681,1,0.000244140625,-1.04693603515625,0.17352294921875
1760019799427,77574250,681,2,-0.01708984375,-1.03204345703125,0.18353271484375
1760019799427,77574250,681,3,0.001220703125,-1.02520751953125,0.17474365234375
1760019799427,77574250,681,4,-0.00537109375,-1.03033447265625,0.19744873046875
1760019799427,77574250,681,5,-0.003662109375,-1.02642822265625,0.18646240234375
1760019799427,77574250,681,6,-0.02197265625,-1.02545166015625,0.18328857421875
1760019799427,77574250,681,7,-0.015625,-1.02569580078125,0.19281005859375
1760019799427,77574250,681,8,-0.008544921875,-1.04156494140625,0.18914794921875
1760019799427,77574250,681,9,-0.034912109375,-1.03912353515625,0.15496826171875
1760019799427,77574250,681,10,-0.04931640625,-1.03717041015625,0.18450927734375
1760019799427,77574250,681,11,-0.06982421875,-1.03741455078125,0.18768310546875
1760019799427,77574250,681,12,-0.0712890625,-1.02545166015625,0.17669677734375
1760019799427,77574250,681,13,-0.065673828125,-1.03692626953125,0.19476318359375
1760019799427,77574250,681,14,-0.0693359375,-1.04058837890625,0.16400146484375
1760019799427,77574250,681,15,-0.068359375,-1.04034423828125,0.17059326171875
1760019799427,77574250,681,16,-0.043212890625,-1.04083251953125,0.17156982421875
1760019799427,77574250,681,17,-0.052490234375,-1.04205322265625,0.16937255859375
1760019799427,77574250,681,18,-0.053466796875,-1.03448486328125,0.15008544921875
1760019799427,77574250,681,19,-0.04150390625,-1.02960205078125,0.16888427734375
1760019799427,77574250,681,20,-0.0263671875,-1.04620361328125,0.17425537109375
1760019799427,77574250,681,21,-0.01953125,-1.05255126953125,0.15350341796875
1760019799427,77574250,681,22,-0.0068359375,-1.04547119140625,0.12322998046875
1760019799427,77574250,681,23,-0.001220703125,-1.05303955078125,0.12933349609375
1760019799427,77574250,681,24,0.005126953125,-1.06158447265625,0.12615966796875
1760019799427,77574250,681,25,0.00537109375,-1.05303955078125,0.12811279296875
1760019799427,77574250,681,26,0.01220703125,-1.04327392578125,0.14080810546875
1760019799427,77574250,681,27,-0.010009765625,-1.03277587890625,0.15863037109375
1760019799427,77574250,681,28,0.003173828125,-1.03765869140625,0.17474365234375
1760019799427,77574250,681,29,-0.0107421875,-1.03936767578125,0.16571044921875
1760019799427,77574250,681,30,0.000244140625,-1.03082275390625,0.16156005859375
1760019799427,77574250,681,31,-0.010009765625,-1.03546142578125,0.15594482421875
1760019801974,77576824,682,0,-0.005859375,-1.04156494140625,0.16473388671875
1760019801974,77576824,682,1,-0.003662109375,-1.04327392578125,0.15277099609375
1760019801974,77576824,682,2,-0.007080078125,-1.03643798828125,0.17230224609375
1760019801974,77576824,682,3,-0.0078125,-1.03472900390625,0.15838623046875
1760019801974,77576824,682,4,-0.01318359375,-1.04083251953125,0.18450927734375
1760019801974,77576824,682,5,-0.013427734375,-1.04107666015625,0.17742919921875
1760019801974,77576824,682,6,-0.009033203125,-1.02862548828125,0.16912841796875
1760019801974,77576824,682,7,-0.00439453125,-1.04376220703125,0.17156982421875
1760019801974,77576824,682,8,-0.00439453125,-1.04058837890625,0.17596435546875
1760019801974,77576824,682,9,-0.010498046875,-1.02349853515625,0.18011474609375
1760019801974,77576824,682,10,-0.009033203125,-1.03326416015625,0.18865966796875
1760019801974,77576824,682,11,-0.006103515625,-1.03961181640625,0.18548583984375
1760019801974,77576824,682,12,-0.004638671875,-1.03204345703125,0.18743896484375
1760019801974,77576824,682,13,-0.0078125,-1.03594970703125,0.18499755859375
1760019801974,77576824,682,14,-0.00048828125,-1.02764892578125,0.18450927734375
1760019801974,77576824,682,15,0.006591796875,-1.03741455078125,0.18353271484375
1760019801974,77576824,682,16,0.005859375,-1.03887939453125,0.18060302734375
1760019801974,77576824,682,17,-0.0009765625,-1.02716064453125,0.17840576171875
1760019801974,77576824,682,18,0.006103515625,-1.02789306640625,0.19207763671875
1760019801974,77576824,682,19,0.004638671875,-1.03082275390625,0.19158935546875
1760019801974,77576824,682,20,0.011962890625,-1.02301025390625,0.18988037109375
1760019801974,77576824,682,21,-0.00244140625,-1.02276611328125,0.18450927734375
1760019801974,77576824,682,22,0.011474609375,-1.03594970703125,0.18231201171875
1760019801974,77576824,682,23,-0.013916015625,-1.05377197265625,0.18060302734375
1760019801974,77576824,682,24,-0.00439453125,-1.04571533203125,0.16082763671875
1760019801974,77576824,682,25,-0.008544921875,-1.03717041015625,0.16448974609375
1760019801974,77576824,682,26,0.014404296875,-1.03790283203125,0.17962646484375
1760019801974,77576824,682,27,0.0078125,-1.02496337890625,0.16864013671875
1760019801974,77576824,682,28,0.003173828125,-1.03350830078125,0.18231201171875
1760019801974,77576824,682,29,0.0146484375,-1.05792236328125,0.17108154296875
1760019801974,77576824,682,30,0.019775390625,-1.03863525390625,0.16497802734375
1760019801974,77576824,682,31,0.052001953125,-1.02667236328125,0.16571044921875
1760019804528,77579397,683,0,0.025390625,-1.02935791015625,0.17913818359375
1760019804528,77579397,683,1,0.0087890625,-1.01544189453125,0.19329833984375
1760019804528,77579397,683,2,0.005615234375,-1.03302001953125,0.19647216796875
1760019804528,77579397,683,3,-0.004638671875,-1.03717041015625,0.17889404296875
1760019804528,77579397,683,4,0.000244140625,-1.03546142578125,0.16986083984375
1760019804528,77579397,683,5,-0.006103515625,-1.04180908203125,0.15716552734375
1760019804528,77579397,683,6,-0.01123046875,-1.04791259765625,0.15618896484375
1760019804528,77579397,683,7,-0.00537109375,-1.04327392578125,0.15399169921875
1760019804528,77579397,683,8,-0.005615234375,-1.04327392578125,0.16766357421875
1760019804528,77579397,683,9,0.000732421875,-1.03277587890625,0.15838623046875
1760019804528,77579397,683,10,-0.004150390625,-1.04473876953125,0.15447998046875
1760019804528,77579397,683,11,0.004638671875,-1.03179931640625,0.16619873046875
1760019804528,77579397,683,12,0.001220703125,-1.03497314453125,0.15521240234375
1760019804528,77579397,683,13,-0.005615234375,-1.04473876953125,0.18280029296875
1760019804528,77579397,683,14,-0.002197265625,-1.03204345703125,0.15814208984375
1760019804528,77579397,683,15,-0.0048828125,-1.03521728515625,0.17889404296875
1760019804528,77579397,683,16,-0.0009765625,-1.03375244140625,0.15496826171875
1760019804528,77579397,683,17,-0.0126953125,-1.04351806640625,0.17669677734375
1760019804528,77579397,683,18,0.000244140625,-1.04107666015625,0.16595458984375
1760019804528,77579397,683,19,0.004638671875,-1.03814697265625,0.16400146484375
1760019804528,77579397,683,20,0.006103515625,-1.03765869140625,0.16424560546875
1760019804528,77579397,683,21,0.009033203125,-1.03814697265625,0.16986083984375
1760019804528,77579397,683,22,-0.018798828125,-1.03887939453125,0.16302490234375
1760019804528,77579397,683,23,-0.005859375,-1.04400634765625,0.16497802734375
1760019804528,77579397,683,24,-0.00927734375,-1.03839111328125,0.16717529296875
1760019804528,77579397,683,25,-0.009033203125,-1.04547119140625,0.17645263671875
1760019804528,77579397,683,26,-0.005859375,-1.02911376953125,0.16400146484375
1760019804528,77579397,683,27,-0.001708984375,-1.03253173828125,0.17913818359375
1760019804528,77579397,683,28,-0.001220703125,-1.03961181640625,0.17425537109375
1760019804528,77579397,683,29,-0.007568359375,-1.04571533203125,0.17694091796875
1760019804528,77579397,683,30,-0.0126953125,-1.03033447265625,0.17938232421875
1760019804528,77579397,683,31,-0.009765625,-1.02740478515625,0.18109130859375
1760019807079,77581970,684,0,-0.0390625,-1.03399658203125,0.18304443359375
1760019807079,77581970,684,1,-0.02294921875,-1.03619384765625,0.19915771484375
1760019807079,77581970,684,2,-0.040283203125,-1.03326416015625,0.17474365234375
1760019807079,77581970,684,3,-0.036865234375,-1.04302978515625,0.19769287109375
1760019807079,77581970,684,4,-0.0498046875,-1.03302001953125,0.19549560546875
1760019807079,77581970,684,5,-0.0263671875,-1.01348876953125,0.19085693359375
1760019807079,77581970,684,6,-0.04541015625,-1.03570556640625,0.20208740234375
1760019807079,77581970,684,7,-0.043701171875,-1.03765869140625,0.17938232421875
1760019807079,77581970,684,8,-0.045166015625,-1.05133056640625,0.18133544921875
1760019807079,77581970,684,9,-0.02490234375,-1.03497314453125,0.16082763671875
1760019807079,77581970,684,10,-0.024169921875,-1.03887939453125,0.19061279296875
1760019807079,77581970,684,11,-0.011474609375,-1.02008056640625,0.17376708984375
1760019807079,77581970,684,12,-0.01220703125,-1.02984619140625,0.18280029296875
1760019807079,77581970,684,13,-0.02099609375,-1.03546142578125,0.18572998046875
1760019807079,77581970,684,14,0.007080078125,-1.03302001953125,0.18743896484375
1760019807079,77581970,684,15,0.007568359375,-1.03863525390625,0.19061279296875
1760019807079,77581970,684,16,0.01318359375,-1.04205322265625,0.16302490234375
1760019807079,77581970,684,17,0.01171875,-1.03668212890625,0.18646240234375
1760019807079,77581970,684,18,0.004638671875,-1.03277587890625,0.18231201171875
1760019807079,77581970,684,19,-0.015869140625,-1.03204345703125,0.18817138671875
1760019807079,77581970,684,20,-0.025390625,-1.02838134765625,0.19793701171875
1760019807079,77581970,684,21,-0.018310546875,-1.02471923828125,0.19134521484375
1760019807079,77581970,684,22,-0.037109375,-1.03228759765625,0.19403076171875
1760019807079,77581970,684,23,-0.01904296875,-1.04083251953125,0.17572021484375
1760019807079,77581970,684,24,-0.01220703125,-1.04547119140625,0.17913818359375
1760019807079,77581970,684,25,-0.040283203125,-1.03057861328125,0.16546630859375
1760019807079,77581970,684,26,-0.03515625,-1.02764892578125,0.19476318359375
1760019807079,77581970,684,27,-0.030517578125,-1.03155517578125,0.19525146484375
1760019807079,77581970,684,28,-0.029052734375,-1.03326416015625,0.18524169921875
1760019807079,77581970,684,29,-0.031005859375,-1.03228759765625,0.19158935546875
1760019807079,77581970,684,30,-0.02197265625,-1.03961181640625,0.18768310546875
1760019807079,77581970,684,31,-0.029296875,-1.03863525390625,0.17840576171875
1760019809631,77584543,685,0,-0.032470703125,-1.03497314453125,0.18743896484375
1760019809631,77584543,685,1,-0.031005859375,-1.02642822265625,0.18939208984375
1760019809631,77584543,685,2,-0.0322265625,-1.02960205078125,0.19964599609375
1760019809631,77584543,685,3,-0.02685546875,-1.03057861328125,0.18792724609375
1760019809631,77584543,685,4,-0.025634765625,-1.03302001953125,0.19354248046875
1760019809631,77584543,685,5,-0.027099609375,-1.02886962890625,0.19061279296875
1760019809631,77584543,685,6,-0.02392578125,-1.03961181640625,0.18475341796875
1760019809631,77584543,685,7,-0.02587890625,-1.04254150390625,0.18670654296875
1760019809631,77584543,685,8,-0.023681640625,-1.03106689453125,0.18914794921875
1760019809631,77584543,685,9,-0.0361328125,-1.03057861328125,0.19085693359375
1760019809631,77584543,685,10,-0.031494140625,-1.02789306640625,0.18402099609375
1760019809631,77584543,685,11,-0.03076171875,-1.03497314453125,0.17767333984375
1760019809631,77584543,685,12,-0.0322265625,-1.04010009765625,0.18548583984375
1760019809631,77584543,685,13,-0.020751953125,-1.03839111328125,0.17596435546875
1760019809631,77584543,685,14,-0.023681640625,-1.04156494140625,0.17376708984375
1760019809631,77584543,685,15,-0.03515625,-1.03985595703125,0.17645263671875
1760019809631,77584543,685,16,-0.02783203125,-1.03985595703125,0.18743896484375
1760019809631,77584543,685,17,-0.030517578125,-1.01812744140625,0.17645263671875
1760019809631,77584543,685,18,-0.033935546875,-1.03424072265625,0.19305419921875
1760019809631,77584543,685,19,-0.0322265625,-1.03277587890625,0.19036865234375
1760019809631,77584543,685,20,-0.02734375,-1.03497314453125,0.19183349609375
1760019809631,77584543,685,21,-0.0244140625,-1.04132080078125,0.17816162109375
1760019809631,77584543,685,22,-0.028076171875,-1.03643798828125,0.17132568359375
1760019809631,77584543,685,23,-0.02880859375,-1.03277587890625,0.18353271484375
1760019809631,77584543,685,24,-0.034423828125,-1.03228759765625,0.19451904296875
1760019809631,77584543,685,25,-0.031005859375,-1.02886962890625,0.19769287109375
1760019809631,77584543,685,26,-0.034423828125,-1.03155517578125,0.17742919921875
1760019809631,77584543,685,27,-0.031005859375,-1.03619384765625,0.19061279296875
1760019809631,77584543,685,28,-0.02587890625,-1.03594970703125,0.18621826171875
1760019809631,77584543,685,29,-0.023193359375,-1.04400634765625,0.18035888671875
1760019809631,77584543,685,30,-0.023681640625,-1.03863525390625,0.17742919921875
1760019809631,77584543,685,31,-0.026123046875,-1.02886962890625,0.18768310546875
1760019812330,77587116,686,0,-0.0185546875,-1.02984619140625,0.19207763671875
1760019812330,77587116,686,1,-0.021240234375,-1.03179931640625,0.20452880859375
1760019812330,77587116,686,2,-0.01806640625,-1.03375244140625,0.19158935546875
1760019812330,77587116,686,3,-0.014404296875,-1.03155517578125,0.17864990234375
1760019812330,77587116,686,4,-0.01416015625,-1.03814697265625,0.18646240234375
1760019812330,77587116,686,5,-0.0087890625,-1.03912353515625,0.18988037109375
1760019812330,77587116,686,6,0.00244140625,-1.03961181640625,0.17889404296875
1760019812330,77587116,686,7,-0.009033203125,-1.02569580078125,0.19647216796875
1760019812330,77587116,686,8,-0.005859375,-1.02691650390625,0.19720458984375
1760019812330,77587116,686,9,-0.001953125,-1.02520751953125,0.19476318359375
1760019812330,77587116,686,10,-0.003662109375,-1.02886962890625,0.19793701171875
1760019812330,77587116,686,11,-0.000244140625,-1.02593994140625,0.18402099609375
1760019812330,77587116,686,12,0.0009765625,-1.03326416015625,0.19891357421875
1760019812330,77587116,686,13,-0.002197265625,-1.03594970703125,0.18695068359375
1760019812330,77587116,686,14,-0.007080078125,-1.03302001953125,0.18621826171875
1760019812330,77587116,686,15,-0.007568359375,-1.03033447265625,0.19329833984375
1760019812330,77587116,686,16,-0.00732421875,-1.03521728515625,0.18597412109375
1760019812330,77587116,686,17,-0.006103515625,-1.03668212890625,0.17034912109375
1760019812330,77587116,686,18,-0.003662109375,-1.03741455078125,0.18890380859375
1760019812330,77587116,686,19,0.0029296875,-1.03570556640625,0.18426513671875
1760019812330,77587116,686,20,0.010498046875,-1.03521728515625,0.19012451171875
1760019812330,77587116,686,21,0.010498046875,-1.02789306640625,0.17962646484375
1760019812330,77587116,686,22,0.00927734375,-1.02862548828125,0.18695068359375
1760019812330,77587116,686,23,0.005615234375,-1.02520751953125,0.18328857421875
1760019812330,77587116,686,24,0.0,-1.02813720703125,0.19378662109375
1760019812330,77587116,686,25,-0.005859375,-1.03887939453125,0.17352294921875
1760019812330,77587116,686,26,-0.0048828125,-1.03643798828125,0.19281005859375
1760019812330,77587116,686,27,-0.00341796875,-1.03814697265625,0.18572998046875
1760019812330,77587116,686,28,-0.008544921875,-1.03302001953125,0.18280029296875
1760019812330,77587116,686,29,-0.0068359375,-1.03594970703125,0.19354248046875
1760019812330,77587116,686,30,-0.00439453125,-1.02716064453125,0.17840576171875
1760019812330,77587116,686,31,-0.010986328125,-1.03375244140625,0.19744873046875
1760019814878,77589689,687,0,-0.013427734375,-1.03082275390625,0.20184326171875
1760019814878,77589689,687,1,-0.0146484375,-1.03033447265625,0.18206787109375
1760019814878,77589689,687,2,-0.009765625,-1.03106689453125,0.19427490234375
1760019814878,77589689,687,3,-0.007080078125,-1.03350830078125,0.19549560546875
1760019814878,77589689,687,4,-0.003173828125,-1.02911376953125,0.18792724609375
1760019814878,77589689,687,5,0.0029296875,-1.03302001953125,0.20501708984375
1760019814878,77589689,687,6,0.004150390625,-1.02960205078125,0.16619873046875
1760019814878,77589689,687,7,-0.003662109375,-1.03302001953125,0.19622802734375
1760019814878,77589689,687,8,-0.015869140625,-1.00933837890625,0.20257568359375
1760019814878,77589689,687,9,-0.01318359375,-1.04571533203125,0.19549560546875
1760019814878,77589689,687,10,0.0009765625,-1.02691650390625,0.20184326171875
1760019814878,77589689,687,11,-0.000732421875,-1.04986572265625,0.17132568359375
1760019814878,77589689,687,12,-0.00537109375,-1.04888916015625,0.15325927734375
1760019814878,77589689,687,13,0.001220703125,-1.03863525390625,0.16766357421875
1760019814878,77589689,687,14,-0.00439453125,-1.02667236328125,0.17596435546875
1760019814878,77589689,687,15,-0.00390625,-1.03448486328125,0.19207763671875
1760019814878,77589689,687,16,-0.0048828125,-1.02203369140625,0.19622802734375
1760019814878,77589689,687,17,-0.008056640625,-1.02593994140625,0.16693115234375
1760019814878,77589689,687,18,-0.005615234375,-1.04229736328125,0.19354248046875
1760019814878,77589689,687,19,0.021240234375,-1.04498291015625,0.16375732421875
1760019814878,77589689,687,20,0.00732421875,-1.04473876953125,0.14886474609375
1760019814878,77589689,687,21,-0.01025390625,-1.03424072265625,0.15667724609375
1760019814878,77589689,687,22,0.00830078125,-1.04351806640625,0.17254638671875
1760019814878,77589689,687,23,0.00830078125,-1.03179931640625,0.17572021484375
1760019814878,77589689,687,24,0.01025390625,-1.03033447265625,0.16595458984375
1760019814878,77589689,687,25,0.00537109375,-1.04010009765625,0.17108154296875
1760019814878,77589689,687,26,0.013671875,-1.04205322265625,0.18743896484375
1760019814878,77589689,687,27,0.01953125,-1.03790283203125,0.16204833984375
1760019814878,77589689,687,28,0.000244140625,-1.03570556640625,0.17889404296875
1760019814878,77589689,687,29,-0.004638671875,-1.02911376953125,0.17547607421875
1760019814878,77589689,687,30,0.003662109375,-1.03472900390625,0.18572998046875
1760019814878,77589689,687,31,-0.000244140625,-1.02789306640625,0.18231201171875
1760019817429,77592262,688,0,-0.000244140625,-1.03277587890625,0.17840576171875
1760019817429,77592262,688,1,-0.00244140625,-1.03424072265625,0.18060302734375
1760019817429,77592262,688,2,-0.00048828125,-1.04229736328125,0.15838623046875
1760019817429,77592262,688,3,0.0146484375,-1.05206298828125,0.15130615234375
1760019817429,77592262,688,4,0.013916015625,-1.04547119140625,0.16180419921875
1760019817429,77592262,688,5,0.012939453125,-1.03594970703125,0.15911865234375
1760019817429,77592262,688,6,0.008056640625,-1.03228759765625,0.16546630859375
1760019817429,77592262,688,7,0.009521484375,-1.03546142578125,0.17010498046875
1760019817429,77592262,688,8,0.002685546875,-1.03619384765625,0.16864013671875
1760019817429,77592262,688,9,0.00537109375,-1.03839111328125,0.15765380859375
1760019817429,77592262,688,10,0.009521484375,-1.03839111328125,0.14471435546875
1760019817429,77592262,688,11,0.00537109375,-1.05865478515625,0.16229248046875
1760019817429,77592262,688,12,0.006103515625,-1.04010009765625,0.14447021484375
1760019817429,77592262,688,13,0.00390625,-1.04107666015625,0.16839599609375
1760019817429,77592262,688,14,-0.001708984375,-1.02301025390625,0.16717529296875
1760019817429,77592262,688,15,0.000732421875,-1.03790283203125,0.17254638671875
1760019817429,77592262,688,16,0.0,-1.03521728515625,0.16473388671875
1760019817429,77592262,688,17,0.00341796875,-1.03863525390625,0.17181396484375
1760019817429,77592262,688,18,0.014404296875,-1.04180908203125,0.15911865234375
1760019817429,77592262,688,19,0.01513671875,-1.03961181640625,0.15277099609375
1760019817429,77592262,688,20,0.0009765625,-1.04791259765625,0.17010498046875
1760019817429,77592262,688,21,-0.002197265625,-1.02667236328125,0.16937255859375
1760019817429,77592262,688,22,0.00146484375,-1.03643798828125,0.18084716796875
1760019817429,77592262,688,23,-0.0009765625,-1.02789306640625,0.17010498046875
1760019817429,77592262,688,24,-0.002197265625,-1.04595947265625,0.18084716796875
1760019817429,77592262,688,25,-0.000732421875,-1.03131103515625,0.16400146484375
1760019817429,77592262,688,26,-0.01318359375,-1.04010009765625,0.16229248046875
1760019817429,77592262,688,27,0.0205078125,-1.06378173828125,0.19232177734375
1760019817429,77592262,688,28,-0.0029296875,-1.03204345703125,0.16400146484375
1760019817429,77592262,688,29,-0.00146484375,-1.02325439453125,0.20550537109375
1760019817429,77592262,688,30,-0.018310546875,-1.01177978515625,0.16424560546875
1760019817429,77592262,688,31,0.0078125,-1.05914306640625,0.24871826171875
1760019819979,77594835,689,0,0.00244140625,-1.01080322265625,0.17132568359375
1760019819979,77594835,689,1,-0.015380859375,-1.02813720703125,0.20941162109375
1760019819979,77594835,689,2,0.01416015625,-1.02911376953125,0.19940185546875
1760019819979,77594835,689,3,-0.003173828125,-1.02960205078125,0.19720458984375
1760019819979,77594835,689,4,-0.007568359375,-1.02911376953125,0.19647216796875
1760019819979,77594835,689,5,0.01025390625,-1.02813720703125,0.21185302734375
1760019819979,77594835,689,6,-0.009033203125,-1.02716064453125,0.21380615234375
1760019819979,77594835,689,7,0.001708984375,-1.03204345703125,0.19842529296875
1760019819979,77594835,689,8,0.014892578125,-1.03692626953125,0.20281982421875
1760019819979,77594835,689,9,0.00732421875,-1.01959228515625,0.20526123046875
1760019819979,77594835,689,10,-0.015625,-1.02691650390625,0.20477294921875
1760019819979,77594835,689,11,-0.01806640625,-1.03106689453125,0.20428466796875
1760019819979,77594835,689,12,-0.027099609375,-1.02984619140625,0.20745849609375
1760019819979,77594835,689,13,-0.017333984375,-1.02276611328125,0.20086669921875
1760019819979,77594835,689,14,-0.021240234375,-1.03350830078125,0.21112060546875
1760019819979,77594835,689,15,-0.025634765625,-1.02667236328125,0.19549560546875
1760019819979,77594835,689,16,-0.020751953125,-1.03594970703125,0.19525146484375
1760019819979,77594835,689,17,-0.01318359375,-1.02862548828125,0.19012451171875
1760019819979,77594835,689,18,-0.02880859375,-1.03253173828125,0.18914794921875
1760019819979,77594835,689,19,-0.0126953125,-1.03277587890625,0.19549560546875
1760019819979,77594835,689,20,-0.017333984375,-1.03448486328125,0.19134521484375
1760019819979,77594835,689,21,-0.01904296875,-1.03228759765625,0.19647216796875
1760019819979,77594835,689,22,-0.00439453125,-1.02618408203125,0.19085693359375
1760019819979,77594835,689,23,-0.033447265625,-1.01934814453125,0.19012451171875
1760019819979,77594835,689,24,-0.029052734375,-1.03375244140625,0.19964599609375
1760019819979,77594835,689,25,-0.0322265625,-1.03179931640625,0.19647216796875
1760019819979,77594835,689,26,-0.03369140625,-1.03350830078125,0.19451904296875
1760019819979,77594835,689,27,-0.030517578125,-1.04058837890625,0.18646240234375
1760019819979,77594835,689,28,-0.02978515625,-1.03985595703125,0.18157958984375
1760019819979,77594835,689,29,-0.043212890625,-1.03619384765625,0.18084716796875
1760019819979,77594835,689,30,-0.0302734375,-1.03472900390625,0.18450927734375
1760019819979,77594835,689,31,-0.029296875,-1.03961181640625,0.17864990234375
1760019822529,77597409,690,0,-0.027587890625,-1.03448486328125,0.17694091796875
1760019822529,77597409,690,1,-0.0302734375,-1.03497314453125,0.17083740234375
1760019822529,77597409,690,2,-0.003662109375,-1.03961181640625,0.17596435546875
1760019822529,77597409,690,3,-0.006103515625,-1.03253173828125,0.16717529296875
1760019822529,77597409,690,4,0.013427734375,-1.04620361328125,0.18304443359375
1760019822529,77597409,690,5,-0.0009765625,-1.02862548828125,0.17254638671875
1760019822529,77597409,690,6,0.011962890625,-1.03131103515625,0.18572998046875
1760019822529,77597409,690,7,0.01025390625,-1.03155517578125,0.18670654296875
1760019822529,77597409,690,8,0.013916015625,-1.03131103515625,0.18231201171875
1760019822529,77597409,690,9,0.005859375,-1.03179931640625,0.19012451171875
1760019822529,77597409,690,10,0.0087890625,-1.02789306640625,0.18011474609375
1760019822529,77597409,690,11,0.010986328125,-1.04449462890625,0.19598388671875
1760019822529,77597409,690,12,0.00390625,-1.03619384765625,0.17474365234375
1760019822529,77597409,690,13,0.012451171875,-1.02423095703125,0.18548583984375
1760019822529,77597409,690,14,0.008544921875,-1.03131103515625,0.19305419921875
1760019822529,77597409,690,15,0.00439453125,-1.03228759765625,0.19207763671875
1760019822529,77597409,690,16,0.01025390625,-1.02862548828125,0.19158935546875
1760019822529,77597409,690,17,0.00732421875,-1.02740478515625,0.19427490234375
1760019822529,77597409,690,18,0.01416015625,-1.03424072265625,0.18450927734375
1760019822529,77597409,690,19,0.012939453125,-1.03009033203125,0.18890380859375
1760019822529,77597409,690,20,0.01953125,-1.03424072265625,0.19622802734375
1760019822529,77597409,690,21,0.01171875,-1.02642822265625,0.18597412109375
1760019822529,77597409,690,22,0.012939453125,-1.02154541015625,0.19403076171875
1760019822529,77597409,690,23,0.0087890625,-1.02838134765625,0.20526123046875
1760019822529,77597409,690,24,0.015869140625,-1.02789306640625,0.20501708984375
1760019822529,77597409,690,25,0.00390625,-1.03228759765625,0.18280029296875
1760019822529,77597409,690,26,0.015625,-1.03033447265625,0.20111083984375
1760019822529,77597409,690,27,0.01708984375,-1.04034423828125,0.18890380859375
1760019822529,77597409,690,28,0.02294921875,-1.03399658203125,0.18255615234375
1760019822529,77597409,690,29,0.021240234375,-1.02716064453125,0.19866943359375
1760019822529,77597409,690,30,0.014404296875,-1.02008056640625,0.19256591796875
1760019822529,77597409,690,31,0.012939453125,-1.02545166015625,0.20111083984375
1760019825080,77599982,691,0,0.01416015625,-1.02447509765625,0.20599365234375
1760019825080,77599982,691,1,0.01025390625,-1.02618408203125,0.19012451171875
1760019825080,77599982,691,2,0.018798828125,-1.03717041015625,0.19158935546875
1760019825080,77599982,691,3,0.020263671875,-1.03082275390625,0.18963623046875
1760019825080,77599982,691,4,0.026123046875,-1.03228759765625,0.18255615234375
1760019825080,77599982,691,5,0.01513671875,-1.02593994140625,0.19305419921875
1760019825080,77599982,691,6,0.019287109375,-1.03009033203125,0.19891357421875
1760019825080,77599982,691,7,0.01416015625,-1.02935791015625,0.18572998046875
1760019825080,77599982,691,8,0.014404296875,-1.03179931640625,0.20086669921875
1760019825080,77599982,691,9,0.017333984375,-1.03887939453125,0.19378662109375
1760019825080,77599982,691,10,0.0244140625,-1.02764892578125,0.16546630859375
1760019825080,77599982,691,11,0.029296875,-1.03790283203125,0.17791748046875
1760019825080,77599982,691,12,0.020751953125,-1.02545166015625,0.17572021484375
1760019825080,77599982,691,13,0.023193359375,-1.03594970703125,0.18328857421875
1760019825080,77599982,691,14,0.02587890625,-1.03033447265625,0.16961669921875
1760019825080,77599982,691,15,0.02197265625,-1.03936767578125,0.17010498046875
1760019825080,77599982,691,16,0.022705078125,-1.03204345703125,0.18743896484375
1760019825080,77599982,691,17,0.01806640625,-1.03082275390625,0.17376708984375
1760019825080,77599982,691,18,0.02490234375,-1.03570556640625,0.18499755859375
1760019825080,77599982,691,19,0.026123046875,-1.04010009765625,0.16986083984375
1760019825080,77599982,691,20,0.021484375,-1.03179931640625,0.16693115234375
1760019825080,77599982,691,21,0.0205078125,-1.02984619140625,0.17694091796875
1760019825080,77599982,691,22,0.021484375,-1.03350830078125,0.18353271484375
1760019825080,77599982,691,23,0.0224609375,-1.03326416015625,0.18206787109375
1760019825080,77599982,691,24,0.0205078125,-1.02618408203125,0.18817138671875
1760019825080,77599982,691,25,0.01904296875,-1.03448486328125,0.17645263671875
1760019825080,77599982,691,26,0.020263671875,-1.03497314453125,0.19549560546875
1760019825080,77599982,691,27,0.023193359375,-1.03253173828125,0.17620849609375
1760019825080,77599982,691,28,0.020263671875,-1.02447509765625,0.17425537109375
1760019825080,77599982,691,29,0.020751953125,-1.03765869140625,0.19647216796875
1760019825080,77599982,691,30,0.017333984375,-1.02984619140625,0.18157958984375
1760019825080,77599982,691,31,0.020751953125,-1.03033447265625,0.18817138671875
1760019827773,77602555,692,0,0.011474609375,-1.03228759765625,0.17620849609375
1760019827773,77602555,692,1,0.016845703125,-1.03521728515625,0.20159912109375
1760019827773,77602555,692,2,0.015869140625,-1.03204345703125,0.17352294921875
1760019827773,77602555,692,3,0.011962890625,-1.03057861328125,0.19354248046875
1760019827773,77602555,692,4,0.008056640625,-1.02764892578125,0.19915771484375
1760019827773,77602555,692,5,0.002685546875,-1.02520751953125,0.19085693359375
1760019827773,77602555,692,6,-0.004638671875,-1.03472900390625,0.20452880859375
1760019827773,77602555,692,7,-0.00244140625,-1.02984619140625,0.18768310546875
1760019827773,77602555,692,8,-0.009765625,-1.03375244140625,0.19866943359375
1760019827773,77602555,692,9,-0.005615234375,-1.02984619140625,0.19964599609375
1760019827773,77602555,692,10,-0.005615234375,-1.03106689453125,0.18939208984375
1760019827773,77602555,692,11,-0.008056640625,-1.03228759765625,0.21429443359375
1760019827773,77602555,692,12,-0.00732421875,-1.03619384765625,0.19305419921875
1760019827773,77602555,692,13,-0.0048828125,-1.01885986328125,0.19769287109375
1760019827773,77602555,692,14,-0.007568359375,-1.02398681640625,0.21600341796875
1760019827773,77602555,692,15,0.004638671875,-1.01129150390625,0.22210693359375
1760019827773,77602555,692,16,0.00048828125,-1.01031494140625,0.21673583984375
1760019827773,77602555,692,17,-0.009033203125,-1.03497314453125,0.20819091796875
1760019827773,77602555,692,18,0.0,-1.03692626953125,0.19622802734375
1760019827773,77602555,692,19,-0.0087890625,-1.04718017578125,0.18255615234375
1760019827773,77602555,692,20,-0.00146484375,-1.04083251953125,0.18670654296875
1760019827773,77602555,692,21,0.01904296875,-1.02984619140625,0.18597412109375
1760019827773,77602555,692,22,-0.0166015625,-1.02593994140625,0.20379638671875
1760019827773,77602555,692,23,0.0126953125,-1.01788330078125,0.20452880859375
1760019827773,77602555,692,24,0.002197265625,-1.02593994140625,0.19818115234375
1760019827773,77602555,692,25,-0.0146484375,-1.03204345703125,0.18255615234375
1760019827773,77602555,692,26,0.00390625,-1.03302001953125,0.17327880859375
1760019827773,77602555,692,27,0.02685546875,-1.05694580078125,0.17279052734375
1760019827773,77602555,692,28,0.023681640625,-1.04449462890625,0.15911865234375
1760019827773,77602555,692,29,0.0380859375,-1.03326416015625,0.16839599609375
1760019827773,77602555,692,30,0.02294921875,-1.02374267578125,0.18157958984375
1760019827773,77602555,692,31,0.021728515625,-1.02691650390625,0.19842529296875
