receivedPhoneTimestamp,respeckTimestamp,packetSeqNum,sampleSeqNum,accelX,accelY,accelZ
1759596244947,697764717,13289,0,-0.288330078125,-0.89923095703125,0.36688232421875
1759596244947,697764717,13289,1,-0.297119140625,-0.89605712890625,0.37225341796875
1759596244947,697764717,13289,2,-0.286376953125,-0.89581298828125,0.36663818359375
1759596244947,697764717,13289,3,-0.28662109375,-0.89849853515625,0.36810302734375
1759596244947,697764717,13289,4,-0.290771484375,-0.89434814453125,0.37152099609375
1759596244947,697764717,13289,5,-0.2939453125,-0.89727783203125,0.37152099609375
1759596244947,697764717,13289,6,-0.286376953125,-0.90240478515625,0.36761474609375
1759596244947,697764717,13289,7,-0.2861328125,-0.90435791015625,0.36492919921875
1759596244947,697764717,13289,8,-0.28564453125,-0.90411376953125,0.36614990234375
1759596244947,697764717,13289,9,-0.2900390625,-0.90313720703125,0.36737060546875
1759596244947,697764717,13289,10,-0.28466796875,-0.90313720703125,0.35516357421875
1759596244947,697764717,13289,11,-0.2783203125,-0.91949462890625,0.35516357421875
1759596244947,697764717,13289,12,-0.27880859375,-0.90972900390625,0.34295654296875
1759596244947,697764717,13289,13,-0.28173828125,-0.92169189453125,0.33831787109375
1759596244947,697764717,13289,14,-0.28125,-0.91900634765625,0.33099365234375
1759596244947,697764717,13289,15,-0.282470703125,-0.92242431640625,0.32659912109375
1759596244947,697764717,13289,16,-0.281005859375,-0.92926025390625,0.30926513671875
1759596244947,697764717,13289,17,-0.280517578125,-0.92901611328125,0.29754638671875
1759596244947,697764717,13289,18,-0.27587890625,-0.94000244140625,0.28875732421875
1759596244947,697764717,13289,19,-0.28076171875,-0.92559814453125,0.28070068359375
1759596244947,697764717,13289,20,-0.248046875,-0.93072509765625,0.25506591796875
1759596244947,697764717,13289,21,-0.303466796875,-0.94000244140625,0.31170654296875
1759596244947,697764717,13289,22,-0.2978515625,-0.91998291015625,0.32708740234375
1759596244947,697764717,13289,23,-0.2294921875,-0.93292236328125,0.26824951171875
1759596244947,697764717,13289,24,-0.347900390625,-0.93243408203125,0.33709716796875
1759596244947,697764717,13289,25,-0.276611328125,-0.90631103515625,0.28924560546875
1759596244947,697764717,13289,26,-0.277587890625,-0.93829345703125,0.33538818359375
1759596244947,697764717,13289,27,-0.30078125,-0.89703369140625,0.31317138671875
1759596244947,697764717,13289,28,-0.267822265625,-0.92730712890625,0.33099365234375
1759596244947,697764717,13289,29,-0.30859375,-0.92071533203125,0.34271240234375
1759596244947,697764717,13289,30,-0.281005859375,-0.91290283203125,0.34368896484375
1759596244947,697764717,13289,31,-0.28466796875,-0.90850830078125,0.35174560546875
1759596247465,697767284,13290,0,-0.2890625,-0.91436767578125,0.35614013671875
1759596247465,697767284,13290,1,-0.280517578125,-0.91412353515625,0.32977294921875
1759596247465,697767284,13290,2,-0.29248046875,-0.91949462890625,0.36712646484375
1759596247465,697767284,13290,3,-0.29833984375,-0.89434814453125,0.33221435546875
1759596247465,697767284,13290,4,-0.25830078125,-0.92193603515625,0.36370849609375
1759596247465,697767284,13290,5,-0.31298828125,-0.90045166015625,0.34857177734375
1759596247465,697767284,13290,6,-0.260009765625,-0.92071533203125,0.32122802734375
1759596247465,697767284,13290,7,-0.320068359375,-0.91973876953125,0.36175537109375
1759596247465,697767284,13290,8,-0.29638671875,-0.90142822265625,0.35614013671875
1759596247465,697767284,13290,9,-0.255859375,-0.91900634765625,0.35516357421875
1759596247465,697767284,13290,10,-0.281494140625,-0.88092041015625,0.35394287109375
1759596247465,697767284,13290,11,-0.30322265625,-0.92315673828125,0.37786865234375
1759596247465,697767284,13290,12,-0.287841796875,-0.89166259765625,0.36517333984375
1759596247465,697767284,13290,13,-0.296142578125,-0.89117431640625,0.37835693359375
1759596247465,697767284,13290,14,-0.288818359375,-0.91778564453125,0.35809326171875
1759596247465,697767284,13290,15,-0.284912109375,-0.92901611328125,0.32635498046875
1759596247465,697767284,13290,16,-0.271240234375,-0.92144775390625,0.32586669921875
1759596247465,697767284,13290,17,-0.262451171875,-0.93048095703125,0.31121826171875
1759596247465,697767284,13290,18,-0.260986328125,-0.91583251953125,0.29437255859375
1759596247465,697767284,13290,19,-0.2802734375,-0.93756103515625,0.30316162109375
1759596247465,697767284,13290,20,-0.277099609375,-0.92999267578125,0.31268310546875
1759596247465,697767284,13290,21,-0.25732421875,-0.92803955078125,0.31781005859375
1759596247465,697767284,13290,22,-0.2783203125,-0.92633056640625,0.32537841796875
1759596247465,697767284,13290,23,-0.278076171875,-0.91802978515625,0.30609130859375
1759596247465,697767284,13290,24,-0.272216796875,-0.94415283203125,0.31585693359375
1759596247465,697767284,13290,25,-0.286865234375,-0.90899658203125,0.32635498046875
1759596247465,697767284,13290,26,-0.263671875,-0.92266845703125,0.32049560546875
1759596247465,697767284,13290,27,-0.297607421875,-0.92266845703125,0.34051513671875
1759596247465,697767284,13290,28,-0.263671875,-0.91436767578125,0.32733154296875
1759596247465,697767284,13290,29,-0.271484375,-0.92755126953125,0.34832763671875
1759596247465,697767284,13290,30,-0.284423828125,-0.90655517578125,0.33489990234375
1759596247465,697767284,13290,31,-0.283203125,-0.92681884765625,0.34002685546875
1759596249991,697769851,13291,0,-0.27001953125,-0.90533447265625,0.34173583984375
1759596249991,697769851,13291,1,-0.26513671875,-0.91607666015625,0.34954833984375
1759596249991,697769851,13291,2,-0.287109375,-0.91705322265625,0.35809326171875
1759596249991,697769851,13291,3,-0.26953125,-0.90850830078125,0.35394287109375
1759596249991,697769851,13291,4,-0.26806640625,-0.91461181640625,0.35565185546875
1759596249991,697769851,13291,5,-0.287353515625,-0.90069580078125,0.35662841796875
1759596249991,697769851,13291,6,-0.289794921875,-0.91217041015625,0.35906982421875
1759596249991,697769851,13291,7,-0.269775390625,-0.91094970703125,0.35687255859375
1759596249991,697769851,13291,8,-0.28369140625,-0.89849853515625,0.36492919921875
1759596249991,697769851,13291,9,-0.28369140625,-0.90802001953125,0.36785888671875
1759596249991,697769851,13291,10,-0.280517578125,-0.90777587890625,0.36932373046875
1759596249991,697769851,13291,11,-0.273193359375,-0.90191650390625,0.36590576171875
1759596249991,697769851,13291,12,-0.2763671875,-0.91363525390625,0.36663818359375
1759596249991,697769851,13291,13,-0.280517578125,-0.90338134765625,0.36541748046875
1759596249991,697769851,13291,14,-0.27880859375,-0.90753173828125,0.36395263671875
1759596249991,697769851,13291,15,-0.283935546875,-0.89678955078125,0.36419677734375
1759596249991,697769851,13291,16,-0.27783203125,-0.90802001953125,0.37371826171875
1759596249991,697769851,13291,17,-0.275390625,-0.90777587890625,0.36322021484375
1759596249991,697769851,13291,18,-0.293212890625,-0.90802001953125,0.36102294921875
1759596249991,697769851,13291,19,-0.272705078125,-0.90289306640625,0.35369873046875
1759596249991,697769851,13291,20,-0.279052734375,-0.91973876953125,0.34564208984375
1759596249991,697769851,13291,21,-0.256591796875,-0.91802978515625,0.36370849609375
1759596249991,697769851,13291,22,-0.2626953125,-0.90167236328125,0.35052490234375
1759596249991,697769851,13291,23,-0.278564453125,-0.91876220703125,0.37176513671875
1759596249991,697769851,13291,24,-0.278564453125,-0.90606689453125,0.36346435546875
1759596249991,697769851,13291,25,-0.299560546875,-0.91241455078125,0.33343505859375
1759596249991,697769851,13291,26,-0.291748046875,-0.93023681640625,0.34100341796875
1759596249991,697769851,13291,27,-0.252685546875,-0.92779541015625,0.29632568359375
1759596249991,697769851,13291,28,-0.27294921875,-0.94049072265625,0.28851318359375
1759596249991,697769851,13291,29,-0.276611328125,-0.93658447265625,0.27728271484375
1759596249991,697769851,13291,30,-0.25927734375,-0.94659423828125,0.26458740234375
1759596249991,697769851,13291,31,-0.26806640625,-0.94073486328125,0.26361083984375
1759596252686,697772418,13292,0,-0.263916015625,-0.94561767578125,0.25482177734375
1759596252686,697772418,13292,1,-0.267333984375,-0.94659423828125,0.24481201171875
1759596252686,697772418,13292,2,-0.265625,-0.93756103515625,0.25823974609375
1759596252686,697772418,13292,3,-0.27587890625,-0.95855712890625,0.26995849609375
1759596252686,697772418,13292,4,-0.271728515625,-0.93682861328125,0.27215576171875
1759596252686,697772418,13292,5,-0.271484375,-0.94854736328125,0.26190185546875
1759596252686,697772418,13292,6,-0.24951171875,-0.93438720703125,0.27069091796875
1759596252686,697772418,13292,7,-0.322509765625,-0.94830322265625,0.33612060546875
1759596252686,697772418,13292,8,-0.24951171875,-0.91827392578125,0.29241943359375
1759596252686,697772418,13292,9,-0.301025390625,-0.94244384765625,0.32342529296875
1759596252686,697772418,13292,10,-0.281982421875,-0.90997314453125,0.31097412109375
1759596252686,697772418,13292,11,-0.26025390625,-0.94415283203125,0.30828857421875
1759596252686,697772418,13292,12,-0.286865234375,-0.93756103515625,0.30438232421875
1759596252686,697772418,13292,13,-0.278564453125,-0.92535400390625,0.28436279296875
1759596252686,697772418,13292,14,-0.273681640625,-0.93536376953125,0.32415771484375
1759596252686,697772418,13292,15,-0.283935546875,-0.91607666015625,0.30023193359375
1759596252686,697772418,13292,16,-0.224609375,-0.93048095703125,0.31488037109375
1759596252686,697772418,13292,17,-0.33349609375,-0.91802978515625,0.36297607421875
1759596252686,697772418,13292,18,-0.27734375,-0.91168212890625,0.31195068359375
1759596252686,697772418,13292,19,-0.27783203125,-0.93243408203125,0.34906005859375
1759596252686,697772418,13292,20,-0.27978515625,-0.89093017578125,0.31024169921875
1759596252686,697772418,13292,21,-0.2373046875,-0.92437744140625,0.36859130859375
1759596252686,697772418,13292,22,-0.287841796875,-0.93682861328125,0.36566162109375
1759596252686,697772418,13292,23,-0.299560546875,-0.90264892578125,0.33905029296875
1759596252686,697772418,13292,24,-0.266357421875,-0.87823486328125,0.36785888671875
1759596252686,697772418,13292,25,-0.3037109375,-0.89898681640625,0.41375732421875
1759596252686,697772418,13292,26,-0.25244140625,-0.90948486328125,0.36541748046875
1759596252686,697772418,13292,27,-0.29052734375,-0.89605712890625,0.39862060546875
1759596252686,697772418,13292,28,-0.302978515625,-0.89044189453125,0.35052490234375
1759596252686,697772418,13292,29,-0.2861328125,-0.89947509765625,0.40765380859375
1759596252686,697772418,13292,30,-0.31005859375,-0.89166259765625,0.37738037109375
1759596252686,697772418,13292,31,-0.24951171875,-0.86627197265625,0.39398193359375
1759596255206,697774985,13293,0,-0.32763671875,-0.85968017578125,0.42547607421875
1759596255206,697774985,13293,1,-0.30322265625,-0.88092041015625,0.44232177734375
1759596255206,697774985,13293,2,-0.302734375,-0.86676025390625,0.41619873046875
1759596255206,697774985,13293,3,-0.280029296875,-0.87921142578125,0.38153076171875
1759596255206,697774985,13293,4,-0.2890625,-0.89508056640625,0.38372802734375
1759596255206,697774985,13293,5,-0.273193359375,-0.89923095703125,0.38446044921875
1759596255206,697774985,13293,6,-0.28173828125,-0.92047119140625,0.34930419921875
1759596255206,697774985,13293,7,-0.27099609375,-0.91925048828125,0.33123779296875
1759596255206,697774985,13293,8,-0.280517578125,-0.92999267578125,0.32147216796875
1759596255206,697774985,13293,9,-0.277587890625,-0.91339111328125,0.30706787109375
1759596255206,697774985,13293,10,-0.27783203125,-0.94976806640625,0.26434326171875
1759596255206,697774985,13293,11,-0.240478515625,-0.90460205078125,0.28338623046875
1759596255206,697774985,13293,12,-0.284423828125,-0.93634033203125,0.34930419921875
1759596255206,697774985,13293,13,-0.310546875,-0.93853759765625,0.37347412109375
1759596255206,697774985,13293,14,-0.283935546875,-0.90972900390625,0.29461669921875
1759596255206,697774985,13293,15,-0.274658203125,-0.92706298828125,0.30120849609375
1759596255206,697774985,13293,16,-0.2724609375,-0.92681884765625,0.28436279296875
1759596255206,697774985,13293,17,-0.26513671875,-0.90850830078125,0.32049560546875
1759596255206,697774985,13293,18,-0.292724609375,-0.92730712890625,0.37469482421875
1759596255206,697774985,13293,19,-0.306640625,-0.92681884765625,0.34613037109375
1759596255206,697774985,13293,20,-0.28271484375,-0.92242431640625,0.29534912109375
1759596255206,697774985,13293,21,-0.259033203125,-0.92144775390625,0.30072021484375
1759596255206,697774985,13293,22,-0.29443359375,-0.93414306640625,0.28924560546875
1759596255206,697774985,13293,23,-0.25048828125,-0.91925048828125,0.32708740234375
1759596255206,697774985,13293,24,-0.283447265625,-0.93365478515625,0.35809326171875
1759596255206,697774985,13293,25,-0.292236328125,-0.92462158203125,0.32562255859375
1759596255206,697774985,13293,26,-0.2890625,-0.92657470703125,0.30364990234375
1759596255206,697774985,13293,27,-0.27587890625,-0.92877197265625,0.28509521484375
1759596255206,697774985,13293,28,-0.261962890625,-0.92852783203125,0.29364013671875
1759596255206,697774985,13293,29,-0.248291015625,-0.93780517578125,0.32220458984375
1759596255206,697774985,13293,30,-0.27197265625,-0.91680908203125,0.31390380859375
1759596255206,697774985,13293,31,-0.277587890625,-0.94342041015625,0.31121826171875
1759596257727,697777553,13294,0,-0.271728515625,-0.92926025390625,0.30706787109375
1759596257727,697777553,13294,1,-0.26953125,-0.93218994140625,0.32635498046875
1759596257727,697777553,13294,2,-0.25634765625,-0.92047119140625,0.33709716796875
1759596257727,697777553,13294,3,-0.25732421875,-0.92022705078125,0.31829833984375
1759596257727,697777553,13294,4,-0.30859375,-0.94488525390625,0.31317138671875
1759596257727,697777553,13294,5,-0.30419921875,-0.93096923828125,0.31610107421875
1759596257727,697777553,13294,6,-0.25146484375,-0.92877197265625,0.29827880859375
1759596257727,697777553,13294,7,-0.26953125,-0.94903564453125,0.26312255859375
1759596257727,697777553,13294,8,-0.265380859375,-0.93341064453125,0.24798583984375
1759596257727,697777553,13294,9,-0.2724609375,-0.94097900390625,0.26263427734375
1759596257727,697777553,13294,10,-0.27099609375,-0.94293212890625,0.27020263671875
1759596257727,697777553,13294,11,-0.268310546875,-0.94757080078125,0.28265380859375
1759596257727,697777553,13294,12,-0.280517578125,-0.93927001953125,0.26312255859375
1759596257727,697777553,13294,13,-0.2939453125,-0.92291259765625,0.30975341796875
1759596257727,697777553,13294,14,-0.270263671875,-0.90948486328125,0.32293701171875
1759596257727,697777553,13294,15,-0.294921875,-0.91534423828125,0.35833740234375
1759596257727,697777553,13294,16,-0.310791015625,-0.89117431640625,0.37322998046875
1759596257727,697777553,13294,17,-0.316650390625,-0.88751220703125,0.35955810546875
1759596257727,697777553,13294,18,-0.296630859375,-0.89849853515625,0.40985107421875
1759596257727,697777553,13294,19,-0.302490234375,-0.88873291015625,0.38299560546875
1759596257727,697777553,13294,20,-0.2900390625,-0.93121337890625,0.33294677734375
1759596257727,697777553,13294,21,-0.292236328125,-0.92291259765625,0.32293701171875
1759596257727,697777553,13294,22,-0.278076171875,-0.92755126953125,0.30364990234375
1759596257727,697777553,13294,23,-0.25927734375,-0.90777587890625,0.29461669921875
1759596257727,697777553,13294,24,-0.292236328125,-0.93927001953125,0.31781005859375
1759596257727,697777553,13294,25,-0.279052734375,-0.91436767578125,0.31170654296875
1759596257727,697777553,13294,26,-0.272705078125,-0.92291259765625,0.33001708984375
1759596257727,697777553,13294,27,-0.292724609375,-0.93707275390625,0.31292724609375
1759596257727,697777553,13294,28,-0.260986328125,-0.92071533203125,0.32000732421875
1759596257727,697777553,13294,29,-0.293212890625,-0.92999267578125,0.31829833984375
1759596257727,697777553,13294,30,-0.26611328125,-0.91827392578125,0.32659912109375
1759596257727,697777553,13294,31,-0.26904296875,-0.91827392578125,0.33514404296875
1759596260248,697780120,13295,0,-0.28369140625,-0.91705322265625,0.33929443359375
1759596260248,697780120,13295,1,-0.267578125,-0.92315673828125,0.32757568359375
1759596260248,697780120,13295,2,-0.246337890625,-0.90704345703125,0.35662841796875
1759596260248,697780120,13295,3,-0.2919921875,-0.92291259765625,0.35858154296875
1759596260248,697780120,13295,4,-0.27587890625,-0.92388916015625,0.33123779296875
1759596260248,697780120,13295,5,-0.25830078125,-0.91656494140625,0.33734130859375
1759596260248,697780120,13295,6,-0.27490234375,-0.92340087890625,0.35028076171875
1759596260248,697780120,13295,7,-0.261474609375,-0.92388916015625,0.33050537109375
1759596260248,697780120,13295,8,-0.24755859375,-0.90997314453125,0.33831787109375
1759596260248,697780120,13295,9,-0.258056640625,-0.93072509765625,0.34857177734375
1759596260248,697780120,13295,10,-0.266357421875,-0.91558837890625,0.33514404296875
1759596260248,697780120,13295,11,-0.25634765625,-0.93048095703125,0.33270263671875
1759596260248,697780120,13295,12,-0.259521484375,-0.91363525390625,0.34368896484375
1759596260248,697780120,13295,13,-0.26708984375,-0.92315673828125,0.34173583984375
1759596260248,697780120,13295,14,-0.26953125,-0.92413330078125,0.34051513671875
1759596260248,697780120,13295,15,-0.27099609375,-0.91192626953125,0.33343505859375
1759596260248,697780120,13295,16,-0.24462890625,-0.92510986328125,0.31951904296875
1759596260248,697780120,13295,17,-0.295166015625,-0.89849853515625,0.37225341796875
1759596260248,697780120,13295,18,-0.310546875,-0.89288330078125,0.35198974609375
1759596260248,697780120,13295,19,-0.32763671875,-0.92559814453125,0.36395263671875
1759596260248,697780120,13295,20,-0.28662109375,-0.88824462890625,0.35125732421875
1759596260248,697780120,13295,21,-0.27197265625,-0.91265869140625,0.36273193359375
1759596260248,697780120,13295,22,-0.27294921875,-0.90728759765625,0.36468505859375
1759596260248,697780120,13295,23,-0.31640625,-0.90655517578125,0.35662841796875
1759596260248,697780120,13295,24,-0.27587890625,-0.88360595703125,0.37469482421875
1759596260248,697780120,13295,25,-0.2900390625,-0.88067626953125,0.41497802734375
1759596260248,697780120,13295,26,-0.284912109375,-0.88409423828125,0.38836669921875
1759596260248,697780120,13295,27,-0.3095703125,-0.88580322265625,0.38519287109375
1759596260248,697780120,13295,28,-0.307373046875,-0.88433837890625,0.39031982421875
1759596260248,697780120,13295,29,-0.28857421875,-0.88385009765625,0.39959716796875
1759596260248,697780120,13295,30,-0.296630859375,-0.87359619140625,0.39080810546875
1759596260248,697780120,13295,31,-0.322265625,-0.88531494140625,0.42352294921875
1759596262947,697782687,13296,0,-0.259033203125,-0.91949462890625,0.38470458984375
1759596262947,697782687,13296,1,-0.29296875,-0.86529541015625,0.36370849609375
1759596262947,697782687,13296,2,-0.32861328125,-0.90533447265625,0.37200927734375
1759596262947,697782687,13296,3,-0.279541015625,-0.92413330078125,0.34954833984375
1759596262947,697782687,13296,4,-0.275390625,-0.89849853515625,0.31805419921875
1759596262947,697782687,13296,5,-0.266845703125,-0.93927001953125,0.30023193359375
1759596262947,697782687,13296,6,-0.282470703125,-0.92242431640625,0.29656982421875
1759596262947,697782687,13296,7,-0.27294921875,-0.91534423828125,0.31951904296875
1759596262947,697782687,13296,8,-0.253173828125,-0.94537353515625,0.31683349609375
1759596262947,697782687,13296,9,-0.302001953125,-0.91802978515625,0.31854248046875
1759596262947,697782687,13296,10,-0.267578125,-0.93463134765625,0.29949951171875
1759596262947,697782687,13296,11,-0.282470703125,-0.93365478515625,0.31317138671875
1759596262947,697782687,13296,12,-0.266357421875,-0.91656494140625,0.32635498046875
1759596262947,697782687,13296,13,-0.2646484375,-0.92193603515625,0.34002685546875
1759596262947,697782687,13296,14,-0.289306640625,-0.92095947265625,0.31048583984375
1759596262947,697782687,13296,15,-0.29638671875,-0.92901611328125,0.33026123046875
1759596262947,697782687,13296,16,-0.263916015625,-0.91094970703125,0.34857177734375
1759596262947,697782687,13296,17,-0.26513671875,-0.92828369140625,0.34539794921875
1759596262947,697782687,13296,18,-0.2861328125,-0.92657470703125,0.29705810546875
1759596262947,697782687,13296,19,-0.291748046875,-0.94708251953125,0.27166748046875
1759596262947,697782687,13296,20,-0.285888671875,-0.93682861328125,0.27825927734375
1759596262947,697782687,13296,21,-0.287353515625,-0.93023681640625,0.25262451171875
1759596262947,697782687,13296,22,-0.23583984375,-0.93829345703125,0.22528076171875
1759596262947,697782687,13296,23,-0.297119140625,-0.93292236328125,0.31878662109375
1759596262947,697782687,13296,24,-0.298828125,-0.92608642578125,0.32415771484375
1759596262947,697782687,13296,25,-0.276123046875,-0.91217041015625,0.33978271484375
1759596262947,697782687,13296,26,-0.324951171875,-0.90802001953125,0.34954833984375
1759596262947,697782687,13296,27,-0.2958984375,-0.90020751953125,0.37030029296875
1759596262947,697782687,13296,28,-0.29931640625,-0.90728759765625,0.34344482421875
1759596262947,697782687,13296,29,-0.31494140625,-0.89459228515625,0.37200927734375
1759596262947,697782687,13296,30,-0.294189453125,-0.90118408203125,0.34783935546875
1759596262947,697782687,13296,31,-0.312255859375,-0.89483642578125,0.36981201171875
1759596265466,697785248,13297,0,-0.300537109375,-0.89727783203125,0.35052490234375
1759596265466,697785248,13297,1,-0.302978515625,-0.89849853515625,0.36712646484375
1759596265466,697785248,13297,2,-0.31982421875,-0.89483642578125,0.36151123046875
1759596265466,697785248,13297,3,-0.301513671875,-0.88262939453125,0.37127685546875
1759596265466,697785248,13297,4,-0.3125,-0.89703369140625,0.36224365234375
1759596265466,697785248,13297,5,-0.313232421875,-0.88433837890625,0.38275146484375
1759596265466,697785248,13297,6,-0.3046875,-0.89385986328125,0.36566162109375
1759596265466,697785248,13297,7,-0.302490234375,-0.89459228515625,0.35931396484375
1759596265466,697785248,13297,8,-0.2978515625,-0.90362548828125,0.37005615234375
1759596265466,697785248,13297,9,-0.302978515625,-0.89703369140625,0.36395263671875
1759596265466,697785248,13297,10,-0.28466796875,-0.90045166015625,0.36541748046875
1759596265466,697785248,13297,11,-0.30029296875,-0.89678955078125,0.36688232421875
1759596265466,697785248,13297,12,-0.2958984375,-0.89361572265625,0.37249755859375
1759596265466,697785248,13297,13,-0.29443359375,-0.89703369140625,0.38421630859375
1759596265466,697785248,13297,14,-0.28759765625,-0.89825439453125,0.36956787109375
1759596265466,697785248,13297,15,-0.291259765625,-0.90216064453125,0.37249755859375
1759596265466,697785248,13297,16,-0.284423828125,-0.89801025390625,0.35736083984375
1759596265466,697785248,13297,17,-0.287353515625,-0.91046142578125,0.34954833984375
1759596265466,697785248,13297,18,-0.27587890625,-0.91461181640625,0.33831787109375
1759596265466,697785248,13297,19,-0.281005859375,-0.91925048828125,0.32952880859375
1759596265466,697785248,13297,20,-0.2822265625,-0.92486572265625,0.32098388671875
1759596265466,697785248,13297,21,-0.276611328125,-0.92095947265625,0.31048583984375
1759596265466,697785248,13297,22,-0.273193359375,-0.93585205078125,0.29168701171875
1759596265466,697785248,13297,23,-0.2880859375,-0.93560791015625,0.27752685546875
1759596265466,697785248,13297,24,-0.256103515625,-0.93927001953125,0.27850341796875
1759596265466,697785248,13297,25,-0.29248046875,-0.92535400390625,0.30584716796875
1759596265466,697785248,13297,26,-0.288330078125,-0.92633056640625,0.32220458984375
1759596265466,697785248,13297,27,-0.296630859375,-0.90997314453125,0.34197998046875
1759596265466,697785248,13297,28,-0.28076171875,-0.92901611328125,0.29412841796875
1759596265466,697785248,13297,29,-0.289306640625,-0.92047119140625,0.33660888671875
1759596265466,697785248,13297,30,-0.2744140625,-0.92559814453125,0.30511474609375
1759596265466,697785248,13297,31,-0.29931640625,-0.92193603515625,0.33197021484375
1759596267986,697787815,13298,0,-0.28125,-0.91558837890625,0.31878662109375
1759596267986,697787815,13298,1,-0.30126953125,-0.91754150390625,0.34368896484375
1759596267986,697787815,13298,2,-0.27294921875,-0.91363525390625,0.32196044921875
1759596267986,697787815,13298,3,-0.292724609375,-0.91461181640625,0.35418701171875
1759596267986,697787815,13298,4,-0.2919921875,-0.90582275390625,0.33514404296875
1759596267986,697787815,13298,5,-0.296142578125,-0.91436767578125,0.35638427734375
1759596267986,697787815,13298,6,-0.29248046875,-0.90435791015625,0.34027099609375
1759596267986,697787815,13298,7,-0.282470703125,-0.91656494140625,0.34466552734375
1759596267986,697787815,13298,8,-0.292236328125,-0.91046142578125,0.33319091796875
1759596267986,697787815,13298,9,-0.2919921875,-0.90875244140625,0.35760498046875
1759596267986,697787815,13298,10,-0.296875,-0.91094970703125,0.35858154296875
1759596267986,697787815,13298,11,-0.28857421875,-0.91046142578125,0.36029052734375
1759596267986,697787815,13298,12,-0.2880859375,-0.91314697265625,0.34027099609375
1759596267986,697787815,13298,13,-0.28564453125,-0.92242431640625,0.33245849609375
1759596267986,697787815,13298,14,-0.28076171875,-0.91900634765625,0.32464599609375
1759596267986,697787815,13298,15,-0.283203125,-0.91949462890625,0.32830810546875
1759596267986,697787815,13298,16,-0.278564453125,-0.92193603515625,0.31341552734375
1759596267986,697787815,13298,17,-0.279541015625,-0.92950439453125,0.31024169921875
1759596267986,697787815,13298,18,-0.2841796875,-0.92730712890625,0.30535888671875
1759596267986,697787815,13298,19,-0.270263671875,-0.92559814453125,0.28997802734375
1759596267986,697787815,13298,20,-0.27392578125,-0.93756103515625,0.29315185546875
1759596267986,697787815,13298,21,-0.28271484375,-0.92169189453125,0.25775146484375
1759596267986,697787815,13298,22,-0.240234375,-0.94561767578125,0.28436279296875
1759596267986,697787815,13298,23,-0.30810546875,-0.92169189453125,0.32220458984375
1759596267986,697787815,13298,24,-0.294189453125,-0.92803955078125,0.33758544921875
1759596267986,697787815,13298,25,-0.28369140625,-0.90533447265625,0.34539794921875
1759596267986,697787815,13298,26,-0.294189453125,-0.91900634765625,0.31854248046875
1759596267986,697787815,13298,27,-0.2978515625,-0.92047119140625,0.34661865234375
1759596267986,697787815,13298,28,-0.294677734375,-0.91363525390625,0.33319091796875
1759596267986,697787815,13298,29,-0.284423828125,-0.90240478515625,0.34783935546875
1759596267986,697787815,13298,30,-0.29833984375,-0.91412353515625,0.34027099609375
1759596267986,697787815,13298,31,-0.302734375,-0.90606689453125,0.36053466796875
1759596270687,697790382,13299,0,-0.287841796875,-0.90411376953125,0.34686279296875
1759596270687,697790382,13299,1,-0.288330078125,-0.91290283203125,0.36077880859375
1759596270687,697790382,13299,2,-0.30078125,-0.90582275390625,0.35003662109375
1759596270687,697790382,13299,3,-0.280517578125,-0.90850830078125,0.35150146484375
1759596270687,697790382,13299,4,-0.29833984375,-0.90484619140625,0.35980224609375
1759596270687,697790382,13299,5,-0.285888671875,-0.91070556640625,0.36077880859375
1759596270687,697790382,13299,6,-0.293212890625,-0.90411376953125,0.33905029296875
1759596270687,697790382,13299,7,-0.29541015625,-0.90435791015625,0.35369873046875
1759596270687,697790382,13299,8,-0.285888671875,-0.90753173828125,0.35662841796875
1759596270687,697790382,13299,9,-0.286376953125,-0.90313720703125,0.35614013671875
1759596270687,697790382,13299,10,-0.302734375,-0.88824462890625,0.35906982421875
1759596270687,697790382,13299,11,-0.279052734375,-0.90802001953125,0.36834716796875
1759596270687,697790382,13299,12,-0.2919921875,-0.90216064453125,0.36663818359375
1759596270687,697790382,13299,13,-0.283203125,-0.90582275390625,0.37200927734375
1759596270687,697790382,13299,14,-0.287841796875,-0.89434814453125,0.38128662109375
1759596270687,697790382,13299,15,-0.29150390625,-0.89239501953125,0.38861083984375
1759596270687,697790382,13299,16,-0.282958984375,-0.88824462890625,0.37298583984375
1759596270687,697790382,13299,17,-0.286865234375,-0.89630126953125,0.38079833984375
1759596270687,697790382,13299,18,-0.286376953125,-0.89459228515625,0.38543701171875
1759596270687,697790382,13299,19,-0.27490234375,-0.89947509765625,0.37615966796875
1759596270687,697790382,13299,20,-0.281982421875,-0.90972900390625,0.37103271484375
1759596270687,697790382,13299,21,-0.275390625,-0.90557861328125,0.36492919921875
1759596270687,697790382,13299,22,-0.2783203125,-0.90484619140625,0.36419677734375
1759596270687,697790382,13299,23,-0.281005859375,-0.90753173828125,0.36224365234375
1759596270687,697790382,13299,24,-0.28125,-0.91339111328125,0.35565185546875
1759596270687,697790382,13299,25,-0.281982421875,-0.91510009765625,0.34075927734375
1759596270687,697790382,13299,26,-0.271240234375,-0.91973876953125,0.32781982421875
1759596270687,697790382,13299,27,-0.27587890625,-0.92535400390625,0.31463623046875
1759596270687,697790382,13299,28,-0.279296875,-0.92486572265625,0.31365966796875
1759596270687,697790382,13299,29,-0.2724609375,-0.91680908203125,0.30242919921875
1759596270687,697790382,13299,30,-0.28466796875,-0.94049072265625,0.29266357421875
1759596270687,697790382,13299,31,-0.2685546875,-0.90997314453125,0.31536865234375
1759596273207,697792949,13300,0,-0.287841796875,-0.92364501953125,0.33758544921875
1759596273207,697792949,13300,1,-0.30029296875,-0.90435791015625,0.35174560546875
1759596273207,697792949,13300,2,-0.283203125,-0.90411376953125,0.33807373046875
1759596273207,697792949,13300,3,-0.299560546875,-0.90948486328125,0.36859130859375
1759596273207,697792949,13300,4,-0.296630859375,-0.89556884765625,0.35076904296875
1759596273207,697792949,13300,5,-0.30126953125,-0.90948486328125,0.37567138671875
1759596273207,697792949,13300,6,-0.291748046875,-0.89825439453125,0.34490966796875
1759596273207,697792949,13300,7,-0.29248046875,-0.90948486328125,0.36297607421875
1759596273207,697792949,13300,8,-0.311767578125,-0.89654541015625,0.34661865234375
1759596273207,697792949,13300,9,-0.286865234375,-0.90362548828125,0.36785888671875
1759596273207,697792949,13300,10,-0.297607421875,-0.89532470703125,0.35638427734375
1759596273207,697792949,13300,11,-0.291259765625,-0.89849853515625,0.36175537109375
1759596273207,697792949,13300,12,-0.30908203125,-0.89874267578125,0.36492919921875
1759596273207,697792949,13300,13,-0.288330078125,-0.89215087890625,0.36053466796875
1759596273207,697792949,13300,14,-0.29736328125,-0.90460205078125,0.36590576171875
1759596273207,697792949,13300,15,-0.298828125,-0.89727783203125,0.35931396484375
1759596273207,697792949,13300,16,-0.2890625,-0.89703369140625,0.37152099609375
1759596273207,697792949,13300,17,-0.30322265625,-0.88677978515625,0.37615966796875
1759596273207,697792949,13300,18,-0.29931640625,-0.90850830078125,0.37615966796875
1759596273207,697792949,13300,19,-0.288818359375,-0.90020751953125,0.35174560546875
1759596273207,697792949,13300,20,-0.285888671875,-0.90753173828125,0.36688232421875
1759596273207,697792949,13300,21,-0.28369140625,-0.91510009765625,0.34295654296875
1759596273207,697792949,13300,22,-0.277587890625,-0.91510009765625,0.34149169921875
1759596273207,697792949,13300,23,-0.2744140625,-0.91534423828125,0.32733154296875
1759596273207,697792949,13300,24,-0.275634765625,-0.92486572265625,0.32586669921875
1759596273207,697792949,13300,25,-0.27880859375,-0.92169189453125,0.31292724609375
1759596273207,697792949,13300,26,-0.2763671875,-0.91510009765625,0.29364013671875
