receivedPhoneTimestamp,respeckTimestamp,packetSeqNum,sampleSeqNum,accelX,accelY,accelZ
1759966731859,477056920,13962,3,-0.912109375,-0.02056884765625,0.41619873046875
1759966731859,477056920,13962,4,-0.904541015625,-0.02691650390625,0.45965576171875
1759966731859,477056920,13962,5,-0.92529296875,-0.02056884765625,0.42083740234375
1759966731859,477056920,13962,6,-0.871337890625,-0.00103759765625,0.42401123046875
1759966731859,477056920,13962,7,-0.8759765625,-0.00714111328125,0.43157958984375
1759966731859,477056920,13962,8,-0.89404296875,-0.02935791015625,0.45257568359375
1759966731859,477056920,13962,9,-0.906494140625,-0.01983642578125,0.44720458984375
1759966731859,477056920,13962,10,-0.88623046875,-0.00494384765625,0.44378662109375
1759966731859,477056920,13962,11,-0.87353515625,-0.02301025390625,0.44110107421875
1759966731859,477056920,13962,12,-0.891357421875,-0.01812744140625,0.46087646484375
1759966731859,477056920,13962,13,-0.92236328125,-0.03179931640625,0.41473388671875
1759966731859,477056920,13962,14,-0.9091796875,-0.01934814453125,0.39935302734375
1759966731859,477056920,13962,15,-0.881103515625,-0.02569580078125,0.42327880859375
1759966731859,477056920,13962,16,-0.88720703125,-0.03546142578125,0.42327880859375
1759966731859,477056920,13962,17,-0.900146484375,-0.01177978515625,0.42205810546875
1759966731859,477056920,13962,18,-0.919189453125,-0.02911376953125,0.46551513671875
1759966731859,477056920,13962,19,-0.89013671875,-0.02105712890625,0.43035888671875
1759966731859,477056920,13962,20,-0.866943359375,-0.02008056640625,0.43255615234375
1759966731859,477056920,13962,21,-0.8984375,-0.03961181640625,0.45745849609375
1759966731859,477056920,13962,22,-0.896728515625,-0.01202392578125,0.43792724609375
1759966731859,477056920,13962,23,-0.88232421875,-0.01885986328125,0.44744873046875
1759966731859,477056920,13962,24,-0.90234375,-0.03399658203125,0.45208740234375
1759966731859,477056920,13962,25,-0.87451171875,-0.00543212890625,0.43133544921875
1759966731859,477056920,13962,26,-0.881103515625,-0.02349853515625,0.46014404296875
1759966731859,477056920,13962,27,-0.893310546875,-0.01715087890625,0.43963623046875
1759966731859,477056920,13962,28,-0.912353515625,-0.03326416015625,0.43792724609375
1759966731859,477056920,13962,29,-0.911376953125,-0.03839111328125,0.41546630859375
1759966731859,477056920,13962,30,-0.926025390625,-0.02227783203125,0.38909912109375
1759966731859,477056920,13962,31,-0.869384765625,-0.00787353515625,0.41351318359375
1759966734444,477059481,13963,0,-0.900146484375,-0.03790283203125,0.41668701171875
1759966734444,477059481,13963,1,-0.89453125,-0.01104736328125,0.41595458984375
1759966734444,477059481,13963,2,-0.9130859375,-0.02740478515625,0.45184326171875
1759966734444,477059481,13963,3,-0.89599609375,-0.02227783203125,0.45037841796875
1759966734444,477059481,13963,4,-0.87158203125,-0.01641845703125,0.42156982421875
1759966734444,477059481,13963,5,-0.87890625,-0.01739501953125,0.44329833984375
1759966734444,477059481,13963,6,-0.916015625,-0.02886962890625,0.45159912109375
1759966734444,477059481,13963,7,-0.8984375,-0.01251220703125,0.43621826171875
1759966734444,477059481,13963,8,-0.876953125,-0.01275634765625,0.44476318359375
1759966734444,477059481,13963,9,-0.886962890625,-0.01983642578125,0.45526123046875
1759966734444,477059481,13963,10,-0.89697265625,-0.02325439453125,0.45574951171875
1759966734444,477059481,13963,11,-0.877197265625,-0.00372314453125,0.45281982421875
1759966734444,477059481,13963,12,-0.87109375,-0.01397705078125,0.44671630859375
1759966734444,477059481,13963,13,-0.902587890625,-0.01983642578125,0.45477294921875
1759966734444,477059481,13963,14,-0.919677734375,-0.04425048828125,0.45623779296875
1759966734444,477059481,13963,15,-0.916015625,-0.02276611328125,0.39447021484375
1759966734444,477059481,13963,16,-0.88037109375,0.00433349609375,0.39959716796875
1759966734444,477059481,13963,17,-0.874755859375,-0.04742431640625,0.44183349609375
1759966734444,477059481,13963,18,-0.913818359375,-0.02178955078125,0.44549560546875
1759966734444,477059481,13963,19,-0.87548828125,-0.01275634765625,0.45867919921875
1759966734444,477059481,13963,20,-0.88720703125,-0.01202392578125,0.45623779296875
1759966734444,477059481,13963,21,-0.861328125,-0.00933837890625,0.45355224609375
1759966734444,477059481,13963,22,-0.881591796875,-0.02227783203125,0.47869873046875
1759966734444,477059481,13963,23,-0.873779296875,-0.01617431640625,0.47943115234375
1759966734444,477059481,13963,24,-0.851806640625,-0.00274658203125,0.47894287109375
1759966734444,477059481,13963,25,-0.8779296875,-0.01934814453125,0.48284912109375
1759966734444,477059481,13963,26,-0.869873046875,-0.00299072265625,0.47552490234375
1759966734444,477059481,13963,27,-0.8642578125,-0.02593994140625,0.48065185546875
1759966734444,477059481,13963,28,-0.882568359375,-0.01837158203125,0.47821044921875
1759966734444,477059481,13963,29,-0.858642578125,0.00579833984375,0.46771240234375
1759966734444,477059481,13963,30,-0.8603515625,-0.01251220703125,0.47454833984375
1759966734444,477059481,13963,31,-0.8779296875,-0.02349853515625,0.48333740234375
1759966737027,477062042,13964,0,-0.904541015625,-0.02423095703125,0.46160888671875
1759966737027,477062042,13964,1,-0.892333984375,-0.03131103515625,0.42987060546875
1759966737027,477062042,13964,2,-0.9169921875,-0.02642822265625,0.40936279296875
1759966737027,477062042,13964,3,-0.861328125,-0.01055908203125,0.42572021484375
1759966737027,477062042,13964,4,-0.898193359375,-0.03082275390625,0.45111083984375
1759966737027,477062042,13964,5,-0.874267578125,-0.02203369140625,0.45159912109375
1759966737027,477062042,13964,6,-0.916259765625,-0.02447509765625,0.47650146484375
1759966737027,477062042,13964,7,-0.8828125,0.00189208984375,0.45574951171875
1759966737027,477062042,13964,8,-0.83642578125,-0.02008056640625,0.46063232421875
1759966737027,477062042,13964,9,-0.852294921875,-0.01885986328125,0.47308349609375
1759966737027,477062042,13964,10,-0.898681640625,-0.02838134765625,0.48016357421875
1759966737027,477062042,13964,11,-0.884033203125,-0.00958251953125,0.47894287109375
1759966737027,477062042,13964,12,-0.84814453125,0.00067138671875,0.46624755859375
1759966737027,477062042,13964,13,-0.876953125,-0.01617431640625,0.46209716796875
1759966737027,477062042,13964,14,-0.893798828125,-0.02593994140625,0.45013427734375
1759966737027,477062042,13964,15,-0.910888671875,-0.03497314453125,0.44964599609375
1759966737027,477062042,13964,16,-0.905517578125,-0.03375244140625,0.42156982421875
1759966737027,477062042,13964,17,-0.86962890625,-0.01275634765625,0.44061279296875
1759966737027,477062042,13964,18,-0.87158203125,-0.02618408203125,0.43963623046875
1759966737027,477062042,13964,19,-0.878173828125,-0.02008056640625,0.44696044921875
1759966737027,477062042,13964,20,-0.90869140625,-0.02056884765625,0.46868896484375
1759966737027,477062042,13964,21,-0.8896484375,-0.02813720703125,0.47845458984375
1759966737027,477062042,13964,22,-0.85302734375,-0.00714111328125,0.45745849609375
1759966737027,477062042,13964,23,-0.8671875,-0.02618408203125,0.47479248046875
1759966737027,477062042,13964,24,-0.891845703125,-0.00958251953125,0.46844482421875
1759966737027,477062042,13964,25,-0.857666015625,-0.01153564453125,0.49432373046875
1759966737027,477062042,13964,26,-0.85888671875,-0.01251220703125,0.48992919921875
1759966737027,477062042,13964,27,-0.8759765625,-0.02301025390625,0.48651123046875
1759966737027,477062042,13964,28,-0.8642578125,-0.00396728515625,0.48944091796875
1759966737027,477062042,13964,29,-0.842529296875,-0.01202392578125,0.49725341796875
1759966737027,477062042,13964,30,-0.855224609375,-0.01373291015625,0.48040771484375
1759966737027,477062042,13964,31,-0.8837890625,-0.03033447265625,0.50140380859375
1759966739609,477064603,13965,0,-0.8857421875,-0.03228759765625,0.46942138671875
1759966739609,477064603,13965,1,-0.892578125,-0.04376220703125,0.43890380859375
1759966739609,477064603,13965,2,-0.89013671875,-0.01275634765625,0.41693115234375
1759966739609,477064603,13965,3,-0.876708984375,-0.03082275390625,0.46551513671875
1759966739609,477064603,13965,4,-0.864501953125,-0.00811767578125,0.45697021484375
1759966739609,477064603,13965,5,-0.86376953125,-0.01446533203125,0.49554443359375
1759966739609,477064603,13965,6,-0.85693359375,-0.00836181640625,0.49481201171875
1759966739609,477064603,13965,7,-0.875732421875,-0.03399658203125,0.50067138671875
1759966739609,477064603,13965,8,-0.862548828125,-0.00469970703125,0.48040771484375
1759966739609,477064603,13965,9,-0.843017578125,-0.00152587890625,0.47161865234375
1759966739609,477064603,13965,10,-0.86572265625,-0.01446533203125,0.49041748046875
1759966739609,477064603,13965,11,-0.885498046875,-0.01593017578125,0.49700927734375
1759966739609,477064603,13965,12,-0.8583984375,0.00433349609375,0.48406982421875
1759966739609,477064603,13965,13,-0.845458984375,-0.01983642578125,0.49163818359375
1759966739609,477064603,13965,14,-0.8818359375,-0.01715087890625,0.49578857421875
1759966739609,477064603,13965,15,-0.872314453125,-0.00054931640625,0.48309326171875
1759966739609,477064603,13965,16,-0.83837890625,0.00628662109375,0.49871826171875
1759966739609,477064603,13965,17,-0.848388671875,-0.01715087890625,0.50115966796875
1759966739609,477064603,13965,18,-0.846923828125,-0.01153564453125,0.49700927734375
1759966739609,477064603,13965,19,-0.86328125,-0.03643798828125,0.49017333984375
1759966739609,477064603,13965,20,-0.872802734375,-0.02838134765625,0.49432373046875
1759966739609,477064603,13965,21,-0.885498046875,-0.01007080078125,0.46282958984375
1759966739609,477064603,13965,22,-0.8466796875,-0.01324462890625,0.48577880859375
1759966739609,477064603,13965,23,-0.85986328125,-0.00592041015625,0.45941162109375
1759966739609,477064603,13965,24,-0.86474609375,-0.02008056640625,0.49139404296875
1759966739609,477064603,13965,25,-0.88916015625,-0.03594970703125,0.52191162109375
1759966739609,477064603,13965,26,-0.851806640625,-0.00860595703125,0.50115966796875
1759966739609,477064603,13965,27,-0.81787109375,0.00311279296875,0.48626708984375
1759966739609,477064603,13965,28,-0.861328125,-0.02056884765625,0.51947021484375
1759966739609,477064603,13965,29,-0.885009765625,-0.00762939453125,0.50335693359375
1759966739609,477064603,13965,30,-0.844482421875,-0.00665283203125,0.50579833984375
1759966739609,477064603,13965,31,-0.83544921875,-0.00250244140625,0.48919677734375
1759966742195,477067165,13966,0,-0.853759765625,-0.01788330078125,0.51702880859375
1759966742195,477067165,13966,1,-0.85888671875,-0.01324462890625,0.50872802734375
1759966742195,477067165,13966,2,-0.8427734375,-0.02374267578125,0.49652099609375
1759966742195,477067165,13966,3,-0.880615234375,-0.02545166015625,0.47088623046875
1759966742195,477067165,13966,4,-0.8720703125,-0.00128173828125,0.46551513671875
1759966742195,477067165,13966,5,-0.84228515625,-0.02056884765625,0.49920654296875
1759966742195,477067165,13966,6,-0.84912109375,-0.01470947265625,0.47552490234375
1759966742195,477067165,13966,7,-0.88525390625,-0.01202392578125,0.50823974609375
1759966742195,477067165,13966,8,-0.865234375,-0.00177001953125,0.51434326171875
1759966742195,477067165,13966,9,-0.826904296875,-0.00885009765625,0.50433349609375
1759966742195,477067165,13966,10,-0.845703125,-0.00909423828125,0.50164794921875
1759966742195,477067165,13966,11,-0.857666015625,-0.00494384765625,0.50897216796875
1759966742195,477067165,13966,12,-0.85888671875,-0.00909423828125,0.52508544921875
1759966742195,477067165,13966,13,-0.8427734375,0.01287841796875,0.50286865234375
1759966742195,477067165,13966,14,-0.821533203125,-6.103515625e-05,0.50921630859375
1759966742195,477067165,13966,15,-0.858642578125,-0.01519775390625,0.50579833984375
1759966742195,477067165,13966,16,-0.855712890625,-0.01226806640625,0.49749755859375
1759966742195,477067165,13966,17,-0.8974609375,-0.03912353515625,0.48968505859375
1759966742195,477067165,13966,18,-0.933837890625,-0.01568603515625,0.43621826171875
1759966742195,477067165,13966,19,-0.843994140625,0.03558349609375,0.42059326171875
1759966742195,477067165,13966,20,-0.837890625,-0.01177978515625,0.49481201171875
1759966742195,477067165,13966,21,-0.850830078125,-0.01983642578125,0.50433349609375
1759966742195,477067165,13966,22,-0.862060546875,-0.00543212890625,0.55560302734375
1759966742195,477067165,13966,23,-0.84033203125,-0.00030517578125,0.51898193359375
1759966742195,477067165,13966,24,-0.8232421875,-0.02423095703125,0.50189208984375
1759966742195,477067165,13966,25,-0.875732421875,-0.01812744140625,0.46282958984375
1759966742195,477067165,13966,26,-0.935302734375,0.00408935546875,0.44232177734375
1759966742195,477067165,13966,27,-0.88037109375,-0.01861572265625,0.46990966796875
1759966742195,477067165,13966,28,-0.803466796875,0.00604248046875,0.49017333984375
1759966742195,477067165,13966,29,-0.834228515625,-0.01324462890625,0.52679443359375
1759966742195,477067165,13966,30,-0.853515625,-0.02130126953125,0.53948974609375
1759966742195,477067165,13966,31,-0.889892578125,-0.04815673828125,0.49310302734375
1759966744579,477069726,13967,0,-0.8876953125,-0.03253173828125,0.45867919921875
1759966744579,477069726,13967,1,-0.850341796875,-0.00518798828125,0.44427490234375
1759966744579,477069726,13967,2,-0.92041015625,-0.01763916015625,0.44134521484375
1759966744579,477069726,13967,3,-0.884521484375,-0.01763916015625,0.44158935546875
1759966744579,477069726,13967,4,-0.8291015625,-0.00640869140625,0.47796630859375
1759966744579,477069726,13967,5,-0.845458984375,-0.02960205078125,0.55218505859375
1759966744579,477069726,13967,6,-0.871826171875,-0.02008056640625,0.52069091796875
1759966744579,477069726,13967,7,-0.8330078125,-0.02520751953125,0.49847412109375
1759966744579,477069726,13967,8,-0.874267578125,-0.02838134765625,0.45574951171875
1759966744579,477069726,13967,9,-0.90087890625,0.00286865234375,0.40960693359375
1759966744579,477069726,13967,10,-0.8935546875,-0.03131103515625,0.47113037109375
1759966744579,477069726,13967,11,-0.85205078125,-0.00372314453125,0.48260498046875
1759966744579,477069726,13967,12,-0.830322265625,-0.01226806640625,0.50628662109375
1759966744579,477069726,13967,13,-0.8623046875,-0.04107666015625,0.54974365234375
1759966744579,477069726,13967,14,-0.87109375,-0.01641845703125,0.50067138671875
1759966744579,477069726,13967,15,-0.8798828125,-0.03887939453125,0.46649169921875
1759966744579,477069726,13967,16,-0.89111328125,-0.01153564453125,0.42840576171875
1759966744579,477069726,13967,17,-0.8955078125,-0.00787353515625,0.43695068359375
1759966744579,477069726,13967,18,-0.827880859375,0.00433349609375,0.49505615234375
1759966744579,477069726,13967,19,-0.864501953125,-0.00787353515625,0.50335693359375
1759966744579,477069726,13967,20,-0.846923828125,-0.00714111328125,0.56268310546875
1759966744579,477069726,13967,21,-0.858154296875,0.01165771484375,0.47967529296875
1759966744579,477069726,13967,22,-0.797119140625,0.03607177734375,0.54168701171875
1759966744579,477069726,13967,23,-0.78857421875,-0.00811767578125,0.52166748046875
1759966744579,477069726,13967,24,-0.833740234375,0.01434326171875,0.55242919921875
1759966744579,477069726,13967,25,-0.862060546875,0.00799560546875,0.54437255859375
1759966744579,477069726,13967,26,-0.845947265625,-0.00421142578125,0.53387451171875
1759966744579,477069726,13967,27,-0.862060546875,-0.03033447265625,0.49261474609375
1759966744579,477069726,13967,28,-0.890380859375,0.02069091796875,0.44110107421875
1759966744579,477069726,13967,29,-0.841552734375,-0.00128173828125,0.49920654296875
1759966744579,477069726,13967,30,-0.815185546875,-0.01300048828125,0.49896240234375
1759966744579,477069726,13967,31,-0.87548828125,-0.00543212890625,0.51898193359375
1759966747165,477072287,13968,0,-0.88525390625,-0.00421142578125,0.52020263671875
1759966747165,477072287,13968,1,-0.828857421875,0.00335693359375,0.51629638671875
1759966747165,477072287,13968,2,-0.818115234375,0.00286865234375,0.50018310546875
1759966747165,477072287,13968,3,-0.8544921875,-0.00738525390625,0.53924560546875
1759966747165,477072287,13968,4,-0.842041015625,0.00970458984375,0.53558349609375
1759966747165,477072287,13968,5,-0.796875,0.00848388671875,0.53314208984375
1759966747165,477072287,13968,6,-0.822265625,0.00115966796875,0.53338623046875
1759966747165,477072287,13968,7,-0.85986328125,-0.02349853515625,0.54022216796875
1759966747165,477072287,13968,8,-0.88916015625,-0.00079345703125,0.50286865234375
1759966747165,477072287,13968,9,-0.8896484375,0.01214599609375,0.45941162109375
1759966747165,477072287,13968,10,-0.82373046875,0.02288818359375,0.47430419921875
1759966747165,477072287,13968,11,-0.838623046875,-0.02105712890625,0.53143310546875
1759966747165,477072287,13968,12,-0.83837890625,-0.00738525390625,0.54730224609375
1759966747165,477072287,13968,13,-0.82861328125,0.02801513671875,0.52410888671875
1759966747165,477072287,13968,14,-0.860107421875,0.00115966796875,0.50823974609375
1759966747165,477072287,13968,15,-0.83349609375,0.01361083984375,0.48846435546875
1759966747165,477072287,13968,16,-0.81982421875,0.00579833984375,0.53436279296875
1759966747165,477072287,13968,17,-0.831787109375,-0.00299072265625,0.55804443359375
1759966747165,477072287,13968,18,-0.81396484375,0.04632568359375,0.52801513671875
1759966747165,477072287,13968,19,-0.87646484375,-0.03887939453125,0.54339599609375
1759966747165,477072287,13968,20,-0.87646484375,0.00286865234375,0.45306396484375
1759966747165,477072287,13968,21,-0.875732421875,0.03778076171875,0.44769287109375
1759966747165,477072287,13968,22,-0.854736328125,-0.02008056640625,0.50848388671875
1759966747165,477072287,13968,23,-0.825927734375,0.02044677734375,0.50408935546875
1759966747165,477072287,13968,24,-0.8310546875,-0.00079345703125,0.53680419921875
1759966747165,477072287,13968,25,-0.859130859375,-0.00616455078125,0.54022216796875
1759966747165,477072287,13968,26,-0.81982421875,0.03192138671875,0.52508544921875
1759966747165,477072287,13968,27,-0.79541015625,0.00360107421875,0.53436279296875
1759966747165,477072287,13968,28,-0.80810546875,0.02386474609375,0.53509521484375
1759966747165,477072287,13968,29,-0.831787109375,0.00921630859375,0.55438232421875
1759966747165,477072287,13968,30,-0.8857421875,-0.02227783203125,0.51287841796875
1759966747165,477072287,13968,31,-0.83984375,-0.02740478515625,0.52313232421875
1759966749747,477074848,13969,0,-0.88330078125,-0.00811767578125,0.46356201171875
1759966749747,477074848,13969,1,-0.9130859375,0.02166748046875,0.42059326171875
1759966749747,477074848,13969,2,-0.834716796875,0.01263427734375,0.49432373046875
1759966749747,477074848,13969,3,-0.81689453125,-0.01568603515625,0.53021240234375
1759966749747,477074848,13969,4,-0.88525390625,-0.01593017578125,0.51702880859375
1759966749747,477074848,13969,5,-0.841552734375,0.04730224609375,0.50067138671875
1759966749747,477074848,13969,6,-0.807861328125,-0.00177001953125,0.53021240234375
1759966749747,477074848,13969,7,-0.805419921875,0.00335693359375,0.54217529296875
1759966749747,477074848,13969,8,-0.842529296875,0.01239013671875,0.53558349609375
1759966749747,477074848,13969,9,-0.882080078125,0.00848388671875,0.51629638671875
1759966749747,477074848,13969,10,-0.84326171875,-0.02740478515625,0.51116943359375
1759966749747,477074848,13969,11,-0.846435546875,-0.01177978515625,0.48699951171875
1759966749747,477074848,13969,12,-0.900634765625,0.01141357421875,0.44647216796875
1759966749747,477074848,13969,13,-0.8603515625,-0.00054931640625,0.46575927734375
1759966749747,477074848,13969,14,-0.8447265625,-0.00250244140625,0.50653076171875
1759966749747,477074848,13969,15,-0.83740234375,-0.01422119140625,0.51434326171875
1759966749747,477074848,13969,16,-0.859375,0.01336669921875,0.51678466796875
1759966749747,477074848,13969,17,-0.829345703125,0.00164794921875,0.54461669921875
1759966749747,477074848,13969,18,-0.823486328125,0.01214599609375,0.52581787109375
1759966749747,477074848,13969,19,-0.818359375,0.01409912109375,0.54315185546875
1759966749747,477074848,13969,20,-0.842529296875,0.01287841796875,0.52752685546875
1759966749747,477074848,13969,21,-0.875244140625,-0.01470947265625,0.50946044921875
1759966749747,477074848,13969,22,-0.890380859375,0.01580810546875,0.44671630859375
1759966749747,477074848,13969,23,-0.8828125,0.03070068359375,0.42987060546875
1759966749747,477074848,13969,24,-0.850830078125,0.00555419921875,0.51019287109375
1759966749747,477074848,13969,25,-0.806640625,-0.00885009765625,0.52825927734375
1759966749747,477074848,13969,26,-0.843017578125,-0.01226806640625,0.57562255859375
1759966749747,477074848,13969,27,-0.826171875,0.00970458984375,0.52532958984375
1759966749747,477074848,13969,28,-0.850341796875,-0.01690673828125,0.52117919921875
1759966749747,477074848,13969,29,-0.87060546875,0.00994873046875,0.43988037109375
1759966749747,477074848,13969,30,-0.888916015625,0.04315185546875,0.44232177734375
1759966749747,477074848,13969,31,-0.85498046875,-0.02130126953125,0.49212646484375
1759966752328,477077409,13970,0,-0.843017578125,0.00921630859375,0.50628662109375
1759966752328,477077409,13970,1,-0.821533203125,-0.00885009765625,0.54827880859375
1759966752328,477077409,13970,2,-0.856201171875,0.00701904296875,0.53265380859375
1759966752328,477077409,13970,3,-0.8291015625,0.00238037109375,0.53509521484375
1759966752328,477077409,13970,4,-0.81884765625,0.01800537109375,0.50970458984375
1759966752328,477077409,13970,5,-0.8505859375,0.01898193359375,0.50994873046875
1759966752328,477077409,13970,6,-0.855224609375,0.00604248046875,0.54046630859375
1759966752328,477077409,13970,7,-0.81640625,0.01263427734375,0.53240966796875
1759966752328,477077409,13970,8,-0.816650390625,-0.00054931640625,0.54046630859375
1759966752328,477077409,13970,9,-0.840576171875,0.01507568359375,0.52801513671875
1759966752328,477077409,13970,10,-0.851318359375,-0.00640869140625,0.53729248046875
1759966752328,477077409,13970,11,-0.876953125,0.01043701171875,0.48577880859375
1759966752328,477077409,13970,12,-0.8466796875,0.04388427734375,0.45330810546875
1759966752328,477077409,13970,13,-0.83984375,-0.01837158203125,0.50531005859375
1759966752328,477077409,13970,14,-0.8330078125,-0.00616455078125,0.51385498046875
1759966752328,477077409,13970,15,-0.87939453125,0.00921630859375,0.52142333984375
1759966752328,477077409,13970,16,-0.845947265625,0.02020263671875,0.52703857421875
1759966752328,477077409,13970,17,-0.830078125,0.01165771484375,0.49993896484375
1759966752328,477077409,13970,18,-0.829345703125,0.01165771484375,0.52825927734375
1759966752328,477077409,13970,19,-0.838623046875,0.02728271484375,0.53826904296875
1759966752328,477077409,13970,20,-0.833251953125,0.00457763671875,0.53875732421875
1759966752328,477077409,13970,21,-0.83935546875,-0.00201416015625,0.51727294921875
1759966752328,477077409,13970,22,-0.857177734375,-0.01007080078125,0.51654052734375
1759966752328,477077409,13970,23,-0.86669921875,-0.00177001953125,0.48455810546875
1759966752328,477077409,13970,24,-0.873046875,-0.00811767578125,0.48724365234375
1759966752328,477077409,13970,25,-0.91650390625,0.01019287109375,0.45086669921875
1759966752328,477077409,13970,26,-0.81591796875,0.02508544921875,0.47430419921875
1759966752328,477077409,13970,27,-0.827880859375,-0.03057861328125,0.50164794921875
1759966752328,477077409,13970,28,-0.86474609375,-0.00543212890625,0.53753662109375
1759966752328,477077409,13970,29,-0.871337890625,0.00018310546875,0.53070068359375
1759966752328,477077409,13970,30,-0.808837890625,0.01654052734375,0.51409912109375
1759966752328,477077409,13970,31,-0.802978515625,-0.00958251953125,0.52191162109375
1759966754915,477079970,13971,0,-0.85791015625,0.00823974609375,0.52484130859375
1759966754915,477079970,13971,1,-0.84423828125,0.01092529296875,0.54705810546875
1759966754915,477079970,13971,2,-0.808349609375,0.00970458984375,0.53192138671875
1759966754915,477079970,13971,3,-0.81787109375,0.00213623046875,0.53167724609375
1759966754915,477079970,13971,4,-0.84326171875,-0.00811767578125,0.52215576171875
1759966754915,477079970,13971,5,-0.8623046875,-0.01397705078125,0.56219482421875
1759966754915,477079970,13971,6,-0.86328125,0.00384521484375,0.49114990234375
1759966754915,477079970,13971,7,-0.86328125,0.01898193359375,0.46722412109375
1759966754915,477079970,13971,8,-0.83251953125,0.01116943359375,0.49481201171875
1759966754915,477079970,13971,9,-0.81298828125,-0.01837158203125,0.51873779296875
1759966754915,477079970,13971,10,-0.857421875,0.00042724609375,0.52606201171875
1759966754915,477079970,13971,11,-0.850830078125,0.00799560546875,0.53900146484375
1759966754915,477079970,13971,12,-0.82958984375,0.00799560546875,0.52703857421875
1759966754915,477079970,13971,13,-0.840576171875,-0.01080322265625,0.52069091796875
1759966754915,477079970,13971,14,-0.7958984375,0.02532958984375,0.54534912109375
1759966754915,477079970,13971,15,-0.8203125,0.01092529296875,0.56536865234375
1759966754915,477079970,13971,16,-0.829345703125,0.00262451171875,0.54827880859375
1759966754915,477079970,13971,17,-0.823486328125,0.00677490234375,0.52581787109375
1759966754915,477079970,13971,18,-0.81787109375,-6.103515625e-05,0.53338623046875
1759966754915,477079970,13971,19,-0.83642578125,-0.00933837890625,0.55120849609375
1759966754915,477079970,13971,20,-0.873046875,-0.00177001953125,0.49969482421875
1759966754915,477079970,13971,21,-0.851318359375,0.00042724609375,0.49871826171875
1759966754915,477079970,13971,22,-0.85400390625,-0.02398681640625,0.51361083984375
1759966754915,477079970,13971,23,-0.82861328125,0.00164794921875,0.51385498046875
1759966754915,477079970,13971,24,-0.801513671875,0.01287841796875,0.51776123046875
1759966754915,477079970,13971,25,-0.8671875,-0.00274658203125,0.54095458984375
1759966754915,477079970,13971,26,-0.831298828125,0.00360107421875,0.53753662109375
1759966754915,477079970,13971,27,-0.81689453125,0.00408935546875,0.53509521484375
1759966754915,477079970,13971,28,-0.83056640625,0.00286865234375,0.53729248046875
1759966754915,477079970,13971,29,-0.840087890625,0.00799560546875,0.53265380859375
1759966754915,477079970,13971,30,-0.83203125,0.00506591796875,0.53485107421875
1759966754915,477079970,13971,31,-0.81591796875,0.00653076171875,0.52825927734375
1759966757503,477082531,13972,0,-0.815673828125,0.00115966796875,0.54241943359375
1759966757503,477082531,13972,1,-0.844970703125,-0.00469970703125,0.53924560546875
1759966757503,477082531,13972,2,-0.839599609375,-0.01202392578125,0.55657958984375
1759966757503,477082531,13972,3,-0.84521484375,0.00213623046875,0.51531982421875
1759966757503,477082531,13972,4,-0.861083984375,0.01190185546875,0.50213623046875
1759966757503,477082531,13972,5,-0.84130859375,0.02362060546875,0.48431396484375
1759966757503,477082531,13972,6,-0.818115234375,-0.02105712890625,0.53021240234375
1759966757503,477082531,13972,7,-0.8271484375,-0.00103759765625,0.50775146484375
1759966757503,477082531,13972,8,-0.869873046875,0.00775146484375,0.52093505859375
1759966757503,477082531,13972,9,-0.8564453125,0.01385498046875,0.51995849609375
1759966757503,477082531,13972,10,-0.818359375,0.00726318359375,0.51068115234375
1759966757503,477082531,13972,11,-0.824462890625,0.00360107421875,0.53558349609375
1759966757503,477082531,13972,12,-0.843994140625,0.01385498046875,0.55023193359375
1759966757503,477082531,13972,13,-0.839599609375,0.00238037109375,0.52679443359375
1759966757503,477082531,13972,14,-0.833740234375,0.00946044921875,0.54266357421875
1759966757503,477082531,13972,15,-0.847900390625,0.00067138671875,0.55780029296875
1759966757503,477082531,13972,16,-0.83935546875,0.04241943359375,0.46429443359375
1759966757503,477082531,13972,17,-0.8076171875,0.02752685546875,0.48333740234375
1759966757503,477082531,13972,18,-0.8408203125,-0.04742431640625,0.55072021484375
1759966757503,477082531,13972,19,-0.86962890625,-0.00054931640625,0.51629638671875
1759966757503,477082531,13972,20,-0.85107421875,0.01239013671875,0.54119873046875
1759966757503,477082531,13972,21,-0.824951171875,0.02215576171875,0.51605224609375
1759966757503,477082531,13972,22,-0.807373046875,0.00140380859375,0.52459716796875
1759966757503,477082531,13972,23,-0.833984375,-0.00323486328125,0.54730224609375
1759966757503,477082531,13972,24,-0.833251953125,0.01458740234375,0.54583740234375
1759966757503,477082531,13972,25,-0.82763671875,-0.00640869140625,0.54827880859375
1759966757503,477082531,13972,26,-0.8330078125,0.02215576171875,0.51898193359375
1759966757503,477082531,13972,27,-0.84033203125,-0.00177001953125,0.55340576171875
1759966757503,477082531,13972,28,-0.849853515625,0.01507568359375,0.50726318359375
1759966757503,477082531,13972,29,-0.835205078125,0.01922607421875,0.48699951171875
1759966757503,477082531,13972,30,-0.8369140625,-0.01373291015625,0.50457763671875
1759966757503,477082531,13972,31,-0.847412109375,-0.01007080078125,0.49212646484375
1759966760082,477085092,13973,0,-0.8623046875,0.00164794921875,0.51605224609375
1759966760082,477085092,13973,1,-0.862060546875,0.00384521484375,0.51336669921875
1759966760082,477085092,13973,2,-0.8330078125,-0.00079345703125,0.51751708984375
1759966760082,477085092,13973,3,-0.864501953125,-0.01690673828125,0.50286865234375
1759966760082,477085092,13973,4,-0.8173828125,0.05609130859375,0.54827880859375
1759966760082,477085092,13973,5,-0.80029296875,-0.01055908203125,0.53265380859375
1759966760082,477085092,13973,6,-0.843017578125,-0.00885009765625,0.55657958984375
1759966760082,477085092,13973,7,-0.841552734375,-0.00274658203125,0.53411865234375
1759966760082,477085092,13973,8,-0.85009765625,-0.00323486328125,0.53167724609375
1759966760082,477085092,13973,9,-0.827880859375,0.01702880859375,0.50067138671875
1759966760082,477085092,13973,10,-0.81884765625,0.00384521484375,0.49505615234375
1759966760082,477085092,13973,11,-0.847412109375,-0.03009033203125,0.52142333984375
1759966760082,477085092,13973,12,-0.840576171875,-0.01812744140625,0.50994873046875
1759966760082,477085092,13973,13,-0.8623046875,-0.00079345703125,0.52532958984375
1759966760082,477085092,13973,14,-0.822021484375,0.01116943359375,0.56219482421875
1759966760082,477085092,13973,15,-0.80419921875,0.00286865234375,0.53070068359375
1759966760082,477085092,13973,16,-0.81640625,-0.00543212890625,0.56805419921875
1759966760082,477085092,13973,17,-0.824951171875,0.00872802734375,0.53753662109375
1759966760082,477085092,13973,18,-0.829833984375,-0.00396728515625,0.55755615234375
1759966760082,477085092,13973,19,-0.837646484375,0.00531005859375,0.52996826171875
1759966760082,477085092,13973,20,-0.833740234375,-0.00689697265625,0.54559326171875
1759966760082,477085092,13973,21,-0.8388671875,-0.00030517578125,0.51727294921875
1759966760082,477085092,13973,22,-0.835693359375,0.02020263671875,0.49139404296875
1759966760082,477085092,13973,23,-0.82568359375,-0.01666259765625,0.51434326171875
1759966760082,477085092,13973,24,-0.853759765625,-0.03594970703125,0.51702880859375
1759966760082,477085092,13973,25,-0.84521484375,0.00531005859375,0.50311279296875
1759966760082,477085092,13973,26,-0.8603515625,-0.01031494140625,0.55389404296875
1759966760082,477085092,13973,27,-0.822021484375,0.00579833984375,0.51654052734375
1759966760082,477085092,13973,28,-0.8193359375,-0.00592041015625,0.53192138671875
1759966760082,477085092,13973,29,-0.829345703125,-0.00640869140625,0.54998779296875
1759966760082,477085092,13973,30,-0.82373046875,-0.00103759765625,0.52996826171875
1759966760082,477085092,13973,31,-0.837646484375,-0.01129150390625,0.55072021484375
1759966762664,477087653,13974,0,-0.832275390625,0.00262451171875,0.53533935546875
1759966762664,477087653,13974,1,-0.83349609375,-0.01104736328125,0.54876708984375
1759966762664,477087653,13974,2,-0.822509765625,-0.00592041015625,0.52484130859375
1759966762664,477087653,13974,3,-0.875,-0.00909423828125,0.49310302734375
1759966762664,477087653,13974,4,-0.863037109375,0.01214599609375,0.48406982421875
1759966762664,477087653,13974,5,-0.805419921875,-0.00347900390625,0.51800537109375
1759966762664,477087653,13974,6,-0.8251953125,-0.01300048828125,0.52166748046875
1759966762664,477087653,13974,7,-0.8525390625,-0.02105712890625,0.59393310546875
1759966762664,477087653,13974,8,-0.840087890625,0.01776123046875,0.53997802734375
1759966762664,477087653,13974,9,-0.814208984375,-0.01763916015625,0.53631591796875
1759966762664,477087653,13974,10,-0.821044921875,0.00433349609375,0.48529052734375
1759966762664,477087653,13974,11,-0.82958984375,0.02508544921875,0.47332763671875
