receivedPhoneTimestamp,respeckTimestamp,packetSeqNum,sampleSeqNum,accelX,accelY,accelZ
1688533954373,1052585717,37389,21,0.906982421875,-0.03302001953125,0.31683349609375
1688533954373,1052585717,37389,22,0.881103515625,-0.02569580078125,0.30633544921875
1688533954373,1052585717,37389,23,0.8876953125,-0.01763916015625,0.29949951171875
1688533954373,1052585717,37389,24,0.880615234375,0.00286865234375,0.26995849609375
1688533954373,1052585717,37389,25,0.886962890625,0.00653076171875,0.25506591796875
1688533954373,1052585717,37389,26,0.8779296875,0.00311279296875,0.25946044921875
1688533954373,1052585717,37389,27,0.89990234375,-0.02227783203125,0.31610107421875
1688533954373,1052585717,37389,28,0.8974609375,-0.02276611328125,0.27215576171875
1688533954373,1052585717,37389,29,0.895751953125,-0.01715087890625,0.29534912109375
1688533954373,1052585717,37389,30,0.903076171875,-0.03814697265625,0.28802490234375
1688533954373,1052585717,37389,31,0.895263671875,-0.02227783203125,0.28021240234375
1688533956908,1052588254,37390,0,0.892822265625,-0.02056884765625,0.28363037109375
1688533956908,1052588254,37390,1,0.90966796875,-0.04351806640625,0.32366943359375
1688533956908,1052588254,37390,2,0.890380859375,-0.00885009765625,0.27581787109375
1688533956908,1052588254,37390,3,0.887451171875,-0.01910400390625,0.28680419921875
1688533956908,1052588254,37390,4,0.8798828125,-0.01080322265625,0.29632568359375
1688533956908,1052588254,37390,5,0.89208984375,0.00067138671875,0.28460693359375
1688533956908,1052588254,37390,6,0.872802734375,0.01239013671875,0.22357177734375
1688533956908,1052588254,37390,7,0.87841796875,0.00140380859375,0.32000732421875
1688533956908,1052588254,37390,8,0.921630859375,-0.05645751953125,0.27752685546875
1688533956908,1052588254,37390,9,0.8759765625,-0.01251220703125,0.30120849609375
1688533956908,1052588254,37390,10,0.90185546875,-0.04205322265625,0.30853271484375
1688533956908,1052588254,37390,11,0.89111328125,-0.03887939453125,0.29046630859375
1688533956908,1052588254,37390,12,0.8876953125,-0.02960205078125,0.28729248046875
1688533956908,1052588254,37390,13,0.89013671875,-0.03326416015625,0.29803466796875
1688533956908,1052588254,37390,14,0.884765625,-0.03570556640625,0.31512451171875
1688533956908,1052588254,37390,15,0.890869140625,-0.05645751953125,0.32000732421875
1688533956908,1052588254,37390,16,0.894775390625,-0.01300048828125,0.29412841796875
1688533956908,1052588254,37390,17,0.878662109375,-0.00543212890625,0.30438232421875
1688533956908,1052588254,37390,18,0.87939453125,-0.02838134765625,0.22381591796875
1688533956908,1052588254,37390,19,0.888427734375,-0.01397705078125,0.25262451171875
1688533956908,1052588254,37390,20,0.932373046875,0.02069091796875,0.23040771484375
1688533956908,1052588254,37390,21,0.929443359375,-0.03033447265625,0.21746826171875
1688533956908,1052588254,37390,22,0.918212890625,0.01141357421875,0.20819091796875
1688533956908,1052588254,37390,23,0.91015625,-0.00323486328125,0.18035888671875
1688533956908,1052588254,37390,24,0.92333984375,-0.01690673828125,0.22967529296875
1688533956908,1052588254,37390,25,0.907470703125,0.00653076171875,0.21722412109375
1688533956908,1052588254,37390,26,0.90869140625,-0.00201416015625,0.22991943359375
1688533956908,1052588254,37390,27,0.89404296875,-0.02130126953125,0.28607177734375
1688533956908,1052588254,37390,28,0.910888671875,-0.04156494140625,0.29705810546875
1688533956908,1052588254,37390,29,0.885498046875,-0.01251220703125,0.27630615234375
1688533956908,1052588254,37390,30,0.884033203125,-0.01666259765625,0.26239013671875
1688533956908,1052588254,37390,31,0.902099609375,-0.02813720703125,0.16473388671875
1688533959443,1052590791,37391,0,0.895751953125,-0.00323486328125,0.26800537109375
1688533959443,1052590791,37391,1,0.917236328125,-0.01129150390625,0.21453857421875
1688533959443,1052590791,37391,2,0.927490234375,-0.02056884765625,0.22991943359375
1688533959443,1052590791,37391,3,0.924560546875,-0.03424072265625,0.19964599609375
1688533959443,1052590791,37391,4,0.925537109375,-0.02545166015625,0.19793701171875
1688533959443,1052590791,37391,5,0.919677734375,-0.01275634765625,0.20526123046875
1688533959443,1052590791,37391,6,0.90478515625,-0.01495361328125,0.19549560546875
1688533959443,1052590791,37391,7,0.907470703125,-0.01934814453125,0.24139404296875
1688533959443,1052590791,37391,8,0.914306640625,-0.02740478515625,0.25531005859375
1688533959443,1052590791,37391,9,0.93310546875,-0.04718017578125,0.28558349609375
1688533959443,1052590791,37391,10,0.88037109375,-0.00128173828125,0.22625732421875
1688533959443,1052590791,37391,11,0.888671875,-0.02325439453125,0.25506591796875
1688533959443,1052590791,37391,12,0.909423828125,-0.02984619140625,0.17620849609375
1688533959443,1052590791,37391,13,0.900146484375,0.00775146484375,0.28607177734375
1688533959443,1052590791,37391,14,0.91552734375,-0.01080322265625,0.19476318359375
1688533959443,1052590791,37391,15,0.915771484375,-0.01397705078125,0.23480224609375
1688533959443,1052590791,37391,16,0.920654296875,-0.02520751953125,0.22088623046875
1688533959443,1052590791,37391,17,0.917724609375,-0.02056884765625,0.22430419921875
1688533959443,1052590791,37391,18,0.90673828125,-0.02935791015625,0.26971435546875
1688533959443,1052590791,37391,19,0.9033203125,-0.04986572265625,0.29559326171875
1688533959443,1052590791,37391,20,0.888671875,-0.01446533203125,0.27069091796875
1688533959443,1052590791,37391,21,0.882568359375,0.01507568359375,0.27044677734375
1688533959443,1052590791,37391,22,0.890380859375,-0.01177978515625,0.20599365234375
1688533959443,1052590791,37391,23,0.888427734375,0.00213623046875,0.26556396484375
1688533959443,1052590791,37391,24,0.9296875,-0.01275634765625,0.24041748046875
1688533959443,1052590791,37391,25,0.9091796875,-0.00738525390625,0.23895263671875
1688533959443,1052590791,37391,26,0.923095703125,-0.02813720703125,0.21478271484375
1688533959443,1052590791,37391,27,0.921875,-0.04351806640625,0.19964599609375
1688533959443,1052590791,37391,28,0.90380859375,-0.03546142578125,0.26092529296875
1688533959443,1052590791,37391,29,0.911865234375,-0.06939697265625,0.30584716796875
1688533959443,1052590791,37391,30,0.903076171875,-0.01959228515625,0.21649169921875
1688533959443,1052590791,37391,31,0.888916015625,-0.00860595703125,0.22991943359375
1688533961978,1052593328,37392,0,0.8994140625,-0.04376220703125,0.10980224609375
1688533961978,1052593328,37392,1,0.912353515625,0.01361083984375,0.29315185546875
1688533961978,1052593328,37392,2,0.968017578125,-0.05059814453125,0.15130615234375
1688533961978,1052593328,37392,3,0.909912109375,-0.01007080078125,0.15325927734375
1688533961978,1052593328,37392,4,0.938232421875,-0.02349853515625,0.19940185546875
1688533961978,1052593328,37392,5,0.919677734375,-0.06182861328125,0.19354248046875
1688533961978,1052593328,37392,6,0.91357421875,-0.01617431640625,0.17987060546875
1688533961978,1052593328,37392,7,0.91748046875,-0.01129150390625,0.23577880859375
1688533961978,1052593328,37392,8,0.90625,-0.04132080078125,0.29168701171875
1688533961978,1052593328,37392,9,0.908447265625,-0.01763916015625,0.22088623046875
1688533961978,1052593328,37392,10,0.880615234375,-0.02276611328125,0.20355224609375
1688533961978,1052593328,37392,11,0.954345703125,-0.02618408203125,0.16839599609375
1688533961978,1052593328,37392,12,0.89013671875,0.02630615234375,0.23797607421875
1688533961978,1052593328,37392,13,0.94189453125,-0.00469970703125,0.20892333984375
1688533961978,1052593328,37392,14,0.917236328125,-0.00201416015625,0.12933349609375
1688533961978,1052593328,37392,15,0.916259765625,-0.00201416015625,0.22650146484375
1688533961978,1052593328,37392,16,0.922607421875,-0.00323486328125,0.21795654296875
1688533961978,1052593328,37392,17,0.904296875,0.00946044921875,0.22479248046875
1688533961978,1052593328,37392,18,0.897705078125,0.00482177734375,0.25701904296875
1688533961978,1052593328,37392,19,0.907958984375,-0.02252197265625,0.29388427734375
1688533961978,1052593328,37392,20,0.8916015625,-0.00567626953125,0.27191162109375
1688533961978,1052593328,37392,21,0.8955078125,-0.01104736328125,0.26654052734375
1688533961978,1052593328,37392,22,0.8759765625,0.00531005859375,0.11932373046875
1688533961978,1052593328,37392,23,0.94384765625,-0.00714111328125,0.39178466796875
1688533961978,1052593328,37392,24,0.92041015625,-0.00860595703125,0.10833740234375
1688533961978,1052593328,37392,25,0.925537109375,0.00799560546875,0.14666748046875
1688533961978,1052593328,37392,26,0.931396484375,-0.02984619140625,0.21014404296875
1688533961978,1052593328,37392,27,0.9248046875,0.01654052734375,0.21527099609375
1688533961978,1052593328,37392,28,0.900390625,0.02362060546875,0.20574951171875
1688533961978,1052593328,37392,29,0.931640625,-0.01104736328125,0.28143310546875
1688533961978,1052593328,37392,30,0.898681640625,-0.00201416015625,0.25506591796875
1688533961978,1052593328,37392,31,0.893798828125,-6.103515625e-05,0.26116943359375
1688533964513,1052595865,37393,0,0.881591796875,0.00799560546875,0.24432373046875
1688533964513,1052595865,37393,1,0.8974609375,-0.00054931640625,0.20672607421875
1688533964513,1052595865,37393,2,0.894287109375,-0.01129150390625,0.34539794921875
1688533964513,1052595865,37393,3,0.90380859375,-0.00616455078125,0.20941162109375
1688533964513,1052595865,37393,4,0.896484375,-0.02178955078125,0.28631591796875
1688533964513,1052595865,37393,5,0.901611328125,-0.03155517578125,0.28265380859375
1688533964513,1052595865,37393,6,0.90283203125,-0.02691650390625,0.26873779296875
1688533964513,1052595865,37393,7,0.886474609375,-0.01519775390625,0.27459716796875
1688533964513,1052595865,37393,8,0.910888671875,-0.04522705078125,0.32513427734375
1688533964513,1052595865,37393,9,0.88818359375,-0.01593017578125,0.27606201171875
1688533964513,1052595865,37393,10,0.87646484375,-0.00323486328125,0.27093505859375
1688533964513,1052595865,37393,11,0.89111328125,-0.01763916015625,0.20037841796875
1688533964513,1052595865,37393,12,0.90576171875,-0.00811767578125,0.27093505859375
1688533964513,1052595865,37393,13,0.92041015625,-0.01690673828125,0.18035888671875
1688533964513,1052595865,37393,14,0.927734375,0.00408935546875,0.21820068359375
1688533964513,1052595865,37393,15,0.943603515625,-0.00030517578125,0.16986083984375
1688533964513,1052595865,37393,16,0.93359375,-0.00640869140625,0.13055419921875
1688533964513,1052595865,37393,17,0.934326171875,0.01361083984375,0.11395263671875
1688533964513,1052595865,37393,18,0.93798828125,0.01336669921875,0.19354248046875
1688533964513,1052595865,37393,19,0.929443359375,0.00823974609375,0.07635498046875
1688533964513,1052595865,37393,20,0.917236328125,0.05120849609375,0.15960693359375
1688533964513,1052595865,37393,21,0.92138671875,0.02825927734375,0.14105224609375
1688533964513,1052595865,37393,22,0.935791015625,0.01019287109375,0.15887451171875
1688533964513,1052595865,37393,23,0.93115234375,0.01312255859375,0.12884521484375
1688533964513,1052595865,37393,24,0.927978515625,0.02630615234375,0.16156005859375
1688533964513,1052595865,37393,25,0.950439453125,0.00579833984375,0.21820068359375
1688533964513,1052595865,37393,26,0.880859375,0.03997802734375,0.18988037109375
1688533964513,1052595865,37393,27,0.91845703125,-0.00811767578125,0.21942138671875
1688533964513,1052595865,37393,28,0.9296875,-0.00323486328125,0.20819091796875
1688533964513,1052595865,37393,29,0.90478515625,-0.02740478515625,0.13055419921875
1688533964513,1052595865,37393,30,0.90087890625,0.06219482421875,0.22698974609375
1688533964513,1052595865,37393,31,0.94921875,-0.00177001953125,0.22210693359375
1688533967048,1052598402,37394,0,0.916748046875,0.03143310546875,0.13372802734375
1688533967048,1052598402,37394,1,0.93212890625,0.01947021484375,0.16766357421875
1688533967048,1052598402,37394,2,0.9306640625,0.00189208984375,0.18035888671875
1688533967048,1052598402,37394,3,0.914794921875,0.01654052734375,0.16156005859375
1688533967048,1052598402,37394,4,0.924072265625,0.00042724609375,0.16375732421875
1688533967048,1052598402,37394,5,0.93017578125,0.01263427734375,0.18646240234375
1688533967048,1052598402,37394,6,0.92724609375,0.00799560546875,0.22332763671875
1688533967048,1052598402,37394,7,0.881591796875,0.01507568359375,0.21209716796875
1688533967048,1052598402,37394,8,0.92431640625,-0.00347900390625,0.26116943359375
1688533967048,1052598402,37394,9,0.917236328125,0.00262451171875,0.23455810546875
1688533967048,1052598402,37394,10,0.887451171875,0.01434326171875,0.23773193359375
1688533967048,1052598402,37394,11,0.9013671875,0.00018310546875,0.29217529296875
1688533967048,1052598402,37394,12,0.89208984375,0.01409912109375,0.25775146484375
1688533967048,1052598402,37394,13,0.888671875,0.00897216796875,0.23919677734375
1688533967048,1052598402,37394,14,0.88525390625,-0.00592041015625,0.29876708984375
1688533967048,1052598402,37394,15,0.917724609375,-0.03009033203125,0.23333740234375
1688533967048,1052598402,37394,16,0.915771484375,-0.00885009765625,0.20452880859375
1688533967048,1052598402,37394,17,0.9248046875,0.03509521484375,0.21844482421875
1688533967048,1052598402,37394,18,0.9228515625,0.00506591796875,0.18206787109375
1688533967048,1052598402,37394,19,0.92529296875,0.01947021484375,0.17156982421875
1688533967048,1052598402,37394,20,0.93505859375,0.02093505859375,0.15325927734375
1688533967048,1052598402,37394,21,0.9267578125,0.01361083984375,0.14251708984375
1688533967048,1052598402,37394,22,0.929931640625,0.01971435546875,0.20159912109375
1688533967048,1052598402,37394,23,0.904296875,0.02288818359375,0.21502685546875
1688533967048,1052598402,37394,24,0.90771484375,0.01849365234375,0.23822021484375
1688533967048,1052598402,37394,25,0.909912109375,-0.01690673828125,0.28216552734375
1688533967048,1052598402,37394,26,0.890625,0.00775146484375,0.24188232421875
1688533967048,1052598402,37394,27,0.92529296875,-0.03936767578125,0.11785888671875
1688533967048,1052598402,37394,28,0.891357421875,0.06512451171875,0.24432373046875
1688533967048,1052598402,37394,29,0.945556640625,0.01702880859375,0.21405029296875
1688533967048,1052598402,37394,30,0.904541015625,0.03387451171875,0.18597412109375
1688533967048,1052598402,37394,31,0.931884765625,0.00726318359375,0.18548583984375
1688533969583,1052600939,37395,0,0.9140625,0.01873779296875,0.21038818359375
1688533969583,1052600939,37395,1,0.915771484375,0.01507568359375,0.17742919921875
1688533969583,1052600939,37395,2,0.923095703125,0.02288818359375,0.22552490234375
1688533969583,1052600939,37395,3,0.908935546875,0.02679443359375,0.25677490234375
1688533969583,1052600939,37395,4,0.89453125,0.03582763671875,0.20892333984375
1688533969583,1052600939,37395,5,0.915283203125,-0.00811767578125,0.26409912109375
1688533969583,1052600939,37395,6,0.890380859375,0.00531005859375,0.25677490234375
1688533969583,1052600939,37395,7,0.884521484375,0.02459716796875,0.23333740234375
1688533969583,1052600939,37395,8,0.90380859375,-0.00860595703125,0.21331787109375
1688533969583,1052600939,37395,9,0.92919921875,-0.01934814453125,0.24993896484375
1688533969583,1052600939,37395,10,0.924560546875,-0.01666259765625,0.21112060546875
1688533969583,1052600939,37395,11,0.93212890625,-0.03033447265625,0.15252685546875
1688533969583,1052600939,37395,12,0.904296875,0.03558349609375,0.20648193359375
1688533969583,1052600939,37395,13,0.935302734375,-0.01129150390625,0.19207763671875
1688533969583,1052600939,37395,14,0.920166015625,0.01531982421875,0.16741943359375
1688533969583,1052600939,37395,15,0.935302734375,0.01116943359375,0.13323974609375
1688533969583,1052600939,37395,16,0.915771484375,0.01898193359375,0.22552490234375
1688533969583,1052600939,37395,17,0.9052734375,0.03314208984375,0.20404052734375
1688533969583,1052600939,37395,18,0.9072265625,0.03411865234375,0.21380615234375
1688533969583,1052600939,37395,19,0.9169921875,-0.01934814453125,0.28948974609375
1688533969583,1052600939,37395,20,0.89697265625,0.02557373046875,0.23846435546875
1688533969583,1052600939,37395,21,0.8837890625,0.01312255859375,0.29315185546875
1688533969583,1052600939,37395,22,0.886962890625,0.01702880859375,0.27532958984375
1688533969583,1052600939,37395,23,0.904296875,0.00604248046875,0.27142333984375
1688533969583,1052600939,37395,24,0.888427734375,0.03216552734375,0.19158935546875
1688533969583,1052600939,37395,25,0.900146484375,0.02264404296875,0.31219482421875
1688533969583,1052600939,37395,26,0.929931640625,-0.02618408203125,0.20867919921875
1688533969583,1052600939,37395,27,0.911865234375,0.02630615234375,0.22918701171875
1688533969583,1052600939,37395,28,0.90283203125,0.01190185546875,0.16961669921875
1688533969583,1052600939,37395,29,0.9287109375,0.00018310546875,0.20965576171875
1688533969583,1052600939,37395,30,0.918212890625,0.02117919921875,0.20428466796875
1688533969583,1052600939,37395,31,0.914794921875,0.04046630859375,0.17840576171875
1688533972118,1052603476,37396,0,0.948974609375,-0.00274658203125,0.15863037109375
1688533972118,1052603476,37396,1,0.92236328125,0.03582763671875,0.17376708984375
1688533972118,1052603476,37396,2,0.935791015625,0.03485107421875,0.13250732421875
1688533972118,1052603476,37396,3,0.93798828125,0.02484130859375,0.17645263671875
1688533972118,1052603476,37396,4,0.881591796875,0.04461669921875,0.16351318359375
1688533972118,1052603476,37396,5,0.92626953125,0.01116943359375,0.23040771484375
1688533972118,1052603476,37396,6,0.89599609375,-0.01031494140625,0.28411865234375
1688533972118,1052603476,37396,7,0.927001953125,0.00213623046875,0.24334716796875
1688533972118,1052603476,37396,8,0.89697265625,0.03070068359375,0.23455810546875
1688533972118,1052603476,37396,9,0.930908203125,-0.04693603515625,0.10540771484375
1688533972118,1052603476,37396,10,0.89794921875,0.01995849609375,0.22064208984375
1688533972118,1052603476,37396,11,0.955322265625,0.02923583984375,0.18255615234375
1688533972118,1052603476,37396,12,0.90087890625,0.04876708984375,0.19769287109375
1688533972118,1052603476,37396,13,0.932861328125,0.00726318359375,0.15814208984375
1688533972118,1052603476,37396,14,0.9306640625,0.02288818359375,0.14471435546875
1688533972118,1052603476,37396,15,0.93896484375,0.01336669921875,0.10711669921875
1688533972118,1052603476,37396,16,0.92529296875,0.02239990234375,0.17254638671875
1688533972118,1052603476,37396,17,0.92041015625,0.05291748046875,0.15228271484375
1688533972118,1052603476,37396,18,0.939697265625,0.01092529296875,0.12908935546875
1688533972118,1052603476,37396,19,0.92236328125,0.01336669921875,0.18695068359375
1688533972118,1052603476,37396,20,0.95068359375,0.01776123046875,0.10321044921875
1688533972118,1052603476,37396,21,0.89697265625,0.05218505859375,0.19061279296875
1688533972118,1052603476,37396,22,0.923095703125,0.05560302734375,0.19232177734375
1688533972118,1052603476,37396,23,0.94384765625,-0.00787353515625,0.19085693359375
1688533972118,1052603476,37396,24,0.9091796875,0.02801513671875,0.19744873046875
1688533972118,1052603476,37396,25,0.882568359375,0.05926513671875,0.23870849609375
1688533972118,1052603476,37396,26,0.928466796875,-0.02154541015625,0.25482177734375
1688533972118,1052603476,37396,27,0.887939453125,0.04168701171875,0.13690185546875
1688533972118,1052603476,37396,28,0.923828125,0.01141357421875,0.24090576171875
1688533972118,1052603476,37396,29,0.9345703125,0.00042724609375,0.16033935546875
1688533972118,1052603476,37396,30,0.928955078125,0.03387451171875,0.16497802734375
1688533972118,1052603476,37396,31,0.93212890625,0.02679443359375,0.19549560546875
1688533974652,1052606007,37397,0,0.927978515625,0.02996826171875,0.13641357421875
1688533974652,1052606007,37397,1,0.93115234375,0.01995849609375,0.20159912109375
1688533974652,1052606007,37397,2,0.917724609375,0.05487060546875,0.14495849609375
1688533974652,1052606007,37397,3,0.913330078125,0.03631591796875,0.18792724609375
1688533974652,1052606007,37397,4,0.9384765625,0.04632568359375,0.14495849609375
1688533974652,1052606007,37397,5,0.916748046875,0.02630615234375,0.18402099609375
1688533974652,1052606007,37397,6,0.916748046875,0.04559326171875,0.18963623046875
1688533974652,1052606007,37397,7,0.925537109375,0.04510498046875,0.18865966796875
1688533974652,1052606007,37397,8,0.914306640625,0.03753662109375,0.25579833984375
1688533974652,1052606007,37397,9,0.891845703125,0.02020263671875,0.24871826171875
1688533974652,1052606007,37397,10,0.894775390625,0.02923583984375,0.27484130859375
1688533974652,1052606007,37397,11,0.891845703125,0.01922607421875,0.28485107421875
1688533974652,1052606007,37397,12,0.90185546875,0.02850341796875,0.27752685546875
1688533974652,1052606007,37397,13,0.901611328125,0.00628662109375,0.17987060546875
1688533974652,1052606007,37397,14,0.871826171875,0.04901123046875,0.33294677734375
1688533974652,1052606007,37397,15,0.919677734375,0.02630615234375,0.20526123046875
1688533974652,1052606007,37397,16,0.89990234375,0.03778076171875,0.27557373046875
1688533974652,1052606007,37397,17,0.931396484375,-0.00445556640625,0.19427490234375
1688533974652,1052606007,37397,18,0.8935546875,0.04998779296875,0.23480224609375
1688533974652,1052606007,37397,19,0.926513671875,0.01776123046875,0.20770263671875
1688533974652,1052606007,37397,20,0.92578125,0.02264404296875,0.15985107421875
1688533974652,1052606007,37397,21,0.93017578125,0.01409912109375,0.19793701171875
1688533974652,1052606007,37397,22,0.910400390625,0.05218505859375,0.13250732421875
1688533974652,1052606007,37397,23,0.9443359375,0.01409912109375,0.20037841796875
1688533974652,1052606007,37397,24,0.921630859375,0.03778076171875,0.14715576171875
1688533974652,1052606007,37397,25,0.935791015625,0.04388427734375,0.12860107421875
1688533974652,1052606007,37397,26,0.93798828125,0.02972412109375,0.10394287109375
1688533974652,1052606007,37397,27,0.92724609375,0.03509521484375,0.12738037109375
1688533974652,1052606007,37397,28,0.931640625,0.03582763671875,0.15081787109375
1688533974652,1052606007,37397,29,0.9443359375,0.03363037109375,0.17913818359375
1688533974652,1052606007,37397,30,0.90283203125,0.05804443359375,0.10467529296875
1688533974652,1052606007,37397,31,0.97021484375,-0.01470947265625,0.08343505859375
1688533977187,1052608544,37398,0,0.90185546875,0.07952880859375,0.20526123046875
1688533977187,1052608544,37398,1,0.9365234375,0.01580810546875,0.23992919921875
1688533977187,1052608544,37398,2,0.89990234375,0.04559326171875,0.17132568359375
1688533977187,1052608544,37398,3,0.9296875,0.02410888671875,0.25213623046875
1688533977187,1052608544,37398,4,0.893310546875,0.01580810546875,0.14129638671875
1688533977187,1052608544,37398,5,0.910400390625,0.01702880859375,0.21380615234375
1688533977187,1052608544,37398,6,0.939697265625,-0.00225830078125,0.21405029296875
1688533977187,1052608544,37398,7,0.92529296875,0.02288818359375,0.14300537109375
1688533977187,1052608544,37398,8,0.90283203125,0.02093505859375,0.21649169921875
1688533977187,1052608544,37398,9,0.929931640625,0.02850341796875,0.16888427734375
1688533977187,1052608544,37398,10,0.93408203125,0.00238037109375,0.16839599609375
1688533977187,1052608544,37398,11,0.920166015625,0.03485107421875,0.18939208984375
1688533977187,1052608544,37398,12,0.952392578125,0.01336669921875,0.20404052734375
1688533977187,1052608544,37398,13,0.90673828125,0.02337646484375,0.22772216796875
1688533977187,1052608544,37398,14,0.91748046875,-0.00665283203125,0.23724365234375
1688533977187,1052608544,37398,15,0.8984375,0.02630615234375,0.22381591796875
1688533977187,1052608544,37398,16,0.891845703125,0.01776123046875,0.19940185546875
1688533977187,1052608544,37398,17,0.899658203125,0.04730224609375,0.18597412109375
1688533977187,1052608544,37398,18,0.937255859375,-0.00323486328125,0.20819091796875
1688533977187,1052608544,37398,19,0.93017578125,0.00897216796875,0.17523193359375
1688533977187,1052608544,37398,20,0.927978515625,0.00750732421875,0.24505615234375
1688533977187,1052608544,37398,21,0.90625,0.03948974609375,0.16180419921875
1688533977187,1052608544,37398,22,0.926025390625,0.00994873046875,0.19134521484375
1688533977187,1052608544,37398,23,0.930908203125,0.01922607421875,0.14642333984375
1688533977187,1052608544,37398,24,0.919921875,0.02703857421875,0.17742919921875
1688533977187,1052608544,37398,25,0.935546875,0.02825927734375,0.16351318359375
1688533977187,1052608544,37398,26,0.94384765625,0.01922607421875,0.12615966796875
1688533977187,1052608544,37398,27,0.919677734375,0.01776123046875,0.15643310546875
1688533977187,1052608544,37398,28,0.935791015625,0.04681396484375,0.13861083984375
1688533977187,1052608544,37398,29,0.921142578125,0.03753662109375,0.14422607421875
1688533977187,1052608544,37398,30,0.92919921875,0.02606201171875,0.14691162109375
1688533977187,1052608544,37398,31,0.917236328125,0.04046630859375,0.19500732421875
1688533979723,1052611081,37399,0,0.935302734375,0.02117919921875,0.22845458984375
1688533979723,1052611081,37399,1,0.914306640625,0.01361083984375,0.23162841796875
1688533979723,1052611081,37399,2,0.900634765625,0.00067138671875,0.24920654296875
1688533979723,1052611081,37399,3,0.897216796875,0.01068115234375,0.24432373046875
1688533979723,1052611081,37399,4,0.89404296875,0.01995849609375,0.27899169921875
1688533979723,1052611081,37399,5,0.899658203125,0.00897216796875,0.12445068359375
1688533979723,1052611081,37399,6,0.900146484375,0.02484130859375,0.28338623046875
1688533979723,1052611081,37399,7,0.93994140625,0.00335693359375,0.15667724609375
1688533979723,1052611081,37399,8,0.91259765625,0.01947021484375,0.16986083984375
1688533979723,1052611081,37399,9,0.95654296875,-0.01348876953125,0.18011474609375
1688533979723,1052611081,37399,10,0.908447265625,0.04461669921875,0.14520263671875
1688533979723,1052611081,37399,11,0.937255859375,0.00091552734375,0.17742919921875
1688533979723,1052611081,37399,12,0.920166015625,0.01214599609375,0.15521240234375
1688533979723,1052611081,37399,13,0.94287109375,0.00775146484375,0.16009521484375
1688533979723,1052611081,37399,14,0.9189453125,-0.00323486328125,0.15130615234375
1688533979723,1052611081,37399,15,0.927734375,-0.00177001953125,0.16009521484375
1688533979723,1052611081,37399,16,0.91552734375,0.02337646484375,0.18084716796875
1688533979723,1052611081,37399,17,0.9296875,0.00897216796875,0.24261474609375
1688533979723,1052611081,37399,18,0.91162109375,0.00628662109375,0.22235107421875
1688533979723,1052611081,37399,19,0.906005859375,-0.00054931640625,0.24871826171875
1688533979723,1052611081,37399,20,0.896484375,0.00994873046875,0.26409912109375
1688533979723,1052611081,37399,21,0.908203125,0.02703857421875,0.24090576171875
1688533979723,1052611081,37399,22,0.899658203125,0.03436279296875,0.10467529296875
1688533979723,1052611081,37399,23,0.9013671875,-0.01202392578125,0.31072998046875
1688533979723,1052611081,37399,24,0.961669921875,-0.02691650390625,0.15887451171875
1688533979723,1052611081,37399,25,0.902587890625,0.00042724609375,0.20257568359375
1688533979723,1052611081,37399,26,0.918701171875,-0.00616455078125,0.19915771484375
1688533979723,1052611081,37399,27,0.931640625,-0.00177001953125,0.18304443359375
1688533979723,1052611081,37399,28,0.927490234375,0.00091552734375,0.19183349609375
1688533979723,1052611081,37399,29,0.9208984375,0.02069091796875,0.17230224609375
1688533979723,1052611081,37399,30,0.91455078125,0.00946044921875,0.16888427734375
1688533979723,1052611081,37399,31,0.9267578125,0.00433349609375,0.20013427734375
1688533982452,1052613618,37400,0,0.915771484375,0.00921630859375,0.21551513671875
1688533982452,1052613618,37400,1,0.896728515625,0.01605224609375,0.26751708984375
1688533982452,1052613618,37400,2,0.905029296875,0.00457763671875,0.26922607421875
1688533982452,1052613618,37400,3,0.904296875,0.00067138671875,0.26434326171875
1688533982452,1052613618,37400,4,0.892822265625,-0.00372314453125,0.27825927734375
1688533982452,1052613618,37400,5,0.88720703125,0.01995849609375,0.27728271484375
1688533982452,1052613618,37400,6,0.887939453125,0.01947021484375,0.27679443359375
1688533982452,1052613618,37400,7,0.88427734375,0.00726318359375,0.18914794921875
1688533982452,1052613618,37400,8,0.90380859375,-0.00299072265625,0.34588623046875
1688533982452,1052613618,37400,9,0.894775390625,0.01824951171875,0.21405029296875
1688533982452,1052613618,37400,10,0.906494140625,0.00433349609375,0.28948974609375
1688533982452,1052613618,37400,11,0.923583984375,-0.04571533203125,0.20867919921875
1688533982452,1052613618,37400,12,0.887939453125,0.03118896484375,0.24237060546875
1688533982452,1052613618,37400,13,0.922119140625,0.00506591796875,0.26654052734375
1688533982452,1052613618,37400,14,0.907470703125,0.02386474609375,0.21673583984375
1688533982452,1052613618,37400,15,0.909912109375,0.02069091796875,0.18548583984375
1688533982452,1052613618,37400,16,0.92236328125,0.01361083984375,0.21942138671875
1688533982452,1052613618,37400,17,0.913330078125,0.01019287109375,0.22283935546875
1688533982452,1052613618,37400,18,0.903564453125,0.01312255859375,0.27386474609375
1688533982452,1052613618,37400,19,0.89697265625,0.01751708984375,0.24920654296875
1688533982452,1052613618,37400,20,0.893310546875,0.00091552734375,0.27435302734375
1688533982452,1052613618,37400,21,0.898193359375,-0.01007080078125,0.26263427734375
1688533982452,1052613618,37400,22,0.899169921875,0.01312255859375,0.25628662109375
1688533982452,1052613618,37400,23,0.896484375,0.02239990234375,0.16888427734375
1688533982452,1052613618,37400,24,0.908203125,0.00653076171875,0.26702880859375
1688533982452,1052613618,37400,25,0.927001953125,-0.01641845703125,0.22943115234375
1688533982452,1052613618,37400,26,0.90576171875,0.01727294921875,0.23626708984375
1688533982452,1052613618,37400,27,0.90478515625,0.01190185546875,0.23040771484375
1688533982452,1052613618,37400,28,0.916015625,0.00091552734375,0.23675537109375
1688533982452,1052613618,37400,29,0.907470703125,0.01190185546875,0.21356201171875
1688533982452,1052613618,37400,30,0.919921875,0.01824951171875,0.20770263671875
1688533982452,1052613618,37400,31,0.9189453125,0.01556396484375,0.19744873046875
1688533984988,1052616155,37401,0,0.919677734375,0.02117919921875,0.20428466796875
1688533984988,1052616155,37401,1,0.91796875,0.01116943359375,0.24896240234375
1688533984988,1052616155,37401,2,0.896240234375,0.00848388671875,0.22894287109375
1688533984988,1052616155,37401,3,0.908935546875,0.01434326171875,0.27191162109375
1688533984988,1052616155,37401,4,0.89013671875,0.00408935546875,0.27850341796875
1688533984988,1052616155,37401,5,0.895263671875,0.00482177734375,0.25482177734375
1688533984988,1052616155,37401,6,0.888916015625,0.02459716796875,0.22625732421875
1688533984988,1052616155,37401,7,0.8837890625,0.01043701171875,0.22552490234375
1688533984988,1052616155,37401,8,0.9365234375,-0.00347900390625,0.24969482421875
1688533984988,1052616155,37401,9,0.911376953125,0.01312255859375,0.24041748046875
1688533984988,1052616155,37401,10,0.908203125,-0.00762939453125,0.20867919921875
1688533984988,1052616155,37401,11,0.928955078125,-0.00201416015625,0.19696044921875
1688533984988,1052616155,37401,12,0.920166015625,-0.01153564453125,0.20867919921875
1688533984988,1052616155,37401,13,0.909423828125,0.03070068359375,0.18157958984375
1688533984988,1052616155,37401,14,0.918212890625,0.00799560546875,0.18792724609375
1688533984988,1052616155,37401,15,0.926025390625,0.03118896484375,0.20281982421875
