receivedPhoneTimestamp,respeckTimestamp,packetSeqNum,sampleSeqNum,accelX,accelY,accelZ
1759502827948,690428481,28206,0,0.003173828125,-0.99249267578125,0.07928466796875
1759502827948,690428481,28206,1,-0.031005859375,-0.99176025390625,0.10345458984375
1759502827948,690428481,28206,2,-0.029052734375,-0.99371337890625,0.12957763671875
1759502827948,690428481,28206,3,-0.02685546875,-0.97833251953125,0.11956787109375
1759502827948,690428481,28206,4,-0.047607421875,-1.00006103515625,0.12200927734375
1759502827948,690428481,28206,5,-0.0146484375,-0.98565673828125,0.12274169921875
1759502827948,690428481,28206,6,-0.007568359375,-0.99102783203125,0.12518310546875
1759502827948,690428481,28206,7,0.00341796875,-0.98785400390625,0.13031005859375
1759502827948,690428481,28206,8,0.02001953125,-0.99078369140625,0.12322998046875
1759502827948,690428481,28206,9,0.02490234375,-0.99493408203125,0.12713623046875
1759502827948,690428481,28206,10,0.03515625,-0.99273681640625,0.12225341796875
1759502827948,690428481,28206,11,0.021728515625,-0.99468994140625,0.10882568359375
1759502827948,690428481,28206,12,0.004638671875,-0.99493408203125,0.10833740234375
1759502827948,690428481,28206,13,-0.016845703125,-0.99346923828125,0.11688232421875
1759502827948,690428481,28206,14,0.0087890625,-0.98687744140625,0.10394287109375
1759502827948,690428481,28206,15,-0.00830078125,-1.00201416015625,0.11688232421875
1759502827948,690428481,28206,16,0.021240234375,-0.97515869140625,0.10247802734375
1759502827948,690428481,28206,17,-0.013427734375,-0.99810791015625,0.11029052734375
1759502827948,690428481,28206,18,0.010009765625,-0.98126220703125,0.10931396484375
1759502827948,690428481,28206,19,0.027587890625,-0.97564697265625,0.10418701171875
1759502827948,690428481,28206,20,0.023193359375,-1.00738525390625,0.10223388671875
1759502827948,690428481,28206,21,0.029052734375,-0.99981689453125,0.10906982421875
1759502827948,690428481,28206,22,0.026123046875,-0.99102783203125,0.09832763671875
1759502827948,690428481,28206,23,0.02978515625,-0.99322509765625,0.11199951171875
1759502827948,690428481,28206,24,0.02490234375,-0.99127197265625,0.11785888671875
1759502827948,690428481,28206,25,0.0107421875,-0.99102783203125,0.12347412109375
1759502827948,690428481,28206,26,0.014404296875,-0.99053955078125,0.12103271484375
1759502827948,690428481,28206,27,0.00146484375,-0.98248291015625,0.12152099609375
1759502827948,690428481,28206,28,-0.012451171875,-0.99786376953125,0.13226318359375
1759502827948,690428481,28206,29,0.00244140625,-0.99322509765625,0.09442138671875
1759502827948,690428481,28206,30,0.034912109375,-0.98834228515625,0.11419677734375
1759502827948,690428481,28206,31,0.012939453125,-0.98052978515625,0.08978271484375
1759502830483,690431024,28207,0,0.029541015625,-0.97784423828125,0.09173583984375
1759502830483,690431024,28207,1,0.03125,-0.98126220703125,0.06195068359375
1759502830483,690431024,28207,2,0.03466796875,-1.00592041015625,0.03582763671875
1759502830483,690431024,28207,3,0.10009765625,-0.98126220703125,-0.00909423828125
1759502830483,690431024,28207,4,0.02685546875,-1.02056884765625,0.03558349609375
1759502830483,690431024,28207,5,0.084716796875,-1.02789306640625,0.02825927734375
1759502830483,690431024,28207,6,0.118408203125,-0.95050048828125,-0.06597900390625
1759502830483,690431024,28207,7,0.061279296875,-1.02886962890625,0.07122802734375
1759502830483,690431024,28207,8,0.029541015625,-0.95318603515625,0.06341552734375
1759502830483,690431024,28207,9,0.0869140625,-0.99468994140625,0.02410888671875
1759502830483,690431024,28207,10,0.113525390625,-1.01446533203125,0.01629638671875
1759502830483,690431024,28207,11,0.111572265625,-0.98077392578125,0.02850341796875
1759502830483,690431024,28207,12,0.09521484375,-0.97662353515625,0.04412841796875
1759502830483,690431024,28207,13,0.104736328125,-1.00299072265625,0.04583740234375
1759502830483,690431024,28207,14,0.10888671875,-0.98004150390625,0.06512451171875
1759502830483,690431024,28207,15,0.112548828125,-0.97540283203125,0.06390380859375
1759502830483,690431024,28207,16,0.132568359375,-1.00274658203125,0.05242919921875
1759502830483,690431024,28207,17,0.105224609375,-0.97979736328125,0.06146240234375
1759502830483,690431024,28207,18,0.0966796875,-0.99151611328125,0.05120849609375
1759502830483,690431024,28207,19,0.130615234375,-0.99176025390625,0.05316162109375
1759502830483,690431024,28207,20,0.064453125,-0.99786376953125,0.05267333984375
1759502830483,690431024,28207,21,0.129638671875,-0.98468017578125,0.05828857421875
1759502830483,690431024,28207,22,0.095458984375,-0.97662353515625,0.04290771484375
1759502830483,690431024,28207,23,0.123291015625,-0.99639892578125,0.05389404296875
1759502830483,690431024,28207,24,0.077880859375,-0.99542236328125,0.05364990234375
1759502830483,690431024,28207,25,0.09716796875,-0.98419189453125,0.05975341796875
1759502830483,690431024,28207,26,0.059814453125,-0.97613525390625,0.05755615234375
1759502830483,690431024,28207,27,0.1201171875,-0.98956298828125,0.00848388671875
1759502830483,690431024,28207,28,0.056884765625,-1.03887939453125,0.03509521484375
1759502830483,690431024,28207,29,0.089599609375,-0.96881103515625,0.01287841796875
1759502830483,690431024,28207,30,0.045166015625,-1.01495361328125,0.04608154296875
1759502830483,690431024,28207,31,0.0400390625,-0.98394775390625,0.05413818359375
1759502833022,690433567,28208,0,0.041259765625,-1.00054931640625,0.04510498046875
1759502833022,690433567,28208,1,0.0712890625,-0.98712158203125,0.04827880859375
1759502833022,690433567,28208,2,0.05810546875,-0.98736572265625,0.06195068359375
1759502833022,690433567,28208,3,0.060791015625,-0.99468994140625,0.02972412109375
1759502833022,690433567,28208,4,0.1416015625,-1.00469970703125,0.01165771484375
1759502833022,690433567,28208,5,0.0390625,-1.00347900390625,-0.00079345703125
1759502833022,690433567,28208,6,0.089111328125,-0.98931884765625,0.02337646484375
1759502833022,690433567,28208,7,0.090087890625,-1.00054931640625,0.03338623046875
1759502833022,690433567,28208,8,0.041259765625,-0.98541259765625,0.04974365234375
1759502833022,690433567,28208,9,0.079833984375,-0.99761962890625,0.06341552734375
1759502833022,690433567,28208,10,0.0625,-0.97174072265625,0.04510498046875
1759502833022,690433567,28208,11,0.0703125,-1.00201416015625,0.08001708984375
1759502833022,690433567,28208,12,0.047119140625,-0.98785400390625,0.05047607421875
1759502833022,690433567,28208,13,0.09814453125,-0.98687744140625,0.02386474609375
1759502833022,690433567,28208,14,0.13330078125,-1.02398681640625,0.01678466796875
1759502833022,690433567,28208,15,0.10107421875,-0.92852783203125,-0.02252197265625
1759502833022,690433567,28208,16,0.044189453125,-1.05108642578125,0.04339599609375
1759502833022,690433567,28208,17,0.012939453125,-1.01031494140625,0.10223388671875
1759502833022,690433567,28208,18,0.0712890625,-0.95953369140625,0.03607177734375
1759502833022,690433567,28208,19,0.122314453125,-1.01104736328125,0.03363037109375
1759502833022,690433567,28208,20,0.00244140625,-1.00714111328125,0.08782958984375
1759502833022,690433567,28208,21,0.08984375,-0.95440673828125,0.09930419921875
1759502833022,690433567,28208,22,0.06494140625,-0.98175048828125,0.01580810546875
1759502833022,690433567,28208,23,0.084716796875,-1.04254150390625,0.01995849609375
1759502833022,690433567,28208,24,0.0263671875,-0.97149658203125,0.09027099609375
1759502833022,690433567,28208,25,0.076904296875,-0.97247314453125,0.02752685546875
1759502833022,690433567,28208,26,0.05029296875,-1.02813720703125,0.00555419921875
1759502833022,690433567,28208,27,0.046142578125,-0.99102783203125,0.08294677734375
1759502833022,690433567,28208,28,0.074951171875,-0.98297119140625,0.03411865234375
1759502833022,690433567,28208,29,0.13818359375,-0.97174072265625,-0.00982666015625
1759502833022,690433567,28208,30,0.075439453125,-1.02911376953125,0.07464599609375
1759502833022,690433567,28208,31,0.091064453125,-0.95831298828125,0.00360107421875
1759502835557,690436110,28209,0,0.118896484375,-1.02227783203125,0.01287841796875
1759502835557,690436110,28209,1,0.102783203125,-1.00079345703125,0.06072998046875
1759502835557,690436110,28209,2,0.072998046875,-0.96319580078125,0.03875732421875
1759502835557,690436110,28209,3,0.128173828125,-0.99029541015625,0.05120849609375
1759502835557,690436110,28209,4,0.09619140625,-0.98614501953125,0.03118896484375
1759502835557,690436110,28209,5,0.07177734375,-1.01104736328125,0.02508544921875
1759502835557,690436110,28209,6,0.083984375,-0.97930908203125,0.03729248046875
1759502835557,690436110,28209,7,0.07861328125,-1.00958251953125,0.04901123046875
1759502835557,690436110,28209,8,0.088623046875,-0.98980712890625,0.08416748046875
1759502835557,690436110,28209,9,0.104736328125,-0.98858642578125,0.10150146484375
1759502835557,690436110,28209,10,0.040771484375,-0.99566650390625,0.07269287109375
1759502835557,690436110,28209,11,0.10400390625,-1.00958251953125,0.04046630859375
1759502835557,690436110,28209,12,0.130126953125,-0.96929931640625,0.00360107421875
1759502835557,690436110,28209,13,-0.020751953125,-1.01031494140625,0.12640380859375
1759502835557,690436110,28209,14,0.02197265625,-0.96490478515625,0.09954833984375
1759502835557,690436110,28209,15,0.079345703125,-0.97589111328125,0.02264404296875
1759502835557,690436110,28209,16,0.052001953125,-1.04766845703125,0.07293701171875
1759502835557,690436110,28209,17,0.025146484375,-0.97418212890625,0.07611083984375
1759502835557,690436110,28209,18,0.029541015625,-0.98443603515625,0.06927490234375
1759502835557,690436110,28209,19,0.0283203125,-1.02764892578125,0.05975341796875
1759502835557,690436110,28209,20,0.067626953125,-0.98297119140625,0.00067138671875
1759502835557,690436110,28209,21,0.068359375,-1.00250244140625,0.05120849609375
1759502835557,690436110,28209,22,0.0126953125,-1.01080322265625,-0.00616455078125
1759502835557,690436110,28209,23,0.064208984375,-0.92755126953125,0.01361083984375
1759502835557,690436110,28209,24,-0.059326171875,-1.09014892578125,0.11126708984375
1759502835557,690436110,28209,25,0.05224609375,-0.94879150390625,0.04510498046875
1759502835557,690436110,28209,26,0.078857421875,-0.99786376953125,0.00604248046875
1759502835557,690436110,28209,27,0.11767578125,-1.00689697265625,0.00189208984375
1759502835557,690436110,28209,28,-0.0068359375,-1.00616455078125,0.08392333984375
1759502835557,690436110,28209,29,0.07275390625,-0.95635986328125,0.03582763671875
1759502835557,690436110,28209,30,0.1142578125,-1.01470947265625,0.02386474609375
1759502835557,690436110,28209,31,0.078369140625,-0.99298095703125,0.04656982421875
1759502838091,690438653,28210,0,0.08251953125,-0.99859619140625,0.04412841796875
1759502838091,690438653,28210,1,0.093994140625,-0.97320556640625,0.02630615234375
1759502838091,690438653,28210,2,0.113037109375,-0.99273681640625,0.07366943359375
1759502838091,690438653,28210,3,0.099365234375,-1.00592041015625,0.07366943359375
1759502838091,690438653,28210,4,0.111328125,-0.96246337890625,-0.00445556640625
1759502838091,690438653,28210,5,0.108154296875,-1.02154541015625,0.00701904296875
1759502838091,690438653,28210,6,0.079345703125,-0.98345947265625,0.02630615234375
1759502838091,690438653,28210,7,0.055419921875,-1.00518798828125,0.09735107421875
1759502838091,690438653,28210,8,0.066162109375,-0.97857666015625,0.01507568359375
1759502838091,690438653,28210,9,0.12744140625,-0.98175048828125,0.08050537109375
1759502838091,690438653,28210,10,-0.00634765625,-0.98956298828125,0.09149169921875
1759502838091,690438653,28210,11,0.06005859375,-0.98663330078125,0.04388427734375
1759502838091,690438653,28210,12,0.112060546875,-0.99835205078125,0.05975341796875
1759502838091,690438653,28210,13,0.0341796875,-1.00494384765625,0.07025146484375
1759502838091,690438653,28210,14,0.083740234375,-0.98541259765625,0.04656982421875
1759502838091,690438653,28210,15,0.103271484375,-0.98101806640625,0.02020263671875
1759502838091,690438653,28210,16,0.05712890625,-1.01007080078125,0.05364990234375
1759502838091,690438653,28210,17,0.047119140625,-0.96319580078125,0.04266357421875
1759502838091,690438653,28210,18,0.092529296875,-1.01251220703125,0.02874755859375
1759502838091,690438653,28210,19,0.085205078125,-1.00738525390625,0.04217529296875
1759502838091,690438653,28210,20,0.017822265625,-0.99932861328125,0.06414794921875
1759502838091,690438653,28210,21,0.03955078125,-1.00030517578125,0.09197998046875
1759502838091,690438653,28210,22,0.052734375,-0.98785400390625,0.08319091796875
1759502838091,690438653,28210,23,0.017822265625,-1.00103759765625,0.08392333984375
1759502838091,690438653,28210,24,0.0390625,-0.97100830078125,0.02313232421875
1759502838091,690438653,28210,25,0.059814453125,-0.95880126953125,0.04095458984375
1759502838091,690438653,28210,26,0.064208984375,-1.02740478515625,0.04827880859375
1759502838091,690438653,28210,27,0.059326171875,-1.00689697265625,0.02288818359375
1759502838091,690438653,28210,28,0.130859375,-0.98394775390625,-0.02227783203125
1759502838091,690438653,28210,29,0.02978515625,-1.00421142578125,0.03192138671875
1759502838091,690438653,28210,30,0.0595703125,-0.98565673828125,0.02874755859375
1759502838091,690438653,28210,31,0.096435546875,-0.99761962890625,-0.01812744140625
1759502840626,690441196,28211,0,0.0986328125,-1.00201416015625,-0.00323486328125
1759502840626,690441196,28211,1,0.083740234375,-0.99932861328125,-0.00323486328125
1759502840626,690441196,28211,2,0.09326171875,-0.98809814453125,-0.00128173828125
1759502840626,690441196,28211,3,0.084716796875,-0.99713134765625,0.01409912109375
1759502840626,690441196,28211,4,0.08740234375,-0.97467041015625,0.00555419921875
1759502840626,690441196,28211,5,0.077880859375,-1.01910400390625,0.02703857421875
1759502840626,690441196,28211,6,0.07421875,-0.97760009765625,-0.00347900390625
1759502840626,690441196,28211,7,0.094970703125,-1.02349853515625,0.00286865234375
1759502840626,690441196,28211,8,0.046875,-0.98638916015625,0.05609130859375
1759502840626,690441196,28211,9,0.08740234375,-0.97515869140625,0.03216552734375
1759502840626,690441196,28211,10,0.074462890625,-1.00347900390625,0.02191162109375
1759502840626,690441196,28211,11,0.069091796875,-1.00592041015625,0.04217529296875
1759502840626,690441196,28211,12,0.05517578125,-0.97296142578125,0.07659912109375
1759502840626,690441196,28211,13,0.105224609375,-0.97711181640625,0.02972412109375
1759502840626,690441196,28211,14,0.1171875,-1.05279541015625,0.02069091796875
1759502840626,690441196,28211,15,0.001708984375,-0.95562744140625,0.07489013671875
1759502840626,690441196,28211,16,0.104736328125,-1.00714111328125,0.09271240234375
1759502840626,690441196,28211,17,0.087158203125,-0.96856689453125,0.06170654296875
1759502840626,690441196,28211,18,0.052490234375,-1.00885009765625,0.09295654296875
1759502840626,690441196,28211,19,0.08056640625,-0.97564697265625,0.07733154296875
1759502840626,690441196,28211,20,0.0634765625,-1.00396728515625,0.08758544921875
1759502840626,690441196,28211,21,0.09912109375,-0.97589111328125,0.07171630859375
1759502840626,690441196,28211,22,0.071533203125,-1.00592041015625,0.10150146484375
1759502840626,690441196,28211,23,0.056396484375,-0.96734619140625,0.08367919921875
1759502840626,690441196,28211,24,0.101318359375,-1.00518798828125,0.09344482421875
1759502840626,690441196,28211,25,0.073974609375,-0.98150634765625,0.08319091796875
1759502840626,690441196,28211,26,0.086181640625,-1.00372314453125,0.07513427734375
1759502840626,690441196,28211,27,0.067138671875,-0.97955322265625,0.08172607421875
1759502840626,690441196,28211,28,0.0712890625,-0.99053955078125,0.06658935546875
1759502840626,690441196,28211,29,0.072509765625,-1.01080322265625,0.09539794921875
1759502840626,690441196,28211,30,0.032470703125,-0.96881103515625,0.09588623046875
1759502840626,690441196,28211,31,0.161865234375,-0.97955322265625,0.09173583984375
1759502843162,690443739,28212,0,0.090576171875,-0.99468994140625,0.09637451171875
1759502843162,690443739,28212,1,0.145751953125,-0.97442626953125,0.08050537109375
1759502843162,690443739,28212,2,0.108154296875,-0.98443603515625,0.08612060546875
1759502843162,690443739,28212,3,0.1376953125,-0.97344970703125,0.08001708984375
1759502843162,690443739,28212,4,0.070556640625,-0.97906494140625,0.07733154296875
1759502843162,690443739,28212,5,0.09423828125,-0.99371337890625,0.07635498046875
1759502843162,690443739,28212,6,0.0966796875,-1.00811767578125,0.10736083984375
1759502843162,690443739,28212,7,0.045166015625,-0.98834228515625,0.09002685546875
1759502843162,690443739,28212,8,0.14208984375,-0.97247314453125,0.08392333984375
1759502843162,690443739,28212,9,0.1376953125,-0.99835205078125,0.00067138671875
1759502843162,690443739,28212,10,0.225830078125,-1.02935791015625,0.05584716796875
1759502843162,690443739,28212,11,0.00048828125,-0.95269775390625,0.09661865234375
1759502843162,690443739,28212,12,0.09375,-0.99127197265625,0.11175537109375
1759502843162,690443739,28212,13,0.0947265625,-1.01031494140625,0.10418701171875
1759502843162,690443739,28212,14,0.095947265625,-0.97442626953125,0.07830810546875
1759502843162,690443739,28212,15,0.063232421875,-1.00299072265625,0.10101318359375
1759502843162,690443739,28212,16,0.0771484375,-0.94415283203125,0.06170654296875
1759502843162,690443739,28212,17,0.10302734375,-1.01202392578125,0.05218505859375
1759502843162,690443739,28212,18,0.08642578125,-0.99517822265625,0.06732177734375
1759502843162,690443739,28212,19,0.046142578125,-0.97467041015625,0.03216552734375
1759502843162,690443739,28212,20,0.09912109375,-0.98760986328125,0.03240966796875
1759502843162,690443739,28212,21,0.104736328125,-0.96563720703125,0.00946044921875
1759502843162,690443739,28212,22,0.01806640625,-1.05230712890625,0.11077880859375
1759502843162,690443739,28212,23,0.11083984375,-0.93121337890625,-0.01226806640625
1759502843162,690443739,28212,24,0.1552734375,-1.02545166015625,0.01800537109375
1759502843162,690443739,28212,25,0.01025390625,-1.01812744140625,0.07708740234375
1759502843162,690443739,28212,26,0.112060546875,-0.94830322265625,0.01068115234375
1759502843162,690443739,28212,27,0.06005859375,-1.03350830078125,0.04412841796875
1759502843162,690443739,28212,28,0.110107421875,-0.97735595703125,0.05413818359375
1759502843162,690443739,28212,29,0.069580078125,-0.99029541015625,0.03753662109375
1759502843162,690443739,28212,30,0.082763671875,-1.01763916015625,0.06781005859375
1759502843162,690443739,28212,31,0.1015625,-0.95880126953125,0.01824951171875
1759502845696,690446282,28213,0,0.116455078125,-0.98687744140625,0.02850341796875
1759502845696,690446282,28213,1,0.08251953125,-1.02008056640625,0.06463623046875
1759502845696,690446282,28213,2,0.091552734375,-0.97198486328125,0.04705810546875
1759502845696,690446282,28213,3,0.105224609375,-1.00030517578125,0.02264404296875
1759502845696,690446282,28213,4,0.093505859375,-0.99591064453125,0.04876708984375
1759502845696,690446282,28213,5,0.052734375,-0.99127197265625,0.06195068359375
1759502845696,690446282,28213,6,0.06103515625,-0.99298095703125,0.06829833984375
1759502845696,690446282,28213,7,0.105224609375,-0.98956298828125,0.03558349609375
1759502845696,690446282,28213,8,0.076171875,-1.00079345703125,0.07635498046875
1759502845696,690446282,28213,9,0.037109375,-0.98272705078125,0.09588623046875
1759502845696,690446282,28213,10,0.015869140625,-1.00518798828125,0.12274169921875
1759502845696,690446282,28213,11,0.039794921875,-0.94488525390625,0.05194091796875
1759502845696,690446282,28213,12,0.06982421875,-1.01202392578125,0.10516357421875
1759502845696,690446282,28213,13,0.081787109375,-0.98590087890625,0.08734130859375
1759502845696,690446282,28213,14,0.099365234375,-1.00616455078125,0.06439208984375
1759502845696,690446282,28213,15,0.06787109375,-0.97564697265625,0.07537841796875
1759502845696,690446282,28213,16,0.073974609375,-0.99346923828125,0.11346435546875
1759502845696,690446282,28213,17,0.05859375,-0.99151611328125,0.08221435546875
1759502845696,690446282,28213,18,0.26953125,-0.94732666015625,0.01434326171875
1759502845696,690446282,28213,19,0.036865234375,-1.02691650390625,0.10931396484375
1759502845696,690446282,28213,20,0.10205078125,-0.96563720703125,0.05096435546875
1759502845696,690446282,28213,21,0.073974609375,-1.00860595703125,0.06146240234375
1759502845696,690446282,28213,22,0.106201171875,-0.98663330078125,0.05609130859375
1759502845696,690446282,28213,23,0.0927734375,-0.99005126953125,0.04876708984375
1759502845696,690446282,28213,24,0.1474609375,-0.98126220703125,0.01824951171875
1759502845696,690446282,28213,25,0.131591796875,-1.00152587890625,0.04681396484375
1759502845696,690446282,28213,26,0.116943359375,-1.00518798828125,0.06121826171875
1759502845696,690446282,28213,27,0.111572265625,-0.96759033203125,0.01751708984375
1759502845696,690446282,28213,28,0.136962890625,-0.98760986328125,-0.01202392578125
1759502845696,690446282,28213,29,0.1162109375,-0.96051025390625,-0.02618408203125
1759502845696,690446282,28213,30,-0.001708984375,-1.06304931640625,0.11810302734375
1759502845696,690446282,28213,31,0.058837890625,-0.96051025390625,0.04144287109375
1759502848231,690448826,28214,0,0.11328125,-0.97296142578125,0.05975341796875
1759502848231,690448826,28214,1,0.089599609375,-1.01104736328125,0.09295654296875
1759502848231,690448826,28214,2,0.083251953125,-0.97515869140625,0.06610107421875
1759502848231,690448826,28214,3,0.0576171875,-0.99053955078125,0.06512451171875
1759502848231,690448826,28214,4,0.108154296875,-0.98736572265625,0.05291748046875
1759502848231,690448826,28214,5,0.11474609375,-0.99566650390625,0.06976318359375
1759502848231,690448826,28214,6,0.046630859375,-1.00518798828125,0.06658935546875
1759502848231,690448826,28214,7,0.021484375,-0.99591064453125,0.03875732421875
1759502848231,690448826,28214,8,0.034912109375,-1.00030517578125,0.08807373046875
1759502848231,690448826,28214,9,0.011962890625,-1.00909423828125,0.07049560546875
1759502848231,690448826,28214,10,0.1162109375,-0.94464111328125,-0.00592041015625
1759502848231,690448826,28214,11,0.011474609375,-1.02105712890625,0.04583740234375
1759502848231,690448826,28214,12,0.01025390625,-1.00982666015625,0.06951904296875
1759502848231,690448826,28214,13,0.05419921875,-0.98468017578125,0.03729248046875
1759502848231,690448826,28214,14,0.0322265625,-1.02520751953125,0.04437255859375
1759502848231,690448826,28214,15,0.07421875,-0.97271728515625,0.05853271484375
1759502848231,690448826,28214,16,0.081298828125,-0.98345947265625,0.03314208984375
1759502848231,690448826,28214,17,0.0625,-1.01007080078125,0.08172607421875
1759502848231,690448826,28214,18,0.0947265625,-0.96173095703125,0.03704833984375
1759502848231,690448826,28214,19,0.0458984375,-1.00372314453125,0.05145263671875
1759502848231,690448826,28214,20,0.047607421875,-1.00665283203125,0.03118896484375
1759502848231,690448826,28214,21,0.03662109375,-1.00201416015625,0.03387451171875
1759502848231,690448826,28214,22,0.03515625,-1.01080322265625,0.03460693359375
1759502848231,690448826,28214,23,0.05126953125,-0.99322509765625,0.09027099609375
1759502848231,690448826,28214,24,0.0380859375,-0.98736572265625,0.12420654296875
1759502848231,690448826,28214,25,-0.010009765625,-1.00811767578125,0.13031005859375
1759502848231,690448826,28214,26,0.022705078125,-0.96466064453125,0.10003662109375
1759502848231,690448826,28214,27,0.004638671875,-1.01641845703125,0.06097412109375
1759502848231,690448826,28214,28,0.021728515625,-0.96002197265625,0.06414794921875
1759502848231,690448826,28214,29,0.042724609375,-1.01641845703125,0.06610107421875
1759502848231,690448826,28214,30,0.088134765625,-1.00054931640625,0.07440185546875
1759502848231,690448826,28214,31,0.12841796875,-0.97784423828125,0.09173583984375
1759502850766,690451369,28215,0,0.0927734375,-0.98834228515625,0.04339599609375
1759502850766,690451369,28215,1,0.098876953125,-0.98760986328125,0.06219482421875
1759502850766,690451369,28215,2,0.1064453125,-1.00103759765625,0.09808349609375
1759502850766,690451369,28215,3,0.115234375,-0.96124267578125,0.04998779296875
1759502850766,690451369,28215,4,0.12255859375,-0.98760986328125,0.06805419921875
1759502850766,690451369,28215,5,0.113037109375,-0.98736572265625,0.06390380859375
1759502850766,690451369,28215,6,0.115234375,-0.96636962890625,0.04827880859375
1759502850766,690451369,28215,7,0.111572265625,-1.00030517578125,0.03167724609375
1759502850766,690451369,28215,8,0.104736328125,-1.01690673828125,0.00750732421875
1759502850766,690451369,28215,9,0.10302734375,-0.97955322265625,0.02191162109375
1759502850766,690451369,28215,10,0.104248046875,-1.00299072265625,0.03485107421875
1759502850766,690451369,28215,11,0.09521484375,-0.97540283203125,-0.00079345703125
1759502850766,690451369,28215,12,0.086181640625,-1.00933837890625,0.05364990234375
1759502850766,690451369,28215,13,0.01171875,-1.02471923828125,0.08441162109375
1759502850766,690451369,28215,14,0.028076171875,-0.97247314453125,0.02362060546875
1759502850766,690451369,28215,15,0.07861328125,-0.97491455078125,-0.04571533203125
1759502850766,690451369,28215,16,0.019287109375,-1.00543212890625,0.08221435546875
1759502850766,690451369,28215,17,0.03759765625,-1.01129150390625,0.07342529296875
1759502850766,690451369,28215,18,0.075439453125,-0.98150634765625,0.03802490234375
1759502850766,690451369,28215,19,0.055908203125,-0.99688720703125,0.04608154296875
1759502850766,690451369,28215,20,0.047607421875,-1.00982666015625,0.05902099609375
1759502850766,690451369,28215,21,0.05419921875,-0.96978759765625,0.04119873046875
1759502850766,690451369,28215,22,0.05859375,-1.01593017578125,0.06317138671875
1759502850766,690451369,28215,23,0.047119140625,-1.00201416015625,0.01849365234375
1759502850766,690451369,28215,24,0.055908203125,-1.00079345703125,0.03045654296875
1759502850766,690451369,28215,25,0.078125,-1.02496337890625,0.05853271484375
1759502850766,690451369,28215,26,0.041015625,-0.96221923828125,0.03509521484375
1759502850766,690451369,28215,27,0.093505859375,-0.97857666015625,-0.00054931640625
1759502850766,690451369,28215,28,0.102294921875,-0.94024658203125,-0.00372314453125
1759502850766,690451369,28215,29,0.007568359375,-1.06085205078125,0.07952880859375
1759502850766,690451369,28215,30,0.078857421875,-0.98321533203125,0.01629638671875
1759502850766,690451369,28215,31,0.062744140625,-0.97296142578125,0.03802490234375
1759502853496,690453912,28216,0,0.051513671875,-1.02838134765625,0.05316162109375
1759502853496,690453912,28216,1,0.1396484375,-0.97344970703125,0.01287841796875
1759502853496,690453912,28216,2,0.048583984375,-1.02447509765625,0.05413818359375
1759502853496,690453912,28216,3,0.081298828125,-0.96978759765625,0.04290771484375
1759502853496,690453912,28216,4,0.072998046875,-0.99200439453125,0.04876708984375
1759502853496,690453912,28216,5,0.10302734375,-1.00860595703125,0.03778076171875
1759502853496,690453912,28216,6,0.114990234375,-0.99298095703125,0.03411865234375
1759502853496,690453912,28216,7,0.05859375,-1.00445556640625,0.02142333984375
1759502853496,690453912,28216,8,0.06591796875,-0.99737548828125,0.04339599609375
1759502853496,690453912,28216,9,0.033203125,-1.00885009765625,0.04998779296875
1759502853496,690453912,28216,10,0.0517578125,-0.98126220703125,0.04876708984375
1759502853496,690453912,28216,11,0.060546875,-0.98199462890625,0.02362060546875
1759502853496,690453912,28216,12,0.0673828125,-0.97906494140625,0.03460693359375
1759502853496,690453912,28216,13,0.116943359375,-1.00860595703125,0.09613037109375
1759502853496,690453912,28216,14,0.1015625,-0.97027587890625,0.06439208984375
1759502853496,690453912,28216,15,0.1484375,-1.00030517578125,0.11517333984375
1759502853496,690453912,28216,16,0.13916015625,-0.98126220703125,0.10467529296875
1759502853496,690453912,28216,17,0.142578125,-0.97369384765625,0.10516357421875
1759502853496,690453912,28216,18,0.1142578125,-0.97930908203125,0.15032958984375
1759502853496,690453912,28216,19,0.12744140625,-0.97125244140625,0.16180419921875
1759502853496,690453912,28216,20,0.12890625,-0.95733642578125,0.14813232421875
1759502853496,690453912,28216,21,0.11865234375,-0.98272705078125,0.18084716796875
1759502853496,690453912,28216,22,0.154052734375,-0.94097900390625,0.16522216796875
1759502853496,690453912,28216,23,0.147216796875,-0.97076416015625,0.16522216796875
1759502853496,690453912,28216,24,0.134765625,-0.96392822265625,0.16546630859375
1759502853496,690453912,28216,25,0.12939453125,-0.96954345703125,0.15399169921875
1759502853496,690453912,28216,26,0.11962890625,-0.97784423828125,0.15301513671875
1759502853496,690453912,28216,27,0.131591796875,-0.96246337890625,0.15472412109375
1759502853496,690453912,28216,28,0.083740234375,-0.98370361328125,0.15814208984375
1759502853496,690453912,28216,29,0.1455078125,-0.98077392578125,0.07025146484375
1759502853496,690453912,28216,30,0.173583984375,-0.97955322265625,0.07049560546875
1759502853496,690453912,28216,31,0.222900390625,-0.99322509765625,0.09735107421875
1759502856031,690456455,28217,0,0.0810546875,-0.91534423828125,0.06195068359375
1759502856031,690456455,28217,1,0.092041015625,-1.02252197265625,0.13079833984375
1759502856031,690456455,28217,2,0.115478515625,-0.96221923828125,0.04705810546875
1759502856031,690456455,28217,3,0.156494140625,-0.99151611328125,0.08929443359375
1759502856031,690456455,28217,4,0.0478515625,-1.00762939453125,0.09466552734375
1759502856031,690456455,28217,5,0.193603515625,-0.93756103515625,0.05169677734375
1759502856031,690456455,28217,6,0.099609375,-1.03765869140625,0.08197021484375
1759502856031,690456455,28217,7,0.130126953125,-0.96270751953125,0.07196044921875
1759502856031,690456455,28217,8,0.141845703125,-0.98126220703125,0.04437255859375
1759502856031,690456455,28217,9,0.1455078125,-1.00347900390625,0.06292724609375
1759502856031,690456455,28217,10,0.14892578125,-0.98150634765625,0.02874755859375
1759502856031,690456455,28217,11,0.173583984375,-0.96173095703125,0.04705810546875
1759502856031,690456455,28217,12,0.09912109375,-1.00299072265625,0.10076904296875
1759502856031,690456455,28217,13,0.089599609375,-0.97174072265625,0.11956787109375
1759502856031,690456455,28217,14,0.139892578125,-0.97198486328125,0.05438232421875
1759502856031,690456455,28217,15,0.16064453125,-0.97637939453125,0.05682373046875
1759502856031,690456455,28217,16,0.093505859375,-1.01495361328125,0.11126708984375
1759502856031,690456455,28217,17,0.123291015625,-0.96319580078125,0.05609130859375
1759502856031,690456455,28217,18,0.150390625,-0.99224853515625,0.05340576171875
1759502856031,690456455,28217,19,0.121826171875,-0.97857666015625,0.09417724609375
1759502856031,690456455,28217,20,0.13671875,-0.97613525390625,0.07293701171875
1759502856031,690456455,28217,21,0.095947265625,-0.98004150390625,0.09002685546875
1759502856031,690456455,28217,22,0.1181640625,-0.98956298828125,0.06268310546875
1759502856031,690456455,28217,23,0.161865234375,-0.99102783203125,0.07855224609375
1759502856031,690456455,28217,24,0.0556640625,-0.98345947265625,0.09808349609375
1759502856031,690456455,28217,25,0.1787109375,-0.98223876953125,0.07122802734375
1759502856031,690456455,28217,26,0.05859375,-0.99346923828125,0.10906982421875
1759502856031,690456455,28217,27,0.13671875,-0.97613525390625,0.08587646484375
