receivedPhoneTimestamp,respeckTimestamp,packetSeqNum,sampleSeqNum,accelX,accelY,accelZ
1759941801150,1043472651,8203,14,-0.932373046875,-0.41705322265625,-0.18170166015625
1759941801150,1043472651,8203,15,-0.9287109375,-0.41656494140625,-0.18170166015625
1759941801150,1043472651,8203,16,-0.9296875,-0.41314697265625,-0.17755126953125
1759941801150,1043472651,8203,17,-0.930908203125,-0.41729736328125,-0.17974853515625
1759941801150,1043472651,8203,18,-0.932373046875,-0.41119384765625,-0.19561767578125
1759941801150,1043472651,8203,19,-0.919189453125,-0.41461181640625,-0.19415283203125
1759941801150,1043472651,8203,20,-0.94482421875,-0.40118408203125,-0.20147705078125
1759941801150,1043472651,8203,21,-0.915771484375,-0.40313720703125,-0.19244384765625
1759941801150,1043472651,8203,22,-0.93017578125,-0.40386962890625,-0.19195556640625
1759941801150,1043472651,8203,23,-0.934814453125,-0.40753173828125,-0.21295166015625
1759941801150,1043472651,8203,24,-0.92822265625,-0.40093994140625,-0.20782470703125
1759941801150,1043472651,8203,25,-0.928466796875,-0.40118408203125,-0.19610595703125
1759941801150,1043472651,8203,26,-0.927490234375,-0.40655517578125,-0.20660400390625
1759941801150,1043472651,8203,27,-0.931884765625,-0.39703369140625,-0.21246337890625
1759941801150,1043472651,8203,28,-0.9306640625,-0.40216064453125,-0.19952392578125
1759941801150,1043472651,8203,29,-0.93115234375,-0.41339111328125,-0.19927978515625
1759941801150,1043472651,8203,30,-0.930419921875,-0.40899658203125,-0.19586181640625
1759941801150,1043472651,8203,31,-0.9296875,-0.40216064453125,-0.18658447265625
1759941803853,1043475224,8204,0,-0.92919921875,-0.41436767578125,-0.18414306640625
1759941803853,1043475224,8204,1,-0.930908203125,-0.41436767578125,-0.19097900390625
1759941803853,1043475224,8204,2,-0.929443359375,-0.40753173828125,-0.18731689453125
1759941803853,1043475224,8204,3,-0.930419921875,-0.40924072265625,-0.18634033203125
1759941803853,1043475224,8204,4,-0.931884765625,-0.41143798828125,-0.18780517578125
1759941803853,1043475224,8204,5,-0.932373046875,-0.41314697265625,-0.18585205078125
1759941803853,1043475224,8204,6,-0.933349609375,-0.41143798828125,-0.18145751953125
1759941803853,1043475224,8204,7,-0.928955078125,-0.41143798828125,-0.18414306640625
1759941803853,1043475224,8204,8,-0.93115234375,-0.41094970703125,-0.18634033203125
1759941803853,1043475224,8204,9,-0.930419921875,-0.41510009765625,-0.18609619140625
1759941803853,1043475224,8204,10,-0.931396484375,-0.41070556640625,-0.18341064453125
1759941803853,1043475224,8204,11,-0.9306640625,-0.41461181640625,-0.18316650390625
1759941803853,1043475224,8204,12,-0.929443359375,-0.41143798828125,-0.18609619140625
1759941803853,1043475224,8204,13,-0.93115234375,-0.40850830078125,-0.18829345703125
1759941803853,1043475224,8204,14,-0.930419921875,-0.41314697265625,-0.18463134765625
1759941803853,1043475224,8204,15,-0.932373046875,-0.41168212890625,-0.18682861328125
1759941803853,1043475224,8204,16,-0.93212890625,-0.41070556640625,-0.18585205078125
1759941803853,1043475224,8204,17,-0.9287109375,-0.41217041015625,-0.19073486328125
1759941803853,1043475224,8204,18,-0.93359375,-0.40948486328125,-0.19073486328125
1759941803853,1043475224,8204,19,-0.92822265625,-0.40899658203125,-0.19219970703125
1759941803853,1043475224,8204,20,-0.92919921875,-0.40850830078125,-0.19342041015625
1759941803853,1043475224,8204,21,-0.9326171875,-0.41094970703125,-0.19171142578125
1759941803853,1043475224,8204,22,-0.932861328125,-0.40850830078125,-0.19390869140625
1759941803853,1043475224,8204,23,-0.93017578125,-0.40802001953125,-0.19244384765625
1759941803853,1043475224,8204,24,-0.930419921875,-0.40753173828125,-0.18853759765625
1759941803853,1043475224,8204,25,-0.928466796875,-0.40850830078125,-0.19146728515625
1759941803853,1043475224,8204,26,-0.92578125,-0.40997314453125,-0.20611572265625
1759941803853,1043475224,8204,27,-0.941162109375,-0.40533447265625,-0.19317626953125
1759941803853,1043475224,8204,28,-0.91943359375,-0.40362548828125,-0.19659423828125
1759941803853,1043475224,8204,29,-0.93017578125,-0.40264892578125,-0.20977783203125
1759941803853,1043475224,8204,30,-0.938720703125,-0.40045166015625,-0.20513916015625
1759941803853,1043475224,8204,31,-0.929931640625,-0.40142822265625,-0.20489501953125
1759941806387,1043477797,8205,0,-0.927001953125,-0.39898681640625,-0.19976806640625
1759941806387,1043477797,8205,1,-0.93115234375,-0.40582275390625,-0.20855712890625
1759941806387,1043477797,8205,2,-0.933349609375,-0.40386962890625,-0.20294189453125
1759941806387,1043477797,8205,3,-0.929931640625,-0.39947509765625,-0.20001220703125
1759941806387,1043477797,8205,4,-0.93310546875,-0.40020751953125,-0.20294189453125
1759941806387,1043477797,8205,5,-0.934326171875,-0.41094970703125,-0.19586181640625
1759941806387,1043477797,8205,6,-0.929443359375,-0.40924072265625,-0.19195556640625
1759941806387,1043477797,8205,7,-0.9326171875,-0.40679931640625,-0.19293212890625
1759941806387,1043477797,8205,8,-0.93017578125,-0.40704345703125,-0.19293212890625
1759941806387,1043477797,8205,9,-0.93212890625,-0.40362548828125,-0.19757080078125
1759941806387,1043477797,8205,10,-0.928466796875,-0.40899658203125,-0.19195556640625
1759941806387,1043477797,8205,11,-0.932373046875,-0.41217041015625,-0.19683837890625
1759941806387,1043477797,8205,12,-0.9326171875,-0.40777587890625,-0.18975830078125
1759941806387,1043477797,8205,13,-0.927490234375,-0.40728759765625,-0.19317626953125
1759941806387,1043477797,8205,14,-0.92822265625,-0.40655517578125,-0.19293212890625
1759941806387,1043477797,8205,15,-0.93115234375,-0.41070556640625,-0.19146728515625
1759941806387,1043477797,8205,16,-0.9296875,-0.40582275390625,-0.19073486328125
1759941806387,1043477797,8205,17,-0.929443359375,-0.41119384765625,-0.19390869140625
1759941806387,1043477797,8205,18,-0.9306640625,-0.40728759765625,-0.19219970703125
1759941806387,1043477797,8205,19,-0.929931640625,-0.40826416015625,-0.19342041015625
1759941806387,1043477797,8205,20,-0.932861328125,-0.40972900390625,-0.19317626953125
1759941806387,1043477797,8205,21,-0.930419921875,-0.41046142578125,-0.19195556640625
1759941806387,1043477797,8205,22,-0.92578125,-0.40948486328125,-0.20904541015625
1759941806387,1043477797,8205,23,-0.9404296875,-0.40411376953125,-0.20440673828125
1759941806387,1043477797,8205,24,-0.9248046875,-0.40240478515625,-0.19073486328125
1759941806387,1043477797,8205,25,-0.92822265625,-0.41094970703125,-0.19683837890625
1759941806387,1043477797,8205,26,-0.93359375,-0.40093994140625,-0.20660400390625
1759941806387,1043477797,8205,27,-0.932373046875,-0.39898681640625,-0.19586181640625
1759941806387,1043477797,8205,28,-0.931396484375,-0.40240478515625,-0.20758056640625
1759941806387,1043477797,8205,29,-0.927734375,-0.40484619140625,-0.20318603515625
1759941806387,1043477797,8205,30,-0.927734375,-0.40509033203125,-0.19903564453125
1759941806387,1043477797,8205,31,-0.932373046875,-0.40191650390625,-0.19610595703125
1759941808939,1043480371,8206,0,-0.929931640625,-0.40753173828125,-0.19903564453125
1759941808939,1043480371,8206,1,-0.929931640625,-0.40411376953125,-0.19879150390625
1759941808939,1043480371,8206,2,-0.93017578125,-0.40728759765625,-0.20269775390625
1759941808939,1043480371,8206,3,-0.93017578125,-0.40289306640625,-0.20001220703125
1759941808939,1043480371,8206,4,-0.9287109375,-0.40728759765625,-0.19659423828125
1759941808939,1043480371,8206,5,-0.9306640625,-0.40826416015625,-0.19586181640625
1759941808939,1043480371,8206,6,-0.92822265625,-0.40679931640625,-0.19903564453125
1759941808939,1043480371,8206,7,-0.931884765625,-0.40338134765625,-0.19927978515625
1759941808939,1043480371,8206,8,-0.928955078125,-0.40533447265625,-0.19708251953125
1759941808939,1043480371,8206,9,-0.9296875,-0.40557861328125,-0.19927978515625
1759941808939,1043480371,8206,10,-0.927978515625,-0.40655517578125,-0.19512939453125
1759941808939,1043480371,8206,11,-0.9306640625,-0.40118408203125,-0.19561767578125
1759941808939,1043480371,8206,12,-0.931396484375,-0.40728759765625,-0.19464111328125
1759941808939,1043480371,8206,13,-0.9287109375,-0.40631103515625,-0.19708251953125
1759941808939,1043480371,8206,14,-0.9306640625,-0.40728759765625,-0.19757080078125
1759941808939,1043480371,8206,15,-0.929443359375,-0.40924072265625,-0.19732666015625
1759941808939,1043480371,8206,16,-0.930419921875,-0.40679931640625,-0.19683837890625
1759941808939,1043480371,8206,17,-0.932373046875,-0.40679931640625,-0.19683837890625
1759941808939,1043480371,8206,18,-0.92138671875,-0.41192626953125,-0.20855712890625
1759941808939,1043480371,8206,19,-0.937255859375,-0.40802001953125,-0.18853759765625
1759941808939,1043480371,8206,20,-0.932373046875,-0.39947509765625,-0.18804931640625
1759941808939,1043480371,8206,21,-0.918701171875,-0.41290283203125,-0.19366455078125
1759941808939,1043480371,8206,22,-0.9326171875,-0.40728759765625,-0.20855712890625
1759941808939,1043480371,8206,23,-0.935302734375,-0.40313720703125,-0.18902587890625
1759941808939,1043480371,8206,24,-0.93115234375,-0.39923095703125,-0.20635986328125
1759941808939,1043480371,8206,25,-0.92919921875,-0.40582275390625,-0.19610595703125
1759941808939,1043480371,8206,26,-0.932373046875,-0.40777587890625,-0.20562744140625
1759941808939,1043480371,8206,27,-0.931396484375,-0.40631103515625,-0.19024658203125
1759941808939,1043480371,8206,28,-0.929931640625,-0.40557861328125,-0.19781494140625
1759941808939,1043480371,8206,29,-0.9296875,-0.40191650390625,-0.19976806640625
1759941808939,1043480371,8206,30,-0.92626953125,-0.40899658203125,-0.19268798828125
1759941808939,1043480371,8206,31,-0.93359375,-0.39947509765625,-0.19879150390625
1759941811496,1043482944,8207,0,-0.9326171875,-0.40679931640625,-0.20367431640625
1759941811496,1043482944,8207,1,-0.929931640625,-0.40386962890625,-0.20391845703125
1759941811496,1043482944,8207,2,-0.92919921875,-0.40875244140625,-0.18536376953125
1759941811496,1043482944,8207,3,-0.935546875,-0.39703369140625,-0.21075439453125
1759941811496,1043482944,8207,4,-0.932861328125,-0.40167236328125,-0.20635986328125
1759941811496,1043482944,8207,5,-0.928955078125,-0.40289306640625,-0.20025634765625
1759941811496,1043482944,8207,6,-0.93115234375,-0.40411376953125,-0.20904541015625
1759941811496,1043482944,8207,7,-0.92626953125,-0.40679931640625,-0.20367431640625
1759941811496,1043482944,8207,8,-0.92822265625,-0.40509033203125,-0.20855712890625
1759941811496,1043482944,8207,9,-0.93115234375,-0.40606689453125,-0.20416259765625
1759941811496,1043482944,8207,10,-0.931396484375,-0.40435791015625,-0.19317626953125
1759941811496,1043482944,8207,11,-0.925537109375,-0.40704345703125,-0.20147705078125
1759941811496,1043482944,8207,12,-0.93115234375,-0.40875244140625,-0.19805908203125
1759941811496,1043482944,8207,13,-0.929931640625,-0.40606689453125,-0.19537353515625
1759941811496,1043482944,8207,14,-0.931884765625,-0.40484619140625,-0.20294189453125
1759941811496,1043482944,8207,15,-0.931884765625,-0.40850830078125,-0.20025634765625
1759941811496,1043482944,8207,16,-0.927490234375,-0.41021728515625,-0.20513916015625
1759941811496,1043482944,8207,17,-0.930908203125,-0.40899658203125,-0.19781494140625
1759941811496,1043482944,8207,18,-0.927978515625,-0.40704345703125,-0.19805908203125
1759941811496,1043482944,8207,19,-0.930908203125,-0.40704345703125,-0.19244384765625
1759941811496,1043482944,8207,20,-0.931884765625,-0.41168212890625,-0.19586181640625
1759941811496,1043482944,8207,21,-0.9296875,-0.40679931640625,-0.19488525390625
1759941811496,1043482944,8207,22,-0.931884765625,-0.40802001953125,-0.19464111328125
1759941811496,1043482944,8207,23,-0.93017578125,-0.40582275390625,-0.19561767578125
1759941811496,1043482944,8207,24,-0.929931640625,-0.40899658203125,-0.19927978515625
1759941811496,1043482944,8207,25,-0.93212890625,-0.40484619140625,-0.19879150390625
1759941811496,1043482944,8207,26,-0.929931640625,-0.40753173828125,-0.19586181640625
1759941811496,1043482944,8207,27,-0.931884765625,-0.40753173828125,-0.19415283203125
1759941811496,1043482944,8207,28,-0.927734375,-0.41094970703125,-0.19708251953125
1759941811496,1043482944,8207,29,-0.928466796875,-0.40728759765625,-0.19610595703125
1759941811496,1043482944,8207,30,-0.927734375,-0.40338134765625,-0.19537353515625
1759941811496,1043482944,8207,31,-0.92919921875,-0.40606689453125,-0.20416259765625
1759941814049,1043485517,8208,0,-0.937255859375,-0.40313720703125,-0.20318603515625
1759941814049,1043485517,8208,1,-0.927001953125,-0.39849853515625,-0.20074462890625
1759941814049,1043485517,8208,2,-0.927490234375,-0.40167236328125,-0.21051025390625
1759941814049,1043485517,8208,3,-0.9326171875,-0.39581298828125,-0.22735595703125
1759941814049,1043485517,8208,4,-0.9287109375,-0.40167236328125,-0.21417236328125
1759941814049,1043485517,8208,5,-0.92333984375,-0.40216064453125,-0.20977783203125
1759941814049,1043485517,8208,6,-0.9326171875,-0.40142822265625,-0.21002197265625
1759941814049,1043485517,8208,7,-0.930419921875,-0.40191650390625,-0.20318603515625
1759941814049,1043485517,8208,8,-0.9267578125,-0.40289306640625,-0.20635986328125
1759941814049,1043485517,8208,9,-0.93017578125,-0.40728759765625,-0.20709228515625
1759941814049,1043485517,8208,10,-0.932373046875,-0.40509033203125,-0.20025634765625
1759941814049,1043485517,8208,11,-0.92529296875,-0.40753173828125,-0.21124267578125
1759941814049,1043485517,8208,12,-0.9345703125,-0.40216064453125,-0.20343017578125
1759941814049,1043485517,8208,13,-0.9267578125,-0.40069580078125,-0.20294189453125
1759941814049,1043485517,8208,14,-0.928955078125,-0.40875244140625,-0.21490478515625
1759941814049,1043485517,8208,15,-0.938720703125,-0.39434814453125,-0.21734619140625
1759941814049,1043485517,8208,16,-0.93017578125,-0.39678955078125,-0.20880126953125
1759941814049,1043485517,8208,17,-0.925537109375,-0.40167236328125,-0.20391845703125
1759941814049,1043485517,8208,18,-0.932861328125,-0.40582275390625,-0.20318603515625
1759941814049,1043485517,8208,19,-0.927734375,-0.39410400390625,-0.21026611328125
1759941814049,1043485517,8208,20,-0.9306640625,-0.40240478515625,-0.20391845703125
1759941814049,1043485517,8208,21,-0.933349609375,-0.40728759765625,-0.20416259765625
1759941814049,1043485517,8208,22,-0.93115234375,-0.40118408203125,-0.19512939453125
1759941814049,1043485517,8208,23,-0.93017578125,-0.40167236328125,-0.20196533203125
1759941814049,1043485517,8208,24,-0.9326171875,-0.40777587890625,-0.20318603515625
1759941814049,1043485517,8208,25,-0.928955078125,-0.40264892578125,-0.19805908203125
1759941814049,1043485517,8208,26,-0.927001953125,-0.40753173828125,-0.20172119140625
1759941814049,1043485517,8208,27,-0.930908203125,-0.40802001953125,-0.20025634765625
1759941814049,1043485517,8208,28,-0.930419921875,-0.40435791015625,-0.19854736328125
1759941814049,1043485517,8208,29,-0.9326171875,-0.40679931640625,-0.19781494140625
1759941814049,1043485517,8208,30,-0.933837890625,-0.40509033203125,-0.19879150390625
1759941814049,1043485517,8208,31,-0.93310546875,-0.40411376953125,-0.19732666015625
1759941816594,1043488090,8209,0,-0.930908203125,-0.40509033203125,-0.19879150390625
1759941816594,1043488090,8209,1,-0.92724609375,-0.40631103515625,-0.19561767578125
1759941816594,1043488090,8209,2,-0.932373046875,-0.40264892578125,-0.19561767578125
1759941816594,1043488090,8209,3,-0.931884765625,-0.40191650390625,-0.19464111328125
1759941816594,1043488090,8209,4,-0.92529296875,-0.40875244140625,-0.20513916015625
1759941816594,1043488090,8209,5,-0.9365234375,-0.40338134765625,-0.21148681640625
1759941816594,1043488090,8209,6,-0.9287109375,-0.40386962890625,-0.18389892578125
1759941816594,1043488090,8209,7,-0.920654296875,-0.40240478515625,-0.20294189453125
1759941816594,1043488090,8209,8,-0.937744140625,-0.40386962890625,-0.20196533203125
1759941816594,1043488090,8209,9,-0.9306640625,-0.39923095703125,-0.19732666015625
1759941816594,1043488090,8209,10,-0.928955078125,-0.40191650390625,-0.19854736328125
1759941816594,1043488090,8209,11,-0.9306640625,-0.40557861328125,-0.19903564453125
1759941816594,1043488090,8209,12,-0.92919921875,-0.40802001953125,-0.19610595703125
1759941816594,1043488090,8209,13,-0.932861328125,-0.40093994140625,-0.19781494140625
1759941816594,1043488090,8209,14,-0.93408203125,-0.40313720703125,-0.19854736328125
1759941816594,1043488090,8209,15,-0.929443359375,-0.40679931640625,-0.19732666015625
1759941816594,1043488090,8209,16,-0.927734375,-0.40679931640625,-0.19512939453125
1759941816594,1043488090,8209,17,-0.930419921875,-0.40435791015625,-0.19512939453125
1759941816594,1043488090,8209,18,-0.9326171875,-0.40631103515625,-0.19635009765625
1759941816594,1043488090,8209,19,-0.931640625,-0.40728759765625,-0.19879150390625
1759941816594,1043488090,8209,20,-0.93115234375,-0.40460205078125,-0.19708251953125
1759941816594,1043488090,8209,21,-0.931640625,-0.40460205078125,-0.19390869140625
1759941816594,1043488090,8209,22,-0.932373046875,-0.40655517578125,-0.19952392578125
1759941816594,1043488090,8209,23,-0.93310546875,-0.40728759765625,-0.19537353515625
1759941816594,1043488090,8209,24,-0.93115234375,-0.40460205078125,-0.19464111328125
1759941816594,1043488090,8209,25,-0.9296875,-0.40411376953125,-0.19586181640625
1759941816594,1043488090,8209,26,-0.930908203125,-0.40655517578125,-0.19415283203125
1759941816594,1043488090,8209,27,-0.9306640625,-0.40435791015625,-0.19219970703125
1759941816594,1043488090,8209,28,-0.929443359375,-0.40460205078125,-0.19659423828125
1759941816594,1043488090,8209,29,-0.926513671875,-0.40533447265625,-0.19659423828125
1759941816594,1043488090,8209,30,-0.930419921875,-0.40728759765625,-0.20196533203125
1759941816594,1043488090,8209,31,-0.9326171875,-0.40362548828125,-0.20025634765625
1759941819291,1043490663,8210,0,-0.9296875,-0.40411376953125,-0.20294189453125
1759941819291,1043490663,8210,1,-0.929931640625,-0.40704345703125,-0.20050048828125
1759941819291,1043490663,8210,2,-0.927490234375,-0.40606689453125,-0.20489501953125
1759941819291,1043490663,8210,3,-0.930419921875,-0.40289306640625,-0.21441650390625
1759941819291,1043490663,8210,4,-0.937255859375,-0.40191650390625,-0.20684814453125
1759941819291,1043490663,8210,5,-0.92822265625,-0.40386962890625,-0.19488525390625
1759941819291,1043490663,8210,6,-0.92626953125,-0.40118408203125,-0.20269775390625
1759941819291,1043490663,8210,7,-0.9375,-0.40191650390625,-0.21099853515625
1759941819291,1043490663,8210,8,-0.933349609375,-0.39776611328125,-0.20953369140625
1759941819291,1043490663,8210,9,-0.92919921875,-0.40118408203125,-0.20489501953125
1759941819291,1043490663,8210,10,-0.927978515625,-0.40191650390625,-0.20611572265625
1759941819291,1043490663,8210,11,-0.9326171875,-0.40264892578125,-0.20343017578125
1759941819291,1043490663,8210,12,-0.93408203125,-0.39776611328125,-0.20367431640625
1759941819291,1043490663,8210,13,-0.92529296875,-0.40606689453125,-0.20269775390625
1759941819291,1043490663,8210,14,-0.930908203125,-0.40606689453125,-0.19927978515625
1759941819291,1043490663,8210,15,-0.932373046875,-0.40509033203125,-0.20318603515625
1759941819291,1043490663,8210,16,-0.931396484375,-0.40386962890625,-0.20416259765625
1759941819291,1043490663,8210,17,-0.932861328125,-0.40704345703125,-0.20172119140625
1759941819291,1043490663,8210,18,-0.9306640625,-0.40460205078125,-0.20440673828125
1759941819291,1043490663,8210,19,-0.932861328125,-0.40264892578125,-0.20318603515625
1759941819291,1043490663,8210,20,-0.932861328125,-0.40435791015625,-0.20343017578125
1759941819291,1043490663,8210,21,-0.92822265625,-0.40313720703125,-0.20367431640625
1759941819291,1043490663,8210,22,-0.92919921875,-0.40460205078125,-0.20660400390625
1759941819291,1043490663,8210,23,-0.931640625,-0.40240478515625,-0.20758056640625
1759941819291,1043490663,8210,24,-0.932373046875,-0.40338134765625,-0.20782470703125
1759941819291,1043490663,8210,25,-0.91796875,-0.40020751953125,-0.22857666015625
1759941819291,1043490663,8210,26,-0.948974609375,-0.39532470703125,-0.23175048828125
1759941819291,1043490663,8210,27,-0.9189453125,-0.38604736328125,-0.22027587890625
1759941819291,1043490663,8210,28,-0.91455078125,-0.39239501953125,-0.24053955078125
1759941819291,1043490663,8210,29,-0.9375,-0.39434814453125,-0.25006103515625
1759941819291,1043490663,8210,30,-0.9208984375,-0.39508056640625,-0.24517822265625
1759941819291,1043490663,8210,31,-0.923583984375,-0.38946533203125,-0.23858642578125
1759941821848,1043493236,8211,0,-0.928466796875,-0.39605712890625,-0.23541259765625
1759941821848,1043493236,8211,1,-0.929443359375,-0.39825439453125,-0.21905517578125
1759941821848,1043493236,8211,2,-0.9228515625,-0.39923095703125,-0.21099853515625
1759941821848,1043493236,8211,3,-0.93408203125,-0.40460205078125,-0.21905517578125
1759941821848,1043493236,8211,4,-0.93212890625,-0.40509033203125,-0.21563720703125
1759941821848,1043493236,8211,5,-0.912841796875,-0.40533447265625,-0.22515869140625
1759941821848,1043493236,8211,6,-0.948974609375,-0.39459228515625,-0.20709228515625
1759941821848,1043493236,8211,7,-0.921142578125,-0.40655517578125,-0.18682861328125
1759941821848,1043493236,8211,8,-0.92236328125,-0.40631103515625,-0.20220947265625
1759941821848,1043493236,8211,9,-0.93896484375,-0.39996337890625,-0.21636962890625
1759941821848,1043493236,8211,10,-0.9228515625,-0.40020751953125,-0.21905517578125
1759941821848,1043493236,8211,11,-0.9287109375,-0.40118408203125,-0.20758056640625
1759941821848,1043493236,8211,12,-0.929931640625,-0.40435791015625,-0.21417236328125
1759941821848,1043493236,8211,13,-0.9296875,-0.40216064453125,-0.19732666015625
1759941821848,1043493236,8211,14,-0.9287109375,-0.40484619140625,-0.21881103515625
1759941821848,1043493236,8211,15,-0.931396484375,-0.40289306640625,-0.21466064453125
1759941821848,1043493236,8211,16,-0.927978515625,-0.40338134765625,-0.20806884765625
1759941821848,1043493236,8211,17,-0.929443359375,-0.40386962890625,-0.20660400390625
1759941821848,1043493236,8211,18,-0.92529296875,-0.40557861328125,-0.21319580078125
1759941821848,1043493236,8211,19,-0.928955078125,-0.40557861328125,-0.20758056640625
1759941821848,1043493236,8211,20,-0.926513671875,-0.40484619140625,-0.21588134765625
1759941821848,1043493236,8211,21,-0.93017578125,-0.40191650390625,-0.21026611328125
1759941821848,1043493236,8211,22,-0.92919921875,-0.40582275390625,-0.21563720703125
1759941821848,1043493236,8211,23,-0.9287109375,-0.40557861328125,-0.21197509765625
1759941821848,1043493236,8211,24,-0.929931640625,-0.40533447265625,-0.20855712890625
1759941821848,1043493236,8211,25,-0.928466796875,-0.40118408203125,-0.21099853515625
1759941821848,1043493236,8211,26,-0.92919921875,-0.40264892578125,-0.21173095703125
1759941821848,1043493236,8211,27,-0.92529296875,-0.40557861328125,-0.21368408203125
1759941821848,1043493236,8211,28,-0.927978515625,-0.40338134765625,-0.21612548828125
1759941821848,1043493236,8211,29,-0.930419921875,-0.40069580078125,-0.20684814453125
1759941821848,1043493236,8211,30,-0.92724609375,-0.40606689453125,-0.21392822265625
1759941821848,1043493236,8211,31,-0.92822265625,-0.40362548828125,-0.22027587890625
1759941824397,1043495809,8212,0,-0.932373046875,-0.40167236328125,-0.21026611328125
1759941824397,1043495809,8212,1,-0.922607421875,-0.39215087890625,-0.21319580078125
1759941824397,1043495809,8212,2,-0.92041015625,-0.40118408203125,-0.22222900390625
1759941824397,1043495809,8212,3,-0.937255859375,-0.39923095703125,-0.21319580078125
1759941824397,1043495809,8212,4,-0.927001953125,-0.39752197265625,-0.22100830078125
1759941824397,1043495809,8212,5,-0.929931640625,-0.39898681640625,-0.21441650390625
1759941824397,1043495809,8212,6,-0.9267578125,-0.40435791015625,-0.21929931640625
1759941824397,1043495809,8212,7,-0.92919921875,-0.39483642578125,-0.21612548828125
1759941824397,1043495809,8212,8,-0.925048828125,-0.39971923828125,-0.22735595703125
1759941824397,1043495809,8212,9,-0.929443359375,-0.40484619140625,-0.20855712890625
1759941824397,1043495809,8212,10,-0.933349609375,-0.39898681640625,-0.21685791015625
1759941824397,1043495809,8212,11,-0.92724609375,-0.40045166015625,-0.21295166015625
1759941824397,1043495809,8212,12,-0.925537109375,-0.40216064453125,-0.21124267578125
1759941824397,1043495809,8212,13,-0.931884765625,-0.40362548828125,-0.21124267578125
1759941824397,1043495809,8212,14,-0.9287109375,-0.40020751953125,-0.21929931640625
1759941824397,1043495809,8212,15,-0.928466796875,-0.40118408203125,-0.21124267578125
1759941824397,1043495809,8212,16,-0.932373046875,-0.40118408203125,-0.21856689453125
1759941824397,1043495809,8212,17,-0.92919921875,-0.40045166015625,-0.21197509765625
1759941824397,1043495809,8212,18,-0.92529296875,-0.40142822265625,-0.20855712890625
1759941824397,1043495809,8212,19,-0.9296875,-0.40142822265625,-0.20684814453125
1759941824397,1043495809,8212,20,-0.93310546875,-0.40435791015625,-0.20831298828125
1759941824397,1043495809,8212,21,-0.92919921875,-0.40240478515625,-0.20538330078125
1759941824397,1043495809,8212,22,-0.927734375,-0.40386962890625,-0.20684814453125
1759941824397,1043495809,8212,23,-0.933349609375,-0.40142822265625,-0.21759033203125
1759941824397,1043495809,8212,24,-0.92919921875,-0.40142822265625,-0.21612548828125
1759941824397,1043495809,8212,25,-0.92724609375,-0.40093994140625,-0.21026611328125
1759941824397,1043495809,8212,26,-0.931396484375,-0.40093994140625,-0.21197509765625
1759941824397,1043495809,8212,27,-0.9287109375,-0.40289306640625,-0.21075439453125
1759941824397,1043495809,8212,28,-0.927978515625,-0.40435791015625,-0.20806884765625
1759941824397,1043495809,8212,29,-0.93310546875,-0.40216064453125,-0.21612548828125
1759941824397,1043495809,8212,30,-0.933837890625,-0.40362548828125,-0.22076416015625
1759941824397,1043495809,8212,31,-0.931884765625,-0.39703369140625,-0.20782470703125
1759941826943,1043498382,8213,0,-0.926025390625,-0.40045166015625,-0.21929931640625
1759941826943,1043498382,8213,1,-0.932861328125,-0.39825439453125,-0.21490478515625
1759941826943,1043498382,8213,2,-0.924560546875,-0.39923095703125,-0.21807861328125
1759941826943,1043498382,8213,3,-0.92529296875,-0.40045166015625,-0.21466064453125
1759941826943,1043498382,8213,4,-0.931396484375,-0.39947509765625,-0.21343994140625
1759941826943,1043498382,8213,5,-0.92724609375,-0.40020751953125,-0.20782470703125
1759941826943,1043498382,8213,6,-0.9267578125,-0.40045166015625,-0.21514892578125
1759941826943,1043498382,8213,7,-0.926513671875,-0.39947509765625,-0.21270751953125
1759941826943,1043498382,8213,8,-0.936279296875,-0.40289306640625,-0.21221923828125
1759941826943,1043498382,8213,9,-0.929931640625,-0.39825439453125,-0.21221923828125
1759941826943,1043498382,8213,10,-0.923828125,-0.40118408203125,-0.21343994140625
1759941826943,1043498382,8213,11,-0.930419921875,-0.40460205078125,-0.20904541015625
1759941826943,1043498382,8213,12,-0.928955078125,-0.40069580078125,-0.21368408203125
1759941826943,1043498382,8213,13,-0.927490234375,-0.39996337890625,-0.20977783203125
1759941826943,1043498382,8213,14,-0.929931640625,-0.40875244140625,-0.21392822265625
1759941826943,1043498382,8213,15,-0.932373046875,-0.40264892578125,-0.20489501953125
1759941826943,1043498382,8213,16,-0.924560546875,-0.40411376953125,-0.20489501953125
1759941826943,1043498382,8213,17,-0.932373046875,-0.40557861328125,-0.19610595703125
1759941826943,1043498382,8213,18,-0.931640625,-0.40631103515625,-0.20684814453125
1759941826943,1043498382,8213,19,-0.929443359375,-0.40216064453125,-0.20196533203125
1759941826943,1043498382,8213,20,-0.9296875,-0.40875244140625,-0.20196533203125
1759941826943,1043498382,8213,21,-0.931640625,-0.40557861328125,-0.20904541015625
1759941826943,1043498382,8213,22,-0.92919921875,-0.40289306640625,-0.20465087890625
1759941826943,1043498382,8213,23,-0.929443359375,-0.40411376953125,-0.20220947265625
1759941826943,1043498382,8213,24,-0.92724609375,-0.40972900390625,-0.20538330078125
1759941826943,1043498382,8213,25,-0.93359375,-0.40533447265625,-0.20196533203125
1759941826943,1043498382,8213,26,-0.927734375,-0.40777587890625,-0.20440673828125
1759941826943,1043498382,8213,27,-0.9306640625,-0.40460205078125,-0.20635986328125
1759941826943,1043498382,8213,28,-0.9296875,-0.40753173828125,-0.20343017578125
1759941826943,1043498382,8213,29,-0.9296875,-0.40728759765625,-0.20416259765625
1759941826943,1043498382,8213,30,-0.92822265625,-0.40802001953125,-0.20245361328125
1759941826943,1043498382,8213,31,-0.931396484375,-0.40679931640625,-0.20367431640625
1759941829500,1043500955,8214,0,-0.9306640625,-0.40655517578125,-0.20245361328125
1759941829500,1043500955,8214,1,-0.929443359375,-0.40679931640625,-0.20269775390625
1759941829500,1043500955,8214,2,-0.928955078125,-0.41070556640625,-0.20562744140625
1759941829500,1043500955,8214,3,-0.929443359375,-0.40582275390625,-0.20513916015625
1759941829500,1043500955,8214,4,-0.927734375,-0.40777587890625,-0.21173095703125
1759941829500,1043500955,8214,5,-0.937255859375,-0.40386962890625,-0.20587158203125
1759941829500,1043500955,8214,6,-0.92431640625,-0.39947509765625,-0.20147705078125
1759941829500,1043500955,8214,7,-0.9287109375,-0.40948486328125,-0.19439697265625
1759941829500,1043500955,8214,8,-0.93212890625,-0.40045166015625,-0.21197509765625
1759941829500,1043500955,8214,9,-0.931396484375,-0.40509033203125,-0.20220947265625
1759941829500,1043500955,8214,10,-0.92626953125,-0.40972900390625,-0.20220947265625
1759941829500,1043500955,8214,11,-0.93359375,-0.40704345703125,-0.20318603515625
1759941829500,1043500955,8214,12,-0.929931640625,-0.40606689453125,-0.20391845703125
1759941829500,1043500955,8214,13,-0.925048828125,-0.40655517578125,-0.19879150390625
1759941829500,1043500955,8214,14,-0.931396484375,-0.40997314453125,-0.20294189453125
1759941829500,1043500955,8214,15,-0.930419921875,-0.40631103515625,-0.20416259765625
1759941829500,1043500955,8214,16,-0.927490234375,-0.40582275390625,-0.20294189453125
1759941829500,1043500955,8214,17,-0.92724609375,-0.40753173828125,-0.20416259765625
1759941829500,1043500955,8214,18,-0.930419921875,-0.40484619140625,-0.20684814453125
1759941829500,1043500955,8214,19,-0.927978515625,-0.40484619140625,-0.19976806640625
1759941829500,1043500955,8214,20,-0.930419921875,-0.40045166015625,-0.21026611328125
1759941829500,1043500955,8214,21,-0.92822265625,-0.40948486328125,-0.20147705078125
1759941829500,1043500955,8214,22,-0.927978515625,-0.40240478515625,-0.20562744140625
1759941829500,1043500955,8214,23,-0.931884765625,-0.40411376953125,-0.20733642578125
1759941829500,1043500955,8214,24,-0.925048828125,-0.40069580078125,-0.20831298828125
1759941829500,1043500955,8214,25,-0.92822265625,-0.40362548828125,-0.21636962890625
1759941829500,1043500955,8214,26,-0.930908203125,-0.40020751953125,-0.21881103515625
1759941829500,1043500955,8214,27,-0.93310546875,-0.39996337890625,-0.21514892578125
1759941829500,1043500955,8214,28,-0.930419921875,-0.40191650390625,-0.20904541015625
1759941829500,1043500955,8214,29,-0.921630859375,-0.40313720703125,-0.21246337890625
1759941829500,1043500955,8214,30,-0.93505859375,-0.40142822265625,-0.20635986328125
1759941829500,1043500955,8214,31,-0.9228515625,-0.39727783203125,-0.20831298828125
