receivedPhoneTimestamp,respeckTimestamp,packetSeqNum,sampleSeqNum,accelX,accelY,accelZ
1759617756900,741405610,9110,20,-0.1630859375,-1.01519775390625,0.06268310546875
1759617756900,741405610,9110,21,-0.16357421875,-1.00958251953125,0.06341552734375
1759617756900,741405610,9110,22,-0.173828125,-1.01373291015625,0.07098388671875
1759617756900,741405610,9110,23,-0.161376953125,-1.01837158203125,0.06829833984375
1759617756900,741405610,9110,24,-0.134521484375,-1.02081298828125,0.05584716796875
1759617756900,741405610,9110,25,-0.1416015625,-1.02642822265625,0.04705810546875
1759617756900,741405610,9110,26,-0.178955078125,-1.01666259765625,0.03167724609375
1759617756900,741405610,9110,27,-0.196044921875,-1.00299072265625,0.04974365234375
1759617756900,741405610,9110,28,-0.14794921875,-1.01641845703125,0.03436279296875
1759617756900,741405610,9110,29,-0.203857421875,-1.00445556640625,0.01483154296875
1759617756900,741405610,9110,30,-0.195068359375,-1.00543212890625,0.01458740234375
1759617756900,741405610,9110,31,-0.177734375,-1.01519775390625,0.02630615234375
1759617759425,741408159,9111,0,-0.197998046875,-1.02496337890625,0.03363037109375
1759617759425,741408159,9111,1,-0.168212890625,-1.01641845703125,0.02777099609375
1759617759425,741408159,9111,2,-0.1943359375,-1.00469970703125,0.01922607421875
1759617759425,741408159,9111,3,-0.15234375,-1.01397705078125,0.01190185546875
1759617759425,741408159,9111,4,-0.1806640625,-1.01666259765625,0.01092529296875
1759617759425,741408159,9111,5,-0.19775390625,-1.01422119140625,0.01190185546875
1759617759425,741408159,9111,6,-0.2333984375,-1.00909423828125,0.01556396484375
1759617759425,741408159,9111,7,-0.1552734375,-1.02471923828125,0.02752685546875
1759617759425,741408159,9111,8,-0.16015625,-1.01885986328125,0.02532958984375
1759617759425,741408159,9111,9,-0.20263671875,-1.00958251953125,0.04144287109375
1759617759425,741408159,9111,10,-0.21533203125,-1.00543212890625,0.04534912109375
1759617759425,741408159,9111,11,-0.21630859375,-1.00518798828125,0.04949951171875
1759617759425,741408159,9111,12,-0.2099609375,-1.01007080078125,0.05780029296875
1759617759425,741408159,9111,13,-0.195556640625,-1.01763916015625,0.05828857421875
1759617759425,741408159,9111,14,-0.199462890625,-1.00347900390625,0.07806396484375
1759617759425,741408159,9111,15,-0.220458984375,-1.00225830078125,0.08905029296875
1759617759425,741408159,9111,16,-0.21826171875,-0.99761962890625,0.09002685546875
1759617759425,741408159,9111,17,-0.215576171875,-1.00079345703125,0.08197021484375
1759617759425,741408159,9111,18,-0.219482421875,-1.00177001953125,0.08563232421875
1759617759425,741408159,9111,19,-0.227783203125,-0.99444580078125,0.07513427734375
1759617759425,741408159,9111,20,-0.232421875,-0.99664306640625,0.07073974609375
1759617759425,741408159,9111,21,-0.22216796875,-0.99713134765625,0.06658935546875
1759617759425,741408159,9111,22,-0.215576171875,-1.00274658203125,0.06805419921875
1759617759425,741408159,9111,23,-0.1962890625,-1.01153564453125,0.08343505859375
1759617759425,741408159,9111,24,-0.2119140625,-1.00885009765625,0.08441162109375
1759617759425,741408159,9111,25,-0.21826171875,-1.00543212890625,0.08953857421875
1759617759425,741408159,9111,26,-0.239013671875,-0.99249267578125,0.07537841796875
1759617759425,741408159,9111,27,-0.22705078125,-0.99932861328125,0.09173583984375
1759617759425,741408159,9111,28,-0.230224609375,-1.01324462890625,0.09637451171875
1759617759425,741408159,9111,29,-0.208984375,-1.00640869140625,0.03143310546875
1759617759425,741408159,9111,30,-0.2255859375,-0.99176025390625,0.04071044921875
1759617759425,741408159,9111,31,-0.170654296875,-1.02325439453125,0.05560302734375
1759617761962,741410708,9112,0,-0.148193359375,-1.01593017578125,0.08172607421875
1759617761962,741410708,9112,1,-0.162109375,-1.01055908203125,0.07513427734375
1759617761962,741410708,9112,2,-0.185791015625,-1.00372314453125,0.08221435546875
1759617761962,741410708,9112,3,-0.1923828125,-1.01080322265625,0.07318115234375
1759617761962,741410708,9112,4,-0.216064453125,-0.99884033203125,0.06756591796875
1759617761962,741410708,9112,5,-0.1875,-1.00958251953125,0.10760498046875
1759617761962,741410708,9112,6,-0.212890625,-0.99786376953125,0.13861083984375
1759617761962,741410708,9112,7,-0.244873046875,-0.98297119140625,0.13079833984375
1759617761962,741410708,9112,8,-0.26220703125,-0.97564697265625,0.12445068359375
1759617761962,741410708,9112,9,-0.29248046875,-0.98370361328125,0.11297607421875
1759617761962,741410708,9112,10,-0.310302734375,-0.99102783203125,0.10760498046875
1759617761962,741410708,9112,11,-0.32275390625,-0.98223876953125,0.11102294921875
1759617761962,741410708,9112,12,-0.27099609375,-0.97930908203125,0.11077880859375
1759617761962,741410708,9112,13,-0.291748046875,-0.96514892578125,0.12713623046875
1759617761962,741410708,9112,14,-0.3349609375,-0.94952392578125,0.16864013671875
1759617761962,741410708,9112,15,-0.350341796875,-0.94586181640625,0.22601318359375
1759617761962,741410708,9112,16,-0.31787109375,-0.94122314453125,0.22186279296875
1759617761962,741410708,9112,17,-0.314697265625,-0.95489501953125,0.21502685546875
1759617761962,741410708,9112,18,-0.326171875,-0.93316650390625,0.19085693359375
1759617761962,741410708,9112,19,-0.291259765625,-0.98028564453125,0.19403076171875
1759617761962,741410708,9112,20,-0.33203125,-0.97955322265625,0.12713623046875
1759617761962,741410708,9112,21,-0.290283203125,-0.94659423828125,0.13543701171875
1759617761962,741410708,9112,22,-0.31396484375,-0.96124267578125,0.10003662109375
1759617761962,741410708,9112,23,-0.353271484375,-0.98565673828125,0.13299560546875
1759617761962,741410708,9112,24,-0.3564453125,-0.94903564453125,0.11883544921875
1759617761962,741410708,9112,25,-0.322021484375,-0.98101806640625,0.09490966796875
1759617761962,741410708,9112,26,-0.281982421875,-0.97320556640625,0.08953857421875
1759617761962,741410708,9112,27,-0.275634765625,-0.99053955078125,0.08197021484375
1759617761962,741410708,9112,28,-0.333984375,-0.94366455078125,0.08367919921875
1759617761962,741410708,9112,29,-0.335205078125,-0.98809814453125,0.09442138671875
1759617761962,741410708,9112,30,-0.3671875,-0.96490478515625,0.09271240234375
1759617761962,741410708,9112,31,-0.3623046875,-0.96588134765625,0.07220458984375
1759617764696,741413257,9113,0,-0.34033203125,-0.96759033203125,0.10150146484375
1759617764696,741413257,9113,1,-0.328125,-0.97149658203125,0.11566162109375
1759617764696,741413257,9113,2,-0.33935546875,-0.96881103515625,0.11175537109375
1759617764696,741413257,9113,3,-0.352294921875,-0.96466064453125,0.10223388671875
1759617764696,741413257,9113,4,-0.350341796875,-0.96636962890625,0.10760498046875
1759617764696,741413257,9113,5,-0.34423828125,-0.96051025390625,0.11590576171875
1759617764696,741413257,9113,6,-0.34423828125,-0.96051025390625,0.10101318359375
1759617764696,741413257,9113,7,-0.326171875,-0.97076416015625,0.10614013671875
1759617764696,741413257,9113,8,-0.333984375,-0.96124267578125,0.12078857421875
1759617764696,741413257,9113,9,-0.337646484375,-0.95709228515625,0.13470458984375
1759617764696,741413257,9113,10,-0.32763671875,-0.96612548828125,0.13421630859375
1759617764696,741413257,9113,11,-0.328857421875,-0.96466064453125,0.12860107421875
1759617764696,741413257,9113,12,-0.341552734375,-0.96441650390625,0.12176513671875
1759617764696,741413257,9113,13,-0.344482421875,-0.96124267578125,0.11785888671875
1759617764696,741413257,9113,14,-0.34375,-0.96221923828125,0.11370849609375
1759617764696,741413257,9113,15,-0.3359375,-0.96221923828125,0.13153076171875
1759617764696,741413257,9113,16,-0.3388671875,-0.96124267578125,0.12860107421875
1759617764696,741413257,9113,17,-0.3271484375,-0.95953369140625,0.12762451171875
1759617764696,741413257,9113,18,-0.3203125,-0.96588134765625,0.12933349609375
1759617764696,741413257,9113,19,-0.32958984375,-0.96612548828125,0.13348388671875
1759617764696,741413257,9113,20,-0.32080078125,-0.96661376953125,0.13641357421875
1759617764696,741413257,9113,21,-0.322265625,-0.96710205078125,0.12493896484375
1759617764696,741413257,9113,22,-0.328857421875,-0.96588134765625,0.12786865234375
1759617764696,741413257,9113,23,-0.32177734375,-0.96246337890625,0.13592529296875
1759617764696,741413257,9113,24,-0.3193359375,-0.96417236328125,0.14251708984375
1759617764696,741413257,9113,25,-0.319091796875,-0.96563720703125,0.13958740234375
1759617764696,741413257,9113,26,-0.32080078125,-0.96759033203125,0.13446044921875
1759617764696,741413257,9113,27,-0.319580078125,-0.96612548828125,0.13836669921875
1759617764696,741413257,9113,28,-0.318115234375,-0.96246337890625,0.14471435546875
1759617764696,741413257,9113,29,-0.324951171875,-0.96588134765625,0.14910888671875
1759617764696,741413257,9113,30,-0.330810546875,-0.96148681640625,0.14788818359375
1759617764696,741413257,9113,31,-0.3349609375,-0.96392822265625,0.14886474609375
1759617767032,741415806,9114,0,-0.33203125,-0.96490478515625,0.14031982421875
1759617767032,741415806,9114,1,-0.3271484375,-0.96343994140625,0.13714599609375
1759617767032,741415806,9114,2,-0.33154296875,-0.96563720703125,0.13031005859375
1759617767032,741415806,9114,3,-0.3388671875,-0.96490478515625,0.11639404296875
1759617767032,741415806,9114,4,-0.337890625,-0.96246337890625,0.11224365234375
1759617767032,741415806,9114,5,-0.339599609375,-0.96563720703125,0.10125732421875
1759617767032,741415806,9114,6,-0.335693359375,-0.96612548828125,0.10101318359375
1759617767032,741415806,9114,7,-0.341552734375,-0.93927001953125,0.10247802734375
1759617767032,741415806,9114,8,-0.357421875,-0.98052978515625,0.11395263671875
1759617767032,741415806,9114,9,-0.308837890625,-0.98297119140625,0.10906982421875
1759617767032,741415806,9114,10,-0.300537109375,-0.97125244140625,0.07220458984375
1759617767032,741415806,9114,11,-0.304443359375,-0.97589111328125,0.06707763671875
1759617767032,741415806,9114,12,-0.29833984375,-0.97515869140625,0.12298583984375
1759617767032,741415806,9114,13,-0.333251953125,-0.96978759765625,0.12176513671875
1759617767032,741415806,9114,14,-0.3291015625,-0.96685791015625,0.10565185546875
1759617767032,741415806,9114,15,-0.313720703125,-0.97296142578125,0.08636474609375
1759617767032,741415806,9114,16,-0.28564453125,-0.97808837890625,0.05633544921875
1759617767032,741415806,9114,17,-0.284912109375,-0.99981689453125,0.06488037109375
1759617767032,741415806,9114,18,-0.31591796875,-0.97540283203125,0.07489013671875
1759617767032,741415806,9114,19,-0.295166015625,-0.97784423828125,0.09173583984375
1759617767032,741415806,9114,20,-0.30322265625,-0.97125244140625,0.08416748046875
1759617767032,741415806,9114,21,-0.3017578125,-0.98980712890625,0.08709716796875
1759617767032,741415806,9114,22,-0.30810546875,-0.97052001953125,0.10784912109375
1759617767032,741415806,9114,23,-0.34130859375,-0.97540283203125,0.14764404296875
1759617767032,741415806,9114,24,-0.299072265625,-0.98101806640625,0.12615966796875
1759617767032,741415806,9114,25,-0.2998046875,-0.98272705078125,0.09930419921875
1759617767032,741415806,9114,26,-0.336669921875,-0.96612548828125,0.07855224609375
1759617767032,741415806,9114,27,-0.3515625,-0.96148681640625,0.08489990234375
1759617767032,741415806,9114,28,-0.301025390625,-0.97320556640625,0.05438232421875
1759617767032,741415806,9114,29,-0.331787109375,-0.97979736328125,0.05657958984375
1759617767032,741415806,9114,30,-0.30078125,-0.99102783203125,0.05487060546875
1759617767032,741415806,9114,31,-0.293212890625,-0.97442626953125,0.05584716796875
1759617769571,741418355,9115,0,-0.29150390625,-0.98516845703125,0.07635498046875
1759617769571,741418355,9115,1,-0.27734375,-0.98834228515625,0.06658935546875
1759617769571,741418355,9115,2,-0.27587890625,-0.98468017578125,0.05584716796875
1759617769571,741418355,9115,3,-0.30029296875,-0.98394775390625,0.05853271484375
1759617769571,741418355,9115,4,-0.30908203125,-0.98321533203125,0.05780029296875
1759617769571,741418355,9115,5,-0.30517578125,-0.98101806640625,0.04949951171875
1759617769571,741418355,9115,6,-0.29541015625,-0.99053955078125,0.04412841796875
1759617769571,741418355,9115,7,-0.300537109375,-0.98150634765625,0.06756591796875
1759617769571,741418355,9115,8,-0.296630859375,-0.98150634765625,0.08172607421875
1759617769571,741418355,9115,9,-0.291015625,-0.98199462890625,0.07733154296875
1759617769571,741418355,9115,10,-0.29638671875,-0.98150634765625,0.07659912109375
1759617769571,741418355,9115,11,-0.29833984375,-0.97955322265625,0.07684326171875
1759617769571,741418355,9115,12,-0.298828125,-0.98077392578125,0.07733154296875
1759617769571,741418355,9115,13,-0.297607421875,-0.97979736328125,0.07318115234375
1759617769571,741418355,9115,14,-0.29345703125,-0.98272705078125,0.08074951171875
1759617769571,741418355,9115,15,-0.28955078125,-0.98370361328125,0.08392333984375
1759617769571,741418355,9115,16,-0.295654296875,-0.98199462890625,0.06854248046875
1759617769571,741418355,9115,17,-0.299072265625,-0.97930908203125,0.08392333984375
1759617769571,741418355,9115,18,-0.296630859375,-0.98199462890625,0.08734130859375
1759617769571,741418355,9115,19,-0.300048828125,-0.98394775390625,0.09124755859375
1759617769571,741418355,9115,20,-0.303466796875,-0.97711181640625,0.10125732421875
1759617769571,741418355,9115,21,-0.309814453125,-0.97393798828125,0.12054443359375
1759617769571,741418355,9115,22,-0.301025390625,-0.97149658203125,0.11834716796875
1759617769571,741418355,9115,23,-0.300537109375,-0.97467041015625,0.12420654296875
1759617769571,741418355,9115,24,-0.298095703125,-0.97589111328125,0.12469482421875
1759617769571,741418355,9115,25,-0.29931640625,-0.97393798828125,0.12762451171875
1759617769571,741418355,9115,26,-0.302734375,-0.97198486328125,0.12689208984375
1759617769571,741418355,9115,27,-0.306640625,-0.97564697265625,0.12176513671875
1759617769571,741418355,9115,28,-0.307373046875,-0.97149658203125,0.13031005859375
1759617769571,741418355,9115,29,-0.2998046875,-0.97076416015625,0.13397216796875
1759617769571,741418355,9115,30,-0.296142578125,-0.97369384765625,0.13128662109375
1759617769571,741418355,9115,31,-0.29345703125,-0.97393798828125,0.14007568359375
1759617772109,741420904,9116,0,-0.299072265625,-0.97320556640625,0.13543701171875
1759617772109,741420904,9116,1,-0.298828125,-0.97344970703125,0.13665771484375
1759617772109,741420904,9116,2,-0.297607421875,-0.97222900390625,0.13397216796875
1759617772109,741420904,9116,3,-0.301513671875,-0.97589111328125,0.13104248046875
1759617772109,741420904,9116,4,-0.303955078125,-0.97637939453125,0.13128662109375
1759617772109,741420904,9116,5,-0.306396484375,-0.97369384765625,0.12005615234375
1759617772109,741420904,9116,6,-0.3115234375,-0.97393798828125,0.10516357421875
1759617772109,741420904,9116,7,-0.309814453125,-0.97222900390625,0.10784912109375
1759617772109,741420904,9116,8,-0.312255859375,-0.97174072265625,0.11492919921875
1759617772109,741420904,9116,9,-0.3125,-0.97271728515625,0.11419677734375
1759617772109,741420904,9116,10,-0.308349609375,-0.97320556640625,0.11468505859375
1759617772109,741420904,9116,11,-0.30615234375,-0.97369384765625,0.12200927734375
1759617772109,741420904,9116,12,-0.3046875,-0.97027587890625,0.12274169921875
1759617772109,741420904,9116,13,-0.31005859375,-0.97271728515625,0.13153076171875
1759617772109,741420904,9116,14,-0.310546875,-0.97320556640625,0.12005615234375
1759617772109,741420904,9116,15,-0.306884765625,-0.97100830078125,0.12689208984375
1759617772109,741420904,9116,16,-0.3046875,-0.97296142578125,0.12542724609375
1759617772109,741420904,9116,17,-0.307373046875,-0.96856689453125,0.14031982421875
1759617772109,741420904,9116,18,-0.302978515625,-0.97149658203125,0.13201904296875
1759617772109,741420904,9116,19,-0.300537109375,-0.97052001953125,0.13006591796875
1759617772109,741420904,9116,20,-0.299072265625,-0.97027587890625,0.12957763671875
1759617772109,741420904,9116,21,-0.298095703125,-0.97393798828125,0.13104248046875
1759617772109,741420904,9116,22,-0.29736328125,-0.97418212890625,0.13446044921875
1759617772109,741420904,9116,23,-0.298095703125,-0.97125244140625,0.13104248046875
1759617772109,741420904,9116,24,-0.30126953125,-0.97711181640625,0.12274169921875
1759617772109,741420904,9116,25,-0.2978515625,-0.97320556640625,0.12689208984375
1759617772109,741420904,9116,26,-0.290283203125,-0.97442626953125,0.13421630859375
1759617772109,741420904,9116,27,-0.2958984375,-0.97003173828125,0.13470458984375
1759617772109,741420904,9116,28,-0.290283203125,-0.97686767578125,0.13787841796875
1759617772109,741420904,9116,29,-0.2861328125,-0.97320556640625,0.13592529296875
1759617772109,741420904,9116,30,-0.290771484375,-0.97637939453125,0.13934326171875
1759617772109,741420904,9116,31,-0.2841796875,-0.97247314453125,0.13763427734375
1759617774641,741423453,9117,0,-0.282958984375,-0.97589111328125,0.13323974609375
1759617774641,741423453,9117,1,-0.28564453125,-0.97589111328125,0.13983154296875
1759617774641,741423453,9117,2,-0.28125,-0.98248291015625,0.14324951171875
1759617774641,741423453,9117,3,-0.287109375,-0.97320556640625,0.13372802734375
1759617774641,741423453,9117,4,-0.28076171875,-0.97149658203125,0.14324951171875
1759617774641,741423453,9117,5,-0.283447265625,-0.97833251953125,0.15301513671875
1759617774641,741423453,9117,6,-0.284912109375,-0.97247314453125,0.15740966796875
1759617774641,741423453,9117,7,-0.289306640625,-0.97174072265625,0.15228271484375
1759617774641,741423453,9117,8,-0.2822265625,-0.97418212890625,0.15081787109375
1759617774641,741423453,9117,9,-0.2919921875,-0.97442626953125,0.15374755859375
1759617774641,741423453,9117,10,-0.301025390625,-0.96588134765625,0.15179443359375
1759617774641,741423453,9117,11,-0.306396484375,-0.96929931640625,0.15423583984375
1759617774641,741423453,9117,12,-0.306640625,-0.96905517578125,0.14300537109375
1759617774641,741423453,9117,13,-0.313232421875,-0.97100830078125,0.12933349609375
1759617774641,741423453,9117,14,-0.31005859375,-0.96905517578125,0.12664794921875
1759617774641,741423453,9117,15,-0.3125,-0.97344970703125,0.12469482421875
1759617774641,741423453,9117,16,-0.317626953125,-0.96856689453125,0.11541748046875
1759617774641,741423453,9117,17,-0.3154296875,-0.96954345703125,0.10784912109375
1759617774641,741423453,9117,18,-0.3115234375,-0.97247314453125,0.09320068359375
1759617774641,741423453,9117,19,-0.31298828125,-0.97344970703125,0.10052490234375
1759617774641,741423453,9117,20,-0.320556640625,-0.97467041015625,0.11004638671875
1759617774641,741423453,9117,21,-0.317626953125,-0.97247314453125,0.10882568359375
1759617774641,741423453,9117,22,-0.310791015625,-0.97442626953125,0.11053466796875
1759617774641,741423453,9117,23,-0.31689453125,-0.97247314453125,0.10931396484375
1759617774641,741423453,9117,24,-0.31884765625,-0.97198486328125,0.10882568359375
1759617774641,741423453,9117,25,-0.31396484375,-0.97442626953125,0.11322021484375
1759617774641,741423453,9117,26,-0.3134765625,-0.97344970703125,0.11663818359375
1759617774641,741423453,9117,27,-0.314697265625,-0.97149658203125,0.11273193359375
1759617774641,741423453,9117,28,-0.3134765625,-0.97149658203125,0.11224365234375
1759617774641,741423453,9117,29,-0.3125,-0.97393798828125,0.10711669921875
1759617774641,741423453,9117,30,-0.312744140625,-0.97467041015625,0.11492919921875
1759617774641,741423453,9117,31,-0.312255859375,-0.96978759765625,0.12005615234375
1759617777179,741426002,9118,0,-0.308837890625,-0.97369384765625,0.11932373046875
1759617777179,741426002,9118,1,-0.306640625,-0.97613525390625,0.11932373046875
1759617777179,741426002,9118,2,-0.31298828125,-0.97418212890625,0.11419677734375
1759617777179,741426002,9118,3,-0.311279296875,-0.97076416015625,0.11444091796875
1759617777179,741426002,9118,4,-0.309814453125,-0.97515869140625,0.12078857421875
1759617777179,741426002,9118,5,-0.30712890625,-0.97027587890625,0.12811279296875
1759617777179,741426002,9118,6,-0.303466796875,-0.97418212890625,0.13055419921875
1759617777179,741426002,9118,7,-0.303466796875,-0.97003173828125,0.14007568359375
1759617777179,741426002,9118,8,-0.3056640625,-0.97149658203125,0.13323974609375
1759617777179,741426002,9118,9,-0.30224609375,-0.97125244140625,0.14276123046875
1759617777179,741426002,9118,10,-0.299072265625,-0.97418212890625,0.13616943359375
1759617777179,741426002,9118,11,-0.298583984375,-0.97247314453125,0.13958740234375
1759617777179,741426002,9118,12,-0.303955078125,-0.96734619140625,0.14691162109375
1759617777179,741426002,9118,13,-0.298095703125,-0.97467041015625,0.13641357421875
1759617777179,741426002,9118,14,-0.29638671875,-0.97344970703125,0.13861083984375
1759617777179,741426002,9118,15,-0.296875,-0.97027587890625,0.13958740234375
1759617777179,741426002,9118,16,-0.295166015625,-0.97467041015625,0.14544677734375
1759617777179,741426002,9118,17,-0.296875,-0.97222900390625,0.14398193359375
1759617777179,741426002,9118,18,-0.29345703125,-0.97344970703125,0.14324951171875
1759617777179,741426002,9118,19,-0.292236328125,-0.96978759765625,0.14202880859375
1759617777179,741426002,9118,20,-0.295166015625,-0.97174072265625,0.14739990234375
1759617777179,741426002,9118,21,-0.29638671875,-0.97174072265625,0.15008544921875
1759617777179,741426002,9118,22,-0.300048828125,-0.97174072265625,0.14129638671875
1759617777179,741426002,9118,23,-0.29638671875,-0.97393798828125,0.14324951171875
1759617777179,741426002,9118,24,-0.303955078125,-0.96856689453125,0.14227294921875
1759617777179,741426002,9118,25,-0.306396484375,-0.97320556640625,0.13055419921875
1759617777179,741426002,9118,26,-0.295166015625,-0.97222900390625,0.12640380859375
1759617777179,741426002,9118,27,-0.306640625,-0.97540283203125,0.12591552734375
1759617777179,741426002,9118,28,-0.303955078125,-0.97515869140625,0.12298583984375
1759617777179,741426002,9118,29,-0.307861328125,-0.97393798828125,0.10272216796875
1759617777179,741426002,9118,30,-0.304931640625,-0.96881103515625,0.09906005859375
1759617777179,741426002,9118,31,-0.310546875,-0.97637939453125,0.10443115234375
1759617779713,741428551,9119,0,-0.309326171875,-0.97174072265625,0.10931396484375
1759617779713,741428551,9119,1,-0.311279296875,-0.97100830078125,0.11273193359375
1759617779713,741428551,9119,2,-0.308837890625,-0.97857666015625,0.11395263671875
1759617779713,741428551,9119,3,-0.3076171875,-0.97393798828125,0.11419677734375
1759617779713,741428551,9119,4,-0.304931640625,-0.97442626953125,0.11663818359375
1759617779713,741428551,9119,5,-0.306884765625,-0.97149658203125,0.11663818359375
1759617779713,741428551,9119,6,-0.302001953125,-0.97589111328125,0.11761474609375
1759617779713,741428551,9119,7,-0.302490234375,-0.97735595703125,0.11468505859375
1759617779713,741428551,9119,8,-0.30322265625,-0.97174072265625,0.12322998046875
1759617779713,741428551,9119,9,-0.300537109375,-0.97369384765625,0.12274169921875
1759617779713,741428551,9119,10,-0.302490234375,-0.97467041015625,0.12664794921875
1759617779713,741428551,9119,11,-0.301513671875,-0.97198486328125,0.12225341796875
1759617779713,741428551,9119,12,-0.2998046875,-0.97711181640625,0.12713623046875
1759617779713,741428551,9119,13,-0.296630859375,-0.97222900390625,0.12396240234375
1759617779713,741428551,9119,14,-0.297607421875,-0.97393798828125,0.12835693359375
1759617779713,741428551,9119,15,-0.302001953125,-0.97052001953125,0.13665771484375
1759617779713,741428551,9119,16,-0.298095703125,-0.97149658203125,0.13323974609375
1759617779713,741428551,9119,17,-0.295166015625,-0.97393798828125,0.13201904296875
1759617779713,741428551,9119,18,-0.297119140625,-0.97442626953125,0.13128662109375
1759617779713,741428551,9119,19,-0.296875,-0.97247314453125,0.13739013671875
1759617779713,741428551,9119,20,-0.29443359375,-0.97344970703125,0.13714599609375
1759617779713,741428551,9119,21,-0.29150390625,-0.97613525390625,0.13885498046875
1759617779713,741428551,9119,22,-0.293701171875,-0.97198486328125,0.14471435546875
1759617779713,741428551,9119,23,-0.299072265625,-0.97271728515625,0.13665771484375
1759617779713,741428551,9119,24,-0.297607421875,-0.97857666015625,0.12884521484375
1759617779713,741428551,9119,25,-0.29052734375,-0.96807861328125,0.15496826171875
1759617779713,741428551,9119,26,-0.31640625,-0.97003173828125,0.15325927734375
1759617779713,741428551,9119,27,-0.309326171875,-0.96832275390625,0.14788818359375
1759617779713,741428551,9119,28,-0.302490234375,-0.96759033203125,0.13568115234375
1759617779713,741428551,9119,29,-0.310546875,-0.97491455078125,0.13006591796875
1759617779713,741428551,9119,30,-0.31640625,-0.96514892578125,0.13201904296875
1759617779713,741428551,9119,31,-0.3173828125,-0.97149658203125,0.12420654296875
1759617782251,741431094,9120,0,-0.31494140625,-0.96832275390625,0.11199951171875
1759617782251,741431094,9120,1,-0.3134765625,-0.96905517578125,0.09027099609375
1759617782251,741431094,9120,2,-0.314208984375,-0.96856689453125,0.09149169921875
1759617782251,741431094,9120,3,-0.322021484375,-0.97369384765625,0.10272216796875
1759617782251,741431094,9120,4,-0.318115234375,-0.97222900390625,0.11126708984375
1759617782251,741431094,9120,5,-0.31689453125,-0.97198486328125,0.10638427734375
1759617782251,741431094,9120,6,-0.317626953125,-0.97515869140625,0.09954833984375
1759617782251,741431094,9120,7,-0.31298828125,-0.97003173828125,0.11151123046875
1759617782251,741431094,9120,8,-0.314208984375,-0.97125244140625,0.10882568359375
1759617782251,741431094,9120,9,-0.31494140625,-0.97491455078125,0.11175537109375
1759617782251,741431094,9120,10,-0.3125,-0.97491455078125,0.10491943359375
1759617782251,741431094,9120,11,-0.3134765625,-0.97467041015625,0.11151123046875
1759617782251,741431094,9120,12,-0.311767578125,-0.97174072265625,0.11126708984375
1759617782251,741431094,9120,13,-0.31298828125,-0.97369384765625,0.11102294921875
1759617782251,741431094,9120,14,-0.31005859375,-0.97222900390625,0.11053466796875
1759617782251,741431094,9120,15,-0.31103515625,-0.97540283203125,0.10614013671875
1759617782251,741431094,9120,16,-0.309814453125,-0.97271728515625,0.11322021484375
1759617782251,741431094,9120,17,-0.309814453125,-0.97540283203125,0.12274169921875
1759617782251,741431094,9120,18,-0.306640625,-0.97296142578125,0.12518310546875
1759617782251,741431094,9120,19,-0.314208984375,-0.96978759765625,0.11956787109375
1759617782251,741431094,9120,20,-0.317626953125,-0.96759033203125,0.12078857421875
1759617782251,741431094,9120,21,-0.3056640625,-0.97003173828125,0.12518310546875
1759617782251,741431094,9120,22,-0.302490234375,-0.97369384765625,0.13031005859375
1759617782251,741431094,9120,23,-0.304443359375,-0.97296142578125,0.13055419921875
1759617782251,741431094,9120,24,-0.308837890625,-0.97174072265625,0.12591552734375
1759617782251,741431094,9120,25,-0.30615234375,-0.96954345703125,0.13641357421875
1759617782251,741431094,9120,26,-0.305908203125,-0.97491455078125,0.13494873046875
1759617782251,741431094,9120,27,-0.298583984375,-0.97100830078125,0.12396240234375
1759617782251,741431094,9120,28,-0.303955078125,-0.97003173828125,0.12884521484375
1759617782251,741431094,9120,29,-0.2978515625,-0.97125244140625,0.14056396484375
1759617782251,741431094,9120,30,-0.294189453125,-0.97320556640625,0.14105224609375
1759617782251,741431094,9120,31,-0.3017578125,-0.97222900390625,0.12811279296875
1759617784981,741433644,9121,0,-0.3037109375,-0.97393798828125,0.12908935546875
1759617784981,741433644,9121,1,-0.29736328125,-0.97320556640625,0.13226318359375
1759617784981,741433644,9121,2,-0.2958984375,-0.97857666015625,0.13690185546875
1759617784981,741433644,9121,3,-0.293701171875,-0.97052001953125,0.14178466796875
1759617784981,741433644,9121,4,-0.2939453125,-0.97344970703125,0.13690185546875
1759617784981,741433644,9121,5,-0.292236328125,-0.97296142578125,0.13739013671875
1759617784981,741433644,9121,6,-0.291259765625,-0.97320556640625,0.13250732421875
1759617784981,741433644,9121,7,-0.293701171875,-0.97418212890625,0.13446044921875
1759617784981,741433644,9121,8,-0.2880859375,-0.97515869140625,0.13250732421875
1759617784981,741433644,9121,9,-0.288818359375,-0.97686767578125,0.13055419921875
1759617784981,741433644,9121,10,-0.287109375,-0.97418212890625,0.14056396484375
1759617784981,741433644,9121,11,-0.280029296875,-0.97491455078125,0.13739013671875
1759617784981,741433644,9121,12,-0.282958984375,-0.97735595703125,0.13470458984375
1759617784981,741433644,9121,13,-0.285888671875,-0.97418212890625,0.13983154296875
1759617784981,741433644,9121,14,-0.28564453125,-0.97564697265625,0.13861083984375
1759617784981,741433644,9121,15,-0.2841796875,-0.97467041015625,0.13323974609375
1759617784981,741433644,9121,16,-0.28076171875,-0.97760009765625,0.13983154296875
1759617784981,741433644,9121,17,-0.277587890625,-0.97882080078125,0.13592529296875
1759617784981,741433644,9121,18,-0.27587890625,-0.97808837890625,0.13983154296875
1759617784981,741433644,9121,19,-0.27294921875,-0.97906494140625,0.13543701171875
1759617784981,741433644,9121,20,-0.271728515625,-0.97930908203125,0.14251708984375
1759617784981,741433644,9121,21,-0.26416015625,-0.97955322265625,0.13494873046875
1759617784981,741433644,9121,22,-0.271484375,-0.98004150390625,0.13763427734375
1759617784981,741433644,9121,23,-0.271728515625,-0.97540283203125,0.12957763671875
1759617784981,741433644,9121,24,-0.2724609375,-0.97955322265625,0.13568115234375
1759617784981,741433644,9121,25,-0.274658203125,-0.98028564453125,0.13397216796875
1759617784981,741433644,9121,26,-0.26953125,-0.97906494140625,0.14154052734375
1759617784981,741433644,9121,27,-0.263916015625,-0.98272705078125,0.14886474609375
1759617784981,741433644,9121,28,-0.271728515625,-0.97662353515625,0.14764404296875
1759617784981,741433644,9121,29,-0.286865234375,-0.97271728515625,0.15716552734375
1759617784981,741433644,9121,30,-0.291748046875,-0.96466064453125,0.17108154296875
1759617784981,741433644,9121,31,-0.302734375,-0.96710205078125,0.18011474609375
1759617787515,741436193,9122,0,-0.30029296875,-0.96221923828125,0.18865966796875
