receivedPhoneTimestamp,respeckTimestamp,packetSeqNum,sampleSeqNum,accelX,accelY,accelZ
1760206043860,1408691251,19341,9,0.208984375,0.19378662109375,-0.96978759765625
1760206043860,1408691251,19341,10,0.209716796875,0.19525146484375,-0.96685791015625
1760206043860,1408691251,19341,11,0.211181640625,0.19573974609375,-0.96636962890625
1760206043860,1408691251,19341,12,0.209716796875,0.19549560546875,-0.96783447265625
1760206043860,1408691251,19341,13,0.206298828125,0.19940185546875,-0.96002197265625
1760206043860,1408691251,19341,14,0.20947265625,0.20330810546875,-0.97198486328125
1760206043860,1408691251,19341,15,0.206298828125,0.19818115234375,-0.96759033203125
1760206043860,1408691251,19341,16,0.207763671875,0.20159912109375,-0.96978759765625
1760206043860,1408691251,19341,17,0.2080078125,0.20037841796875,-0.96612548828125
1760206043860,1408691251,19341,18,0.210205078125,0.19891357421875,-0.96710205078125
1760206043860,1408691251,19341,19,0.208740234375,0.19940185546875,-0.96905517578125
1760206043860,1408691251,19341,20,0.204833984375,0.20062255859375,-0.96221923828125
1760206043860,1408691251,19341,21,0.206298828125,0.20159912109375,-0.96856689453125
1760206043860,1408691251,19341,22,0.20458984375,0.20013427734375,-0.96783447265625
1760206043860,1408691251,19341,23,0.201416015625,0.20184326171875,-0.97174072265625
1760206043860,1408691251,19341,24,0.19921875,0.20379638671875,-0.97125244140625
1760206043860,1408691251,19341,25,0.200927734375,0.20306396484375,-0.96514892578125
1760206043860,1408691251,19341,26,0.199951171875,0.20623779296875,-0.96905517578125
1760206043860,1408691251,19341,27,0.200927734375,0.20062255859375,-0.96832275390625
1760206043860,1408691251,19341,28,0.199951171875,0.20086669921875,-0.96612548828125
1760206043860,1408691251,19341,29,0.200927734375,0.20111083984375,-0.97076416015625
1760206043860,1408691251,19341,30,0.198486328125,0.20306396484375,-0.96832275390625
1760206043860,1408691251,19341,31,0.200439453125,0.20281982421875,-0.96929931640625
1760206046383,1408693824,19342,0,0.201904296875,0.20208740234375,-0.96881103515625
1760206046383,1408693824,19342,1,0.200439453125,0.20111083984375,-0.97149658203125
1760206046383,1408693824,19342,2,0.20068359375,0.19964599609375,-0.96832275390625
1760206046383,1408693824,19342,3,0.205810546875,0.20184326171875,-0.97052001953125
1760206046383,1408693824,19342,4,0.206787109375,0.19964599609375,-0.96929931640625
1760206046383,1408693824,19342,5,0.210693359375,0.19964599609375,-0.96588134765625
1760206046383,1408693824,19342,6,0.21484375,0.20037841796875,-0.96881103515625
1760206046383,1408693824,19342,7,0.215087890625,0.19964599609375,-0.96636962890625
1760206046383,1408693824,19342,8,0.2119140625,0.19915771484375,-0.97027587890625
1760206046383,1408693824,19342,9,0.21533203125,0.19989013671875,-0.96612548828125
1760206046383,1408693824,19342,10,0.2119140625,0.19940185546875,-0.96710205078125
1760206046383,1408693824,19342,11,0.212646484375,0.19818115234375,-0.96661376953125
1760206046383,1408693824,19342,12,0.2099609375,0.19940185546875,-0.96685791015625
1760206046383,1408693824,19342,13,0.210205078125,0.19940185546875,-0.96612548828125
1760206046383,1408693824,19342,14,0.205322265625,0.20037841796875,-0.96905517578125
1760206046383,1408693824,19342,15,0.208740234375,0.19989013671875,-0.96954345703125
1760206046383,1408693824,19342,16,0.206787109375,0.20135498046875,-0.96563720703125
1760206046383,1408693824,19342,17,0.20556640625,0.20135498046875,-0.96514892578125
1760206046383,1408693824,19342,18,0.207275390625,0.20257568359375,-0.96832275390625
1760206046383,1408693824,19342,19,0.205322265625,0.20013427734375,-0.96661376953125
1760206046383,1408693824,19342,20,0.203369140625,0.20233154296875,-0.96905517578125
1760206046383,1408693824,19342,21,0.203125,0.20281982421875,-0.97149658203125
1760206046383,1408693824,19342,22,0.203857421875,0.20208740234375,-0.96881103515625
1760206046383,1408693824,19342,23,0.205078125,0.20233154296875,-0.97174072265625
1760206046383,1408693824,19342,24,0.197021484375,0.20281982421875,-0.96734619140625
1760206046383,1408693824,19342,25,0.20068359375,0.20111083984375,-0.96881103515625
1760206046383,1408693824,19342,26,0.199462890625,0.20379638671875,-0.97052001953125
1760206046383,1408693824,19342,27,0.198486328125,0.20233154296875,-0.96929931640625
1760206046383,1408693824,19342,28,0.20166015625,0.20159912109375,-0.96881103515625
1760206046383,1408693824,19342,29,0.197998046875,0.20233154296875,-0.97003173828125
1760206046383,1408693824,19342,30,0.197021484375,0.20257568359375,-0.96929931640625
1760206046383,1408693824,19342,31,0.19873046875,0.20184326171875,-0.96661376953125
1760206048902,1408696397,19343,0,0.1982421875,0.20135498046875,-0.96905517578125
1760206048902,1408696397,19343,1,0.19873046875,0.20257568359375,-0.96832275390625
1760206048902,1408696397,19343,2,0.204833984375,0.20306396484375,-0.97003173828125
1760206048902,1408696397,19343,3,0.207763671875,0.19915771484375,-0.96514892578125
1760206048902,1408696397,19343,4,0.211181640625,0.20013427734375,-0.96612548828125
1760206048902,1408696397,19343,5,0.212646484375,0.20013427734375,-0.96710205078125
1760206048902,1408696397,19343,6,0.209716796875,0.20013427734375,-0.96466064453125
1760206048902,1408696397,19343,7,0.208984375,0.20037841796875,-0.96832275390625
1760206048902,1408696397,19343,8,0.20947265625,0.20257568359375,-0.96636962890625
1760206048902,1408696397,19343,9,0.2080078125,0.20159912109375,-0.96710205078125
1760206048902,1408696397,19343,10,0.20458984375,0.20111083984375,-0.96710205078125
1760206048902,1408696397,19343,11,0.205322265625,0.20062255859375,-0.97027587890625
1760206048902,1408696397,19343,12,0.205078125,0.20184326171875,-0.96636962890625
1760206048902,1408696397,19343,13,0.20458984375,0.20062255859375,-0.96856689453125
1760206048902,1408696397,19343,14,0.203369140625,0.19989013671875,-0.96734619140625
1760206048902,1408696397,19343,15,0.202392578125,0.20330810546875,-0.96856689453125
1760206048902,1408696397,19343,16,0.201904296875,0.20281982421875,-0.96905517578125
1760206048902,1408696397,19343,17,0.201171875,0.20208740234375,-0.96807861328125
1760206048902,1408696397,19343,18,0.202392578125,0.20037841796875,-0.96612548828125
1760206048902,1408696397,19343,19,0.201171875,0.20184326171875,-0.97027587890625
1760206048902,1408696397,19343,20,0.20361328125,0.20257568359375,-0.97052001953125
1760206048902,1408696397,19343,21,0.203369140625,0.20135498046875,-0.96954345703125
1760206048902,1408696397,19343,22,0.199951171875,0.20379638671875,-0.96759033203125
1760206048902,1408696397,19343,23,0.198486328125,0.20330810546875,-0.96856689453125
1760206048902,1408696397,19343,24,0.19775390625,0.20623779296875,-0.96783447265625
1760206048902,1408696397,19343,25,0.20068359375,0.20672607421875,-0.97003173828125
1760206048902,1408696397,19343,26,0.19873046875,0.20672607421875,-0.97174072265625
1760206048902,1408696397,19343,27,0.19775390625,0.20574951171875,-0.96929931640625
1760206048902,1408696397,19343,28,0.197021484375,0.20794677734375,-0.96710205078125
1760206048902,1408696397,19343,29,0.1982421875,0.20721435546875,-0.96856689453125
1760206048902,1408696397,19343,30,0.197265625,0.20721435546875,-0.96856689453125
1760206048902,1408696397,19343,31,0.19921875,0.20672607421875,-0.96685791015625
1760206051783,1408698970,19344,0,0.203125,0.20550537109375,-0.96978759765625
1760206051783,1408698970,19344,1,0.20654296875,0.20404052734375,-0.96759033203125
1760206051783,1408698970,19344,2,0.20654296875,0.20233154296875,-0.97027587890625
1760206051783,1408698970,19344,3,0.20703125,0.20233154296875,-0.97052001953125
1760206051783,1408698970,19344,4,0.20703125,0.20379638671875,-0.96710205078125
1760206051783,1408698970,19344,5,0.204833984375,0.20159912109375,-0.96563720703125
1760206051783,1408698970,19344,6,0.203369140625,0.20159912109375,-0.96734619140625
1760206051783,1408698970,19344,7,0.204833984375,0.19915771484375,-0.96881103515625
1760206051783,1408698970,19344,8,0.203857421875,0.20355224609375,-0.96929931640625
1760206051783,1408698970,19344,9,0.202880859375,0.20208740234375,-0.96539306640625
1760206051783,1408698970,19344,10,0.20361328125,0.20233154296875,-0.97174072265625
1760206051783,1408698970,19344,11,0.203125,0.20281982421875,-0.96685791015625
1760206051783,1408698970,19344,12,0.201171875,0.20452880859375,-0.97149658203125
1760206051783,1408698970,19344,13,0.19921875,0.20281982421875,-0.96783447265625
1760206051783,1408698970,19344,14,0.201904296875,0.20159912109375,-0.97393798828125
1760206051783,1408698970,19344,15,0.197021484375,0.20281982421875,-0.96856689453125
1760206051783,1408698970,19344,16,0.199951171875,0.20306396484375,-0.96905517578125
1760206051783,1408698970,19344,17,0.198974609375,0.20135498046875,-0.97125244140625
1760206051783,1408698970,19344,18,0.19873046875,0.20257568359375,-0.96807861328125
1760206051783,1408698970,19344,19,0.197998046875,0.20257568359375,-0.96929931640625
1760206051783,1408698970,19344,20,0.2001953125,0.20404052734375,-0.96832275390625
1760206051783,1408698970,19344,21,0.199951171875,0.20574951171875,-0.96759033203125
1760206051783,1408698970,19344,22,0.197021484375,0.20330810546875,-0.96563720703125
1760206051783,1408698970,19344,23,0.19580078125,0.20330810546875,-0.96807861328125
1760206051783,1408698970,19344,24,0.197998046875,0.20306396484375,-0.96978759765625
1760206051783,1408698970,19344,25,0.196044921875,0.20257568359375,-0.97052001953125
1760206051783,1408698970,19344,26,0.19873046875,0.20452880859375,-0.96759033203125
1760206051783,1408698970,19344,27,0.196044921875,0.20697021484375,-0.97149658203125
1760206051783,1408698970,19344,28,0.19580078125,0.20428466796875,-0.96685791015625
1760206051783,1408698970,19344,29,0.199951171875,0.20355224609375,-0.97027587890625
1760206051783,1408698970,19344,30,0.197021484375,0.20404052734375,-0.96807861328125
1760206051783,1408698970,19344,31,0.196533203125,0.20574951171875,-0.96783447265625
1760206054292,1408701543,19345,0,0.197509765625,0.20428466796875,-0.97052001953125
1760206054292,1408701543,19345,1,0.194580078125,0.20477294921875,-0.97027587890625
1760206054292,1408701543,19345,2,0.196044921875,0.20330810546875,-0.96929931640625
1760206054292,1408701543,19345,3,0.1962890625,0.20574951171875,-0.96636962890625
1760206054292,1408701543,19345,4,0.2001953125,0.20355224609375,-0.96881103515625
1760206054292,1408701543,19345,5,0.2001953125,0.20697021484375,-0.96368408203125
1760206054292,1408701543,19345,6,0.19873046875,0.20428466796875,-0.96954345703125
1760206054292,1408701543,19345,7,0.200927734375,0.20501708984375,-0.97003173828125
1760206054292,1408701543,19345,8,0.2021484375,0.20404052734375,-0.97198486328125
1760206054292,1408701543,19345,9,0.20458984375,0.20281982421875,-0.96661376953125
1760206054292,1408701543,19345,10,0.205078125,0.20330810546875,-0.96759033203125
1760206054292,1408701543,19345,11,0.204833984375,0.20355224609375,-0.96734619140625
1760206054292,1408701543,19345,12,0.203125,0.20477294921875,-0.96929931640625
1760206054292,1408701543,19345,13,0.204345703125,0.20306396484375,-0.96905517578125
1760206054292,1408701543,19345,14,0.201171875,0.20355224609375,-0.96929931640625
1760206054292,1408701543,19345,15,0.199462890625,0.20697021484375,-0.96881103515625
1760206054292,1408701543,19345,16,0.1982421875,0.20623779296875,-0.96929931640625
1760206054292,1408701543,19345,17,0.19970703125,0.20501708984375,-0.96929931640625
1760206054292,1408701543,19345,18,0.20361328125,0.20501708984375,-0.96710205078125
1760206054292,1408701543,19345,19,0.205810546875,0.20477294921875,-0.96710205078125
1760206054292,1408701543,19345,20,0.21142578125,0.20281982421875,-0.97125244140625
1760206054292,1408701543,19345,21,0.2138671875,0.20208740234375,-0.96636962890625
1760206054292,1408701543,19345,22,0.21533203125,0.20037841796875,-0.96783447265625
1760206054292,1408701543,19345,23,0.214111328125,0.20013427734375,-0.96343994140625
1760206054292,1408701543,19345,24,0.214599609375,0.20159912109375,-0.96319580078125
1760206054292,1408701543,19345,25,0.21240234375,0.20135498046875,-0.96710205078125
1760206054292,1408701543,19345,26,0.2138671875,0.20111083984375,-0.96612548828125
1760206054292,1408701543,19345,27,0.2099609375,0.20330810546875,-0.96270751953125
1760206054292,1408701543,19345,28,0.20849609375,0.20184326171875,-0.96563720703125
1760206054292,1408701543,19345,29,0.208740234375,0.20379638671875,-0.96905517578125
1760206054292,1408701543,19345,30,0.209716796875,0.20208740234375,-0.96783447265625
1760206054292,1408701543,19345,31,0.208740234375,0.20159912109375,-0.96832275390625
1760206056632,1408704116,19346,0,0.20751953125,0.20135498046875,-0.96783447265625
1760206056632,1408704116,19346,1,0.2060546875,0.20208740234375,-0.97100830078125
1760206056632,1408704116,19346,2,0.203857421875,0.20135498046875,-0.96612548828125
1760206056632,1408704116,19346,3,0.20361328125,0.20208740234375,-0.96783447265625
1760206056632,1408704116,19346,4,0.200927734375,0.20379638671875,-0.96905517578125
1760206056632,1408704116,19346,5,0.200927734375,0.20501708984375,-0.97003173828125
1760206056632,1408704116,19346,6,0.2001953125,0.20452880859375,-0.96588134765625
1760206056632,1408704116,19346,7,0.204833984375,0.20452880859375,-0.96856689453125
1760206056632,1408704116,19346,8,0.201171875,0.20306396484375,-0.96759033203125
1760206056632,1408704116,19346,9,0.198974609375,0.20574951171875,-0.97076416015625
1760206056632,1408704116,19346,10,0.201171875,0.20379638671875,-0.96856689453125
1760206056632,1408704116,19346,11,0.197021484375,0.20404052734375,-0.96881103515625
1760206056632,1408704116,19346,12,0.196044921875,0.20404052734375,-0.96661376953125
1760206056632,1408704116,19346,13,0.199951171875,0.20404052734375,-0.96881103515625
1760206056632,1408704116,19346,14,0.198486328125,0.20477294921875,-0.97052001953125
1760206056632,1408704116,19346,15,0.2060546875,0.20477294921875,-0.96832275390625
1760206056632,1408704116,19346,16,0.208984375,0.20208740234375,-0.96392822265625
1760206056632,1408704116,19346,17,0.210693359375,0.19964599609375,-0.96685791015625
1760206056632,1408704116,19346,18,0.212646484375,0.20037841796875,-0.96734619140625
1760206056632,1408704116,19346,19,0.21044921875,0.20037841796875,-0.96636962890625
1760206056632,1408704116,19346,20,0.207763671875,0.20135498046875,-0.96514892578125
1760206056632,1408704116,19346,21,0.208984375,0.20233154296875,-0.96856689453125
1760206056632,1408704116,19346,22,0.207275390625,0.20086669921875,-0.96759033203125
1760206056632,1408704116,19346,23,0.208740234375,0.20281982421875,-0.96929931640625
1760206056632,1408704116,19346,24,0.207763671875,0.20111083984375,-0.96588134765625
1760206056632,1408704116,19346,25,0.206787109375,0.20135498046875,-0.96905517578125
1760206056632,1408704116,19346,26,0.20703125,0.20037841796875,-0.96856689453125
1760206056632,1408704116,19346,27,0.2041015625,0.20233154296875,-0.96710205078125
1760206056632,1408704116,19346,28,0.2021484375,0.20257568359375,-0.96929931640625
1760206056632,1408704116,19346,29,0.201416015625,0.20379638671875,-0.97003173828125
1760206056632,1408704116,19346,30,0.205322265625,0.20208740234375,-0.96734619140625
1760206056632,1408704116,19346,31,0.201904296875,0.20184326171875,-0.96734619140625
1760206059163,1408706689,19347,0,0.203857421875,0.20281982421875,-0.96832275390625
1760206059163,1408706689,19347,1,0.199951171875,0.20428466796875,-0.96807861328125
1760206059163,1408706689,19347,2,0.200927734375,0.20355224609375,-0.97052001953125
1760206059163,1408706689,19347,3,0.198486328125,0.20257568359375,-0.96832275390625
1760206059163,1408706689,19347,4,0.19873046875,0.20281982421875,-0.96710205078125
1760206059163,1408706689,19347,5,0.196533203125,0.20404052734375,-0.97052001953125
1760206059163,1408706689,19347,6,0.197509765625,0.20208740234375,-0.96881103515625
1760206059163,1408706689,19347,7,0.196044921875,0.20428466796875,-0.96685791015625
1760206059163,1408706689,19347,8,0.19580078125,0.20208740234375,-0.97076416015625
1760206059163,1408706689,19347,9,0.197998046875,0.20477294921875,-0.97222900390625
1760206059163,1408706689,19347,10,0.19482421875,0.20086669921875,-0.96978759765625
1760206059163,1408706689,19347,11,0.196533203125,0.20526123046875,-0.97003173828125
1760206059163,1408706689,19347,12,0.19580078125,0.20501708984375,-0.97271728515625
1760206059163,1408706689,19347,13,0.19580078125,0.20306396484375,-0.96954345703125
1760206059163,1408706689,19347,14,0.195068359375,0.20477294921875,-0.96905517578125
1760206059163,1408706689,19347,15,0.1953125,0.20526123046875,-0.97174072265625
1760206059163,1408706689,19347,16,0.1953125,0.20599365234375,-0.96661376953125
1760206059163,1408706689,19347,17,0.1962890625,0.20330810546875,-0.96588134765625
1760206059163,1408706689,19347,18,0.197509765625,0.20477294921875,-0.96807861328125
1760206059163,1408706689,19347,19,0.197998046875,0.20501708984375,-0.96905517578125
1760206059163,1408706689,19347,20,0.201904296875,0.20379638671875,-0.96588134765625
1760206059163,1408706689,19347,21,0.20556640625,0.20159912109375,-0.97027587890625
1760206059163,1408706689,19347,22,0.208984375,0.20257568359375,-0.96685791015625
1760206059163,1408706689,19347,23,0.20751953125,0.20159912109375,-0.97027587890625
1760206059163,1408706689,19347,24,0.20703125,0.20281982421875,-0.96636962890625
1760206059163,1408706689,19347,25,0.205078125,0.20355224609375,-0.96417236328125
1760206059163,1408706689,19347,26,0.203125,0.20452880859375,-0.96636962890625
1760206059163,1408706689,19347,27,0.203857421875,0.20184326171875,-0.96588134765625
1760206059163,1408706689,19347,28,0.203857421875,0.20111083984375,-0.96832275390625
1760206059163,1408706689,19347,29,0.2021484375,0.20257568359375,-0.96929931640625
1760206059163,1408706689,19347,30,0.200439453125,0.20281982421875,-0.96807861328125
1760206059163,1408706689,19347,31,0.197509765625,0.20281982421875,-0.96954345703125
1760206061863,1408709262,19348,0,0.19873046875,0.20501708984375,-0.96783447265625
1760206061863,1408709262,19348,1,0.19970703125,0.20233154296875,-0.96905517578125
1760206061863,1408709262,19348,2,0.197998046875,0.20452880859375,-0.97027587890625
1760206061863,1408709262,19348,3,0.19970703125,0.20208740234375,-0.97003173828125
1760206061863,1408709262,19348,4,0.197509765625,0.20111083984375,-0.96832275390625
1760206061863,1408709262,19348,5,0.197265625,0.20379638671875,-0.96759033203125
1760206061863,1408709262,19348,6,0.197998046875,0.20281982421875,-0.96783447265625
1760206061863,1408709262,19348,7,0.197509765625,0.20574951171875,-0.96783447265625
1760206061863,1408709262,19348,8,0.198486328125,0.20428466796875,-0.97052001953125
1760206061863,1408709262,19348,9,0.197998046875,0.20526123046875,-0.97125244140625
1760206061863,1408709262,19348,10,0.195556640625,0.20404052734375,-0.96978759765625
1760206061863,1408709262,19348,11,0.196044921875,0.20526123046875,-0.97222900390625
1760206061863,1408709262,19348,12,0.197021484375,0.20281982421875,-0.97344970703125
1760206061863,1408709262,19348,13,0.194091796875,0.20281982421875,-0.96856689453125
1760206061863,1408709262,19348,14,0.191162109375,0.20404052734375,-0.96759033203125
1760206061863,1408709262,19348,15,0.196044921875,0.20526123046875,-0.97027587890625
1760206061863,1408709262,19348,16,0.196044921875,0.20452880859375,-0.96929931640625
1760206061863,1408709262,19348,17,0.196533203125,0.20697021484375,-0.96978759765625
1760206061863,1408709262,19348,18,0.19482421875,0.20501708984375,-0.96832275390625
1760206061863,1408709262,19348,19,0.194580078125,0.20770263671875,-0.97076416015625
1760206061863,1408709262,19348,20,0.1953125,0.20867919921875,-0.96929931640625
1760206061863,1408709262,19348,21,0.19482421875,0.20745849609375,-0.96759033203125
1760206061863,1408709262,19348,22,0.1953125,0.20550537109375,-0.96807861328125
1760206061863,1408709262,19348,23,0.1943359375,0.20819091796875,-0.96881103515625
1760206061863,1408709262,19348,24,0.194580078125,0.20941162109375,-0.96807861328125
1760206061863,1408709262,19348,25,0.1943359375,0.20892333984375,-0.97076416015625
1760206061863,1408709262,19348,26,0.193115234375,0.20697021484375,-0.96588134765625
1760206061863,1408709262,19348,27,0.195068359375,0.20623779296875,-0.97003173828125
1760206061863,1408709262,19348,28,0.1953125,0.20672607421875,-0.97052001953125
1760206061863,1408709262,19348,29,0.195068359375,0.20672607421875,-0.97052001953125
1760206061863,1408709262,19348,30,0.196044921875,0.20941162109375,-0.96807861328125
1760206061863,1408709262,19348,31,0.19677734375,0.20745849609375,-0.97222900390625
1760206064380,1408711836,19349,0,0.2021484375,0.20819091796875,-0.96978759765625
1760206064380,1408711836,19349,1,0.2060546875,0.20477294921875,-0.96978759765625
1760206064380,1408711836,19349,2,0.20751953125,0.20550537109375,-0.96832275390625
1760206064380,1408711836,19349,3,0.208984375,0.20184326171875,-0.96734619140625
1760206064380,1408711836,19349,4,0.208740234375,0.20233154296875,-0.96832275390625
1760206064380,1408711836,19349,5,0.20849609375,0.20428466796875,-0.96612548828125
1760206064380,1408711836,19349,6,0.20458984375,0.20404052734375,-0.96661376953125
1760206064380,1408711836,19349,7,0.20556640625,0.20330810546875,-0.96759033203125
1760206064380,1408711836,19349,8,0.207763671875,0.20501708984375,-0.96490478515625
1760206064380,1408711836,19349,9,0.20947265625,0.20037841796875,-0.96051025390625
1760206064380,1408711836,19349,10,0.207275390625,0.20159912109375,-0.96881103515625
1760206064380,1408711836,19349,11,0.203125,0.20330810546875,-0.96612548828125
1760206064380,1408711836,19349,12,0.196044921875,0.20721435546875,-0.97491455078125
1760206064380,1408711836,19349,13,0.193603515625,0.20989990234375,-0.97149658203125
1760206064380,1408711836,19349,14,0.198486328125,0.20697021484375,-0.96710205078125
1760206064380,1408711836,19349,15,0.203125,0.20379638671875,-0.96514892578125
1760206064380,1408711836,19349,16,0.205322265625,0.20257568359375,-0.96783447265625
1760206064380,1408711836,19349,17,0.19921875,0.20135498046875,-0.96832275390625
1760206064380,1408711836,19349,18,0.199462890625,0.20623779296875,-0.96832275390625
1760206064380,1408711836,19349,19,0.198486328125,0.20550537109375,-0.96759033203125
1760206064380,1408711836,19349,20,0.200927734375,0.20550537109375,-0.96832275390625
1760206064380,1408711836,19349,21,0.1982421875,0.20574951171875,-0.96881103515625
1760206064380,1408711836,19349,22,0.1962890625,0.20599365234375,-0.96881103515625
1760206064380,1408711836,19349,23,0.1962890625,0.20697021484375,-0.96954345703125
1760206064380,1408711836,19349,24,0.195556640625,0.20404052734375,-0.96685791015625
1760206064380,1408711836,19349,25,0.195068359375,0.20623779296875,-0.97052001953125
1760206064380,1408711836,19349,26,0.197265625,0.20501708984375,-0.97076416015625
1760206064380,1408711836,19349,27,0.19580078125,0.20526123046875,-0.97003173828125
1760206064380,1408711836,19349,28,0.19482421875,0.20452880859375,-0.96734619140625
1760206064380,1408711836,19349,29,0.197998046875,0.20989990234375,-0.96954345703125
1760206064380,1408711836,19349,30,0.19775390625,0.20501708984375,-0.96783447265625
1760206064380,1408711836,19349,31,0.199462890625,0.20745849609375,-0.97100830078125
1760206066904,1408714409,19350,0,0.203857421875,0.20355224609375,-0.96905517578125
1760206066904,1408714409,19350,1,0.2060546875,0.20501708984375,-0.96929931640625
1760206066904,1408714409,19350,2,0.20654296875,0.20257568359375,-0.96881103515625
1760206066904,1408714409,19350,3,0.202392578125,0.20233154296875,-0.96832275390625
1760206066904,1408714409,19350,4,0.203369140625,0.20452880859375,-0.97052001953125
1760206066904,1408714409,19350,5,0.203369140625,0.20819091796875,-0.96734619140625
1760206066904,1408714409,19350,6,0.201416015625,0.20477294921875,-0.96734619140625
1760206066904,1408714409,19350,7,0.2001953125,0.20428466796875,-0.96563720703125
1760206066904,1408714409,19350,8,0.20166015625,0.20477294921875,-0.97076416015625
1760206066904,1408714409,19350,9,0.201416015625,0.20526123046875,-0.96807861328125
1760206066904,1408714409,19350,10,0.199462890625,0.20526123046875,-0.96539306640625
1760206066904,1408714409,19350,11,0.199951171875,0.20574951171875,-0.96661376953125
1760206066904,1408714409,19350,12,0.197265625,0.20623779296875,-0.96661376953125
1760206066904,1408714409,19350,13,0.1962890625,0.20550537109375,-0.96612548828125
1760206066904,1408714409,19350,14,0.19580078125,0.20355224609375,-0.96978759765625
1760206066904,1408714409,19350,15,0.195068359375,0.20745849609375,-0.97198486328125
1760206066904,1408714409,19350,16,0.197509765625,0.20550537109375,-0.97003173828125
1760206066904,1408714409,19350,17,0.19775390625,0.20697021484375,-0.97344970703125
1760206066904,1408714409,19350,18,0.197021484375,0.20526123046875,-0.97076416015625
1760206066904,1408714409,19350,19,0.19580078125,0.20330810546875,-0.97247314453125
1760206066904,1408714409,19350,20,0.193359375,0.20428466796875,-0.97027587890625
1760206066904,1408714409,19350,21,0.19580078125,0.20306396484375,-0.97027587890625
1760206066904,1408714409,19350,22,0.195556640625,0.20452880859375,-0.97052001953125
1760206066904,1408714409,19350,23,0.19482421875,0.20477294921875,-0.97003173828125
1760206066904,1408714409,19350,24,0.19384765625,0.20452880859375,-0.97052001953125
1760206066904,1408714409,19350,25,0.1943359375,0.20428466796875,-0.97149658203125
1760206066904,1408714409,19350,26,0.193359375,0.20697021484375,-0.97149658203125
1760206066904,1408714409,19350,27,0.194580078125,0.20574951171875,-0.97076416015625
1760206066904,1408714409,19350,28,0.192626953125,0.20526123046875,-0.97198486328125
1760206066904,1408714409,19350,29,0.193115234375,0.20526123046875,-0.96881103515625
1760206066904,1408714409,19350,30,0.195068359375,0.20526123046875,-0.97222900390625
1760206066904,1408714409,19350,31,0.192138671875,0.20477294921875,-0.97198486328125
1760206069603,1408716982,19351,0,0.193603515625,0.20428466796875,-0.96978759765625
1760206069603,1408716982,19351,1,0.193603515625,0.20623779296875,-0.96978759765625
1760206069603,1408716982,19351,2,0.1962890625,0.20526123046875,-0.96954345703125
1760206069603,1408716982,19351,3,0.199462890625,0.20697021484375,-0.96881103515625
1760206069603,1408716982,19351,4,0.199462890625,0.20526123046875,-0.96710205078125
1760206069603,1408716982,19351,5,0.203369140625,0.20623779296875,-0.96856689453125
1760206069603,1408716982,19351,6,0.203857421875,0.20233154296875,-0.96978759765625
1760206069603,1408716982,19351,7,0.203125,0.20208740234375,-0.96783447265625
1760206069603,1408716982,19351,8,0.2021484375,0.20379638671875,-0.96710205078125
1760206069603,1408716982,19351,9,0.198974609375,0.20599365234375,-0.96734619140625
1760206069603,1408716982,19351,10,0.198974609375,0.20672607421875,-0.96905517578125
1760206069603,1408716982,19351,11,0.19873046875,0.20306396484375,-0.96929931640625
1760206069603,1408716982,19351,12,0.199462890625,0.20599365234375,-0.96685791015625
1760206069603,1408716982,19351,13,0.198486328125,0.20477294921875,-0.97149658203125
1760206069603,1408716982,19351,14,0.1982421875,0.20428466796875,-0.96832275390625
1760206069603,1408716982,19351,15,0.1962890625,0.20550537109375,-0.97125244140625
1760206069603,1408716982,19351,16,0.1953125,0.20404052734375,-0.96954345703125
1760206069603,1408716982,19351,17,0.1943359375,0.20501708984375,-0.96954345703125
1760206069603,1408716982,19351,18,0.1943359375,0.20697021484375,-0.96905517578125
1760206069603,1408716982,19351,19,0.195556640625,0.20477294921875,-0.96978759765625
1760206069603,1408716982,19351,20,0.197265625,0.20599365234375,-0.96929931640625
1760206069603,1408716982,19351,21,0.196044921875,0.20404052734375,-0.96759033203125
1760206069603,1408716982,19351,22,0.195556640625,0.20574951171875,-0.97222900390625
1760206069603,1408716982,19351,23,0.193115234375,0.20623779296875,-0.97100830078125
1760206069603,1408716982,19351,24,0.19384765625,0.20330810546875,-0.97247314453125
1760206069603,1408716982,19351,25,0.1923828125,0.20355224609375,-0.96856689453125
1760206069603,1408716982,19351,26,0.194580078125,0.20404052734375,-0.96783447265625
1760206069603,1408716982,19351,27,0.1962890625,0.20648193359375,-0.97027587890625
1760206069603,1408716982,19351,28,0.19580078125,0.20574951171875,-0.96881103515625
1760206069603,1408716982,19351,29,0.19970703125,0.20355224609375,-0.96636962890625
1760206069603,1408716982,19351,30,0.2041015625,0.20428466796875,-0.96832275390625
1760206069603,1408716982,19351,31,0.204833984375,0.20306396484375,-0.96881103515625
1760206072121,1408719555,19352,0,0.2060546875,0.20477294921875,-0.96978759765625
1760206072121,1408719555,19352,1,0.20263671875,0.20452880859375,-0.96783447265625
1760206072121,1408719555,19352,2,0.20263671875,0.20428466796875,-0.96759033203125
1760206072121,1408719555,19352,3,0.19921875,0.20355224609375,-0.96710205078125
1760206072121,1408719555,19352,4,0.2001953125,0.20208740234375,-0.96954345703125
1760206072121,1408719555,19352,5,0.197998046875,0.20281982421875,-0.97100830078125
1760206072121,1408719555,19352,6,0.197265625,0.20526123046875,-0.96881103515625
1760206072121,1408719555,19352,7,0.1982421875,0.20721435546875,-0.96636962890625
1760206072121,1408719555,19352,8,0.197265625,0.20404052734375,-0.96759033203125
1760206072121,1408719555,19352,9,0.1982421875,0.20404052734375,-0.97247314453125
1760206072121,1408719555,19352,10,0.1962890625,0.20428466796875,-0.96563720703125
1760206072121,1408719555,19352,11,0.19677734375,0.20379638671875,-0.96856689453125
1760206072121,1408719555,19352,12,0.19482421875,0.20330810546875,-0.96856689453125
1760206072121,1408719555,19352,13,0.196044921875,0.20916748046875,-0.96368408203125
1760206072121,1408719555,19352,14,0.201416015625,0.20281982421875,-0.97515869140625
1760206072121,1408719555,19352,15,0.19580078125,0.20306396484375,-0.96807861328125
