receivedPhoneTimestamp,respeckTimestamp,packetSeqNum,sampleSeqNum,accelX,accelY,accelZ
1760201612941,1404265730,17621,0,-1.05322265625,-0.10870361328125,-0.08184814453125
1760201612941,1404265730,17621,1,-1.01806640625,-0.09356689453125,-0.07647705078125
1760201612941,1404265730,17621,2,-1.033447265625,-0.08233642578125,-0.05621337890625
1760201612941,1404265730,17621,3,-1.022705078125,-0.08575439453125,-0.06939697265625
1760201612941,1404265730,17621,4,-1.02880859375,-0.09478759765625,-0.06964111328125
1760201612941,1404265730,17621,5,-1.026611328125,-0.09136962890625,-0.06890869140625
1760201612941,1404265730,17621,6,-1.03076171875,-0.09454345703125,-0.06451416015625
1760201612941,1404265730,17621,7,-1.027587890625,-0.08917236328125,-0.06500244140625
1760201612941,1404265730,17621,8,-1.0283203125,-0.08795166015625,-0.06988525390625
1760201612941,1404265730,17621,9,-1.028076171875,-0.08917236328125,-0.06915283203125
1760201612941,1404265730,17621,10,-1.0244140625,-0.09405517578125,-0.06915283203125
1760201612941,1404265730,17621,11,-1.030517578125,-0.09307861328125,-0.06329345703125
1760201612941,1404265730,17621,12,-1.024169921875,-0.08868408203125,-0.06768798828125
1760201612941,1404265730,17621,13,-1.028564453125,-0.09454345703125,-0.07037353515625
1760201612941,1404265730,17621,14,-1.02685546875,-0.09088134765625,-0.06353759765625
1760201612941,1404265730,17621,15,-1.030029296875,-0.09210205078125,-0.06378173828125
1760201612941,1404265730,17621,16,-1.0234375,-0.09210205078125,-0.06622314453125
1760201612941,1404265730,17621,17,-1.0283203125,-0.09259033203125,-0.05865478515625
1760201612941,1404265730,17621,18,-1.026611328125,-0.08966064453125,-0.06329345703125
1760201612941,1404265730,17621,19,-1.028076171875,-0.08892822265625,-0.06231689453125
1760201612941,1404265730,17621,20,-1.03076171875,-0.09063720703125,-0.05767822265625
1760201612941,1404265730,17621,21,-1.026123046875,-0.09356689453125,-0.07061767578125
1760201612941,1404265730,17621,22,-1.025634765625,-0.09381103515625,-0.07403564453125
1760201612941,1404265730,17621,23,-1.030029296875,-0.08843994140625,-0.06671142578125
1760201612941,1404265730,17621,24,-1.026611328125,-0.08917236328125,-0.06353759765625
1760201612941,1404265730,17621,25,-1.041015625,-0.10113525390625,-0.06280517578125
1760201612941,1404265730,17621,26,-1.036376953125,-0.09332275390625,-0.05865478515625
1760201612941,1404265730,17621,27,-1.010009765625,-0.09063720703125,-0.06304931640625
1760201612941,1404265730,17621,28,-1.011962890625,-0.09527587890625,-0.06768798828125
1760201612941,1404265730,17621,29,-1.0361328125,-0.10943603515625,-0.08038330078125
1760201612941,1404265730,17621,30,-1.033203125,-0.10211181640625,-0.08599853515625
1760201612941,1404265730,17621,31,-1.02490234375,-0.09039306640625,-0.06231689453125
1760201615463,1404268304,17622,0,-1.025146484375,-0.09161376953125,-0.07501220703125
1760201615463,1404268304,17622,1,-1.02978515625,-0.09259033203125,-0.06158447265625
1760201615463,1404268304,17622,2,-1.025634765625,-0.10308837890625,-0.06524658203125
1760201615463,1404268304,17622,3,-1.026123046875,-0.10137939453125,-0.06573486328125
1760201615463,1404268304,17622,4,-1.025634765625,-0.09722900390625,-0.06573486328125
1760201615463,1404268304,17622,5,-1.031005859375,-0.08917236328125,-0.05889892578125
1760201615463,1404268304,17622,6,-1.025390625,-0.09478759765625,-0.06256103515625
1760201615463,1404268304,17622,7,-1.02880859375,-0.09869384765625,-0.07208251953125
1760201615463,1404268304,17622,8,-1.026611328125,-0.10064697265625,-0.06500244140625
1760201615463,1404268304,17622,9,-1.0263671875,-0.09552001953125,-0.06500244140625
1760201615463,1404268304,17622,10,-1.02685546875,-0.09136962890625,-0.05792236328125
1760201615463,1404268304,17622,11,-1.02978515625,-0.09307861328125,-0.06231689453125
1760201615463,1404268304,17622,12,-1.025390625,-0.09649658203125,-0.06451416015625
1760201615463,1404268304,17622,13,-1.025390625,-0.09893798828125,-0.06182861328125
1760201615463,1404268304,17622,14,-1.026123046875,-0.09234619140625,-0.05670166015625
1760201615463,1404268304,17622,15,-1.030029296875,-0.09429931640625,-0.05914306640625
1760201615463,1404268304,17622,16,-1.024658203125,-0.09478759765625,-0.07012939453125
1760201615463,1404268304,17622,17,-1.02783203125,-0.09698486328125,-0.06793212890625
1760201615463,1404268304,17622,18,-1.030517578125,-0.09405517578125,-0.07183837890625
1760201615463,1404268304,17622,19,-1.02392578125,-0.09454345703125,-0.06036376953125
1760201615463,1404268304,17622,20,-1.028564453125,-0.09576416015625,-0.05938720703125
1760201615463,1404268304,17622,21,-1.046630859375,-0.10601806640625,-0.05621337890625
1760201615463,1404268304,17622,22,-1.0234375,-0.09185791015625,-0.06085205078125
1760201615463,1404268304,17622,23,-1.031494140625,-0.09088134765625,-0.06744384765625
1760201615463,1404268304,17622,24,-1.005859375,-0.09820556640625,-0.06231689453125
1760201615463,1404268304,17622,25,-1.012939453125,-0.10430908203125,-0.06695556640625
1760201615463,1404268304,17622,26,-1.04248046875,-0.11065673828125,-0.07965087890625
1760201615463,1404268304,17622,27,-1.0263671875,-0.08868408203125,-0.07379150390625
1760201615463,1404268304,17622,28,-1.03076171875,-0.08843994140625,-0.05938720703125
1760201615463,1404268304,17622,29,-1.024658203125,-0.09381103515625,-0.06939697265625
1760201615463,1404268304,17622,30,-1.031494140625,-0.10552978515625,-0.05938720703125
1760201615463,1404268304,17622,31,-1.02734375,-0.10089111328125,-0.06744384765625
1760201617985,1404270877,17623,0,-1.02685546875,-0.09722900390625,-0.06500244140625
1760201617985,1404270877,17623,1,-1.027099609375,-0.09698486328125,-0.06427001953125
1760201617985,1404270877,17623,2,-1.025146484375,-0.09552001953125,-0.06451416015625
1760201617985,1404270877,17623,3,-1.029296875,-0.09771728515625,-0.06280517578125
1760201617985,1404270877,17623,4,-1.025390625,-0.10113525390625,-0.05889892578125
1760201617985,1404270877,17623,5,-1.027587890625,-0.09747314453125,-0.05474853515625
1760201617985,1404270877,17623,6,-1.027587890625,-0.09771728515625,-0.06280517578125
1760201617985,1404270877,17623,7,-1.025634765625,-0.09747314453125,-0.05889892578125
1760201617985,1404270877,17623,8,-1.025146484375,-0.09625244140625,-0.05987548828125
1760201617985,1404270877,17623,9,-1.02880859375,-0.09747314453125,-0.05645751953125
1760201617985,1404270877,17623,10,-1.0263671875,-0.09844970703125,-0.05792236328125
1760201617985,1404270877,17623,11,-1.02734375,-0.09234619140625,-0.06158447265625
1760201617985,1404270877,17623,12,-1.026611328125,-0.09747314453125,-0.05426025390625
1760201617985,1404270877,17623,13,-1.026611328125,-0.09796142578125,-0.05914306640625
1760201617985,1404270877,17623,14,-1.028076171875,-0.09893798828125,-0.06060791015625
1760201617985,1404270877,17623,15,-1.02392578125,-0.09649658203125,-0.06036376953125
1760201617985,1404270877,17623,16,-1.023681640625,-0.09576416015625,-0.06109619140625
1760201617985,1404270877,17623,17,-1.0244140625,-0.09869384765625,-0.05572509765625
1760201617985,1404270877,17623,18,-1.03271484375,-0.09356689453125,-0.04888916015625
1760201617985,1404270877,17623,19,-1.026611328125,-0.09381103515625,-0.04962158203125
1760201617985,1404270877,17623,20,-1.03076171875,-0.09698486328125,-0.04791259765625
1760201617985,1404270877,17623,21,-1.0439453125,-0.10284423828125,-0.04766845703125
1760201617985,1404270877,17623,22,-1.0244140625,-0.09356689453125,-0.04449462890625
1760201617985,1404270877,17623,23,-1.024658203125,-0.09625244140625,-0.05230712890625
1760201617985,1404270877,17623,24,-1.017822265625,-0.10504150390625,-0.06573486328125
1760201617985,1404270877,17623,25,-1.0048828125,-0.10382080078125,-0.07940673828125
1760201617985,1404270877,17623,26,-1.03662109375,-0.10406494140625,-0.06549072265625
1760201617985,1404270877,17623,27,-1.032958984375,-0.10357666015625,-0.06402587890625
1760201617985,1404270877,17623,28,-1.027587890625,-0.09088134765625,-0.04913330078125
1760201617985,1404270877,17623,29,-1.02587890625,-0.09600830078125,-0.05792236328125
1760201617985,1404270877,17623,30,-1.026611328125,-0.10162353515625,-0.05816650390625
1760201617985,1404270877,17623,31,-1.032470703125,-0.10626220703125,-0.06011962890625
1760201620683,1404273450,17624,0,-1.02734375,-0.10015869140625,-0.05914306640625
1760201620683,1404273450,17624,1,-1.02587890625,-0.09722900390625,-0.05450439453125
1760201620683,1404273450,17624,2,-1.0263671875,-0.09674072265625,-0.06207275390625
1760201620683,1404273450,17624,3,-1.0244140625,-0.09478759765625,-0.05426025390625
1760201620683,1404273450,17624,4,-1.025390625,-0.10015869140625,-0.05548095703125
1760201620683,1404273450,17624,5,-1.025390625,-0.10040283203125,-0.05523681640625
1760201620683,1404273450,17624,6,-1.02783203125,-0.09820556640625,-0.05474853515625
1760201620683,1404273450,17624,7,-1.024169921875,-0.09649658203125,-0.05572509765625
1760201620683,1404273450,17624,8,-1.0234375,-0.09844970703125,-0.06011962890625
1760201620683,1404273450,17624,9,-1.02734375,-0.10015869140625,-0.04888916015625
1760201620683,1404273450,17624,10,-1.025146484375,-0.10089111328125,-0.05572509765625
1760201620683,1404273450,17624,11,-1.027099609375,-0.09527587890625,-0.04791259765625
1760201620683,1404273450,17624,12,-1.029541015625,-0.09576416015625,-0.04473876953125
1760201620683,1404273450,17624,13,-1.029052734375,-0.09576416015625,-0.05059814453125
1760201620683,1404273450,17624,14,-1.028564453125,-0.09869384765625,-0.04571533203125
1760201620683,1404273450,17624,15,-1.02587890625,-0.09576416015625,-0.04547119140625
1760201620683,1404273450,17624,16,-1.026611328125,-0.09674072265625,-0.04937744140625
1760201620683,1404273450,17624,17,-1.026123046875,-0.09405517578125,-0.04034423828125
1760201620683,1404273450,17624,18,-1.0283203125,-0.09869384765625,-0.04473876953125
1760201620683,1404273450,17624,19,-1.029541015625,-0.09576416015625,-0.04254150390625
1760201620683,1404273450,17624,20,-1.039306640625,-0.09674072265625,-0.04107666015625
1760201620683,1404273450,17624,21,-1.027587890625,-0.09210205078125,-0.03033447265625
1760201620683,1404273450,17624,22,-1.02392578125,-0.09552001953125,-0.03936767578125
1760201620683,1404273450,17624,23,-1.0166015625,-0.10089111328125,-0.03179931640625
1760201620683,1404273450,17624,24,-1.019775390625,-0.09820556640625,-0.03448486328125
1760201620683,1404273450,17624,25,-1.0390625,-0.10186767578125,-0.02520751953125
1760201620683,1404273450,17624,26,-1.029296875,-0.09161376953125,-0.03668212890625
1760201620683,1404273450,17624,27,-1.030029296875,-0.08697509765625,-0.02520751953125
1760201620683,1404273450,17624,28,-1.021484375,-0.09332275390625,-0.02935791015625
1760201620683,1404273450,17624,29,-1.029296875,-0.09942626953125,-0.02569580078125
1760201620683,1404273450,17624,30,-1.025634765625,-0.09747314453125,-0.02789306640625
1760201620683,1404273450,17624,31,-1.02587890625,-0.09307861328125,-0.03057861328125
1760201623205,1404276023,17625,0,-1.02880859375,-0.09503173828125,-0.02642822265625
1760201623205,1404276023,17625,1,-1.02685546875,-0.09307861328125,-0.02984619140625
1760201623205,1404276023,17625,2,-1.02734375,-0.09210205078125,-0.03033447265625
1760201623205,1404276023,17625,3,-1.027587890625,-0.09381103515625,-0.02764892578125
1760201623205,1404276023,17625,4,-1.02685546875,-0.09478759765625,-0.03302001953125
1760201623205,1404276023,17625,5,-1.02783203125,-0.09503173828125,-0.02813720703125
1760201623205,1404276023,17625,6,-1.033935546875,-0.09454345703125,-0.03179931640625
1760201623205,1404276023,17625,7,-1.026611328125,-0.09039306640625,-0.02569580078125
1760201623205,1404276023,17625,8,-1.025634765625,-0.09674072265625,-0.03472900390625
1760201623205,1404276023,17625,9,-1.028564453125,-0.09332275390625,-0.02691650390625
1760201623205,1404276023,17625,10,-1.02587890625,-0.09210205078125,-0.02789306640625
1760201623205,1404276023,17625,11,-1.029541015625,-0.09234619140625,-0.02545166015625
1760201623205,1404276023,17625,12,-1.02685546875,-0.09210205078125,-0.02911376953125
1760201623205,1404276023,17625,13,-1.026123046875,-0.09454345703125,-0.02984619140625
1760201623205,1404276023,17625,14,-1.025390625,-0.09625244140625,-0.03179931640625
1760201623205,1404276023,17625,15,-1.02978515625,-0.09332275390625,-0.03057861328125
1760201623205,1404276023,17625,16,-1.0244140625,-0.09185791015625,-0.02886962890625
1760201623205,1404276023,17625,17,-1.02587890625,-0.09527587890625,-0.02935791015625
1760201623205,1404276023,17625,18,-1.0263671875,-0.09381103515625,-0.03082275390625
1760201623205,1404276023,17625,19,-1.027099609375,-0.09478759765625,-0.02520751953125
1760201623205,1404276023,17625,20,-1.02587890625,-0.09234619140625,-0.03033447265625
1760201623205,1404276023,17625,21,-1.026123046875,-0.09307861328125,-0.03179931640625
1760201623205,1404276023,17625,22,-1.024658203125,-0.09356689453125,-0.03302001953125
1760201623205,1404276023,17625,23,-1.026611328125,-0.09381103515625,-0.03375244140625
1760201623205,1404276023,17625,24,-1.0263671875,-0.09503173828125,-0.02642822265625
1760201623205,1404276023,17625,25,-1.02978515625,-0.09405517578125,-0.03057861328125
1760201623205,1404276023,17625,26,-1.025634765625,-0.09259033203125,-0.02886962890625
1760201623205,1404276023,17625,27,-1.026611328125,-0.09552001953125,-0.03253173828125
1760201623205,1404276023,17625,28,-1.027587890625,-0.09259033203125,-0.02984619140625
1760201623205,1404276023,17625,29,-1.028076171875,-0.09063720703125,-0.02569580078125
1760201623205,1404276023,17625,30,-1.026611328125,-0.09063720703125,-0.03399658203125
1760201623205,1404276023,17625,31,-1.029052734375,-0.09234619140625,-0.03521728515625
1760201625725,1404278596,17626,0,-1.0263671875,-0.09722900390625,-0.03009033203125
1760201625725,1404278596,17626,1,-1.02685546875,-0.09307861328125,-0.02618408203125
1760201625725,1404278596,17626,2,-1.026123046875,-0.09039306640625,-0.03106689453125
1760201625725,1404278596,17626,3,-1.02734375,-0.09014892578125,-0.03106689453125
1760201625725,1404278596,17626,4,-1.027587890625,-0.09552001953125,-0.03253173828125
1760201625725,1404278596,17626,5,-1.02978515625,-0.09283447265625,-0.03009033203125
1760201625725,1404278596,17626,6,-1.0283203125,-0.09429931640625,-0.03375244140625
1760201625725,1404278596,17626,7,-1.027099609375,-0.09283447265625,-0.03082275390625
1760201625725,1404278596,17626,8,-1.02685546875,-0.09283447265625,-0.03082275390625
1760201625725,1404278596,17626,9,-1.029541015625,-0.09332275390625,-0.03082275390625
1760201625725,1404278596,17626,10,-1.026123046875,-0.09576416015625,-0.02740478515625
1760201625725,1404278596,17626,11,-1.026611328125,-0.09234619140625,-0.03106689453125
1760201625725,1404278596,17626,12,-1.027587890625,-0.09136962890625,-0.02838134765625
1760201625725,1404278596,17626,13,-1.02734375,-0.09381103515625,-0.02178955078125
1760201625725,1404278596,17626,14,-1.04150390625,-0.10308837890625,-0.04034423828125
1760201625725,1404278596,17626,15,-1.02685546875,-0.08673095703125,-0.03302001953125
1760201625725,1404278596,17626,16,-1.025634765625,-0.09381103515625,-0.03179931640625
1760201625725,1404278596,17626,17,-1.016845703125,-0.10113525390625,-0.03985595703125
1760201625725,1404278596,17626,18,-1.02294921875,-0.10186767578125,-0.05230712890625
1760201625725,1404278596,17626,19,-1.005126953125,-0.10162353515625,-0.06060791015625
1760201625725,1404278596,17626,20,-1.03955078125,-0.10308837890625,-0.04376220703125
1760201625725,1404278596,17626,21,-1.0283203125,-0.10308837890625,-0.04815673828125
1760201625725,1404278596,17626,22,-1.029052734375,-0.08770751953125,-0.03717041015625
1760201625725,1404278596,17626,23,-1.026123046875,-0.09698486328125,-0.04742431640625
1760201625725,1404278596,17626,24,-1.028076171875,-0.10308837890625,-0.04766845703125
1760201625725,1404278596,17626,25,-1.030517578125,-0.10089111328125,-0.04254150390625
1760201625725,1404278596,17626,26,-1.025146484375,-0.09649658203125,-0.04229736328125
1760201625725,1404278596,17626,27,-1.025390625,-0.09478759765625,-0.04254150390625
1760201625725,1404278596,17626,28,-1.0263671875,-0.09429931640625,-0.04815673828125
1760201625725,1404278596,17626,29,-1.02783203125,-0.09600830078125,-0.04180908203125
1760201625725,1404278596,17626,30,-1.029052734375,-0.09869384765625,-0.03399658203125
1760201625725,1404278596,17626,31,-1.026123046875,-0.09747314453125,-0.04010009765625
1760201628241,1404281169,17627,0,-1.02734375,-0.09259033203125,-0.04010009765625
1760201628241,1404281169,17627,1,-1.027099609375,-0.09527587890625,-0.03912353515625
1760201628241,1404281169,17627,2,-1.026611328125,-0.09698486328125,-0.03790283203125
1760201628241,1404281169,17627,3,-1.028076171875,-0.09625244140625,-0.04058837890625
1760201628241,1404281169,17627,4,-1.027099609375,-0.09771728515625,-0.03692626953125
1760201628241,1404281169,17627,5,-1.025634765625,-0.09478759765625,-0.04449462890625
1760201628241,1404281169,17627,6,-1.031005859375,-0.09234619140625,-0.03472900390625
1760201628241,1404281169,17627,7,-1.02587890625,-0.09918212890625,-0.03887939453125
1760201628241,1404281169,17627,8,-1.029052734375,-0.09674072265625,-0.04058837890625
1760201628241,1404281169,17627,9,-1.02783203125,-0.09503173828125,-0.04083251953125
1760201628241,1404281169,17627,10,-1.029296875,-0.09527587890625,-0.04180908203125
1760201628241,1404281169,17627,11,-1.029296875,-0.09478759765625,-0.03546142578125
1760201628241,1404281169,17627,12,-1.028564453125,-0.09649658203125,-0.03643798828125
1760201628241,1404281169,17627,13,-1.026123046875,-0.09625244140625,-0.03619384765625
1760201628241,1404281169,17627,14,-1.0283203125,-0.09381103515625,-0.03668212890625
1760201628241,1404281169,17627,15,-1.02734375,-0.09283447265625,-0.03106689453125
1760201628241,1404281169,17627,16,-1.026611328125,-0.09429931640625,-0.03521728515625
1760201628241,1404281169,17627,17,-1.025390625,-0.10064697265625,-0.05474853515625
1760201628241,1404281169,17627,18,-1.03076171875,-0.09576416015625,-0.04034423828125
1760201628241,1404281169,17627,19,-1.026123046875,-0.09722900390625,-0.04302978515625
1760201628241,1404281169,17627,20,-1.027099609375,-0.09307861328125,-0.04376220703125
1760201628241,1404281169,17627,21,-1.027099609375,-0.09454345703125,-0.04791259765625
1760201628241,1404281169,17627,22,-1.026611328125,-0.09942626953125,-0.04254150390625
1760201628241,1404281169,17627,23,-1.027587890625,-0.09967041015625,-0.04718017578125
1760201628241,1404281169,17627,24,-1.02734375,-0.09478759765625,-0.03692626953125
1760201628241,1404281169,17627,25,-1.0263671875,-0.09234619140625,-0.03839111328125
1760201628241,1404281169,17627,26,-1.027587890625,-0.09844970703125,-0.03863525390625
1760201628241,1404281169,17627,27,-1.0283203125,-0.09722900390625,-0.04058837890625
1760201628241,1404281169,17627,28,-1.025390625,-0.09405517578125,-0.03619384765625
1760201628241,1404281169,17627,29,-1.029296875,-0.09478759765625,-0.03863525390625
1760201628241,1404281169,17627,30,-1.02734375,-0.09332275390625,-0.04010009765625
1760201628241,1404281169,17627,31,-1.027099609375,-0.09478759765625,-0.03717041015625
1760201630944,1404283742,17628,0,-1.0283203125,-0.09600830078125,-0.04132080078125
1760201630944,1404283742,17628,1,-1.028076171875,-0.09649658203125,-0.04083251953125
1760201630944,1404283742,17628,2,-1.02734375,-0.09576416015625,-0.03546142578125
1760201630944,1404283742,17628,3,-1.02734375,-0.09259033203125,-0.04302978515625
1760201630944,1404283742,17628,4,-1.02783203125,-0.09527587890625,-0.03887939453125
1760201630944,1404283742,17628,5,-1.027587890625,-0.09771728515625,-0.04229736328125
1760201630944,1404283742,17628,6,-1.028564453125,-0.09307861328125,-0.04327392578125
1760201630944,1404283742,17628,7,-1.027099609375,-0.09747314453125,-0.03936767578125
1760201630944,1404283742,17628,8,-1.0380859375,-0.10235595703125,-0.03448486328125
1760201630944,1404283742,17628,9,-1.03662109375,-0.09649658203125,-0.04473876953125
1760201630944,1404283742,17628,10,-1.027099609375,-0.08502197265625,-0.02301025390625
1760201630944,1404283742,17628,11,-1.01806640625,-0.10333251953125,-0.03204345703125
1760201630944,1404283742,17628,12,-1.01318359375,-0.09918212890625,-0.05645751953125
1760201630944,1404283742,17628,13,-1.011474609375,-0.10235595703125,-0.06378173828125
1760201630944,1404283742,17628,14,-1.045166015625,-0.10479736328125,-0.03985595703125
1760201630944,1404283742,17628,15,-1.023681640625,-0.09527587890625,-0.04840087890625
1760201630944,1404283742,17628,16,-1.02880859375,-0.08697509765625,-0.03839111328125
1760201630944,1404283742,17628,17,-1.024169921875,-0.09307861328125,-0.04425048828125
1760201630944,1404283742,17628,18,-1.0283203125,-0.10430908203125,-0.04400634765625
1760201630944,1404283742,17628,19,-1.02734375,-0.10552978515625,-0.04180908203125
1760201630944,1404283742,17628,20,-1.026123046875,-0.09454345703125,-0.04180908203125
1760201630944,1404283742,17628,21,-1.026123046875,-0.09112548828125,-0.04400634765625
1760201630944,1404283742,17628,22,-1.02685546875,-0.09332275390625,-0.04107666015625
1760201630944,1404283742,17628,23,-1.029052734375,-0.09893798828125,-0.04498291015625
1760201630944,1404283742,17628,24,-1.030029296875,-0.09747314453125,-0.04205322265625
1760201630944,1404283742,17628,25,-1.02587890625,-0.09698486328125,-0.03277587890625
1760201630944,1404283742,17628,26,-1.02880859375,-0.09454345703125,-0.03912353515625
1760201630944,1404283742,17628,27,-1.024169921875,-0.09527587890625,-0.04302978515625
1760201630944,1404283742,17628,28,-1.028076171875,-0.09625244140625,-0.03326416015625
1760201630944,1404283742,17628,29,-1.024169921875,-0.09625244140625,-0.03375244140625
1760201630944,1404283742,17628,30,-1.025390625,-0.09136962890625,-0.03521728515625
1760201630944,1404283742,17628,31,-1.02783203125,-0.09527587890625,-0.04083251953125
1760201633465,1404286315,17629,0,-1.025390625,-0.09649658203125,-0.03814697265625
1760201633465,1404286315,17629,1,-1.029296875,-0.09600830078125,-0.03912353515625
1760201633465,1404286315,17629,2,-1.026123046875,-0.09429931640625,-0.03814697265625
1760201633465,1404286315,17629,3,-1.027099609375,-0.09454345703125,-0.03643798828125
1760201633465,1404286315,17629,4,-1.027099609375,-0.09747314453125,-0.04010009765625
1760201633465,1404286315,17629,5,-1.02734375,-0.09478759765625,-0.04156494140625
1760201633465,1404286315,17629,6,-1.02734375,-0.09381103515625,-0.03863525390625
1760201633465,1404286315,17629,7,-1.028564453125,-0.09283447265625,-0.03594970703125
1760201633465,1404286315,17629,8,-1.02490234375,-0.09771728515625,-0.03375244140625
1760201633465,1404286315,17629,9,-1.02587890625,-0.09576416015625,-0.03814697265625
1760201633465,1404286315,17629,10,-1.027099609375,-0.09063720703125,-0.03424072265625
1760201633465,1404286315,17629,11,-1.026123046875,-0.09356689453125,-0.03399658203125
1760201633465,1404286315,17629,12,-1.02490234375,-0.09625244140625,-0.03546142578125
1760201633465,1404286315,17629,13,-1.02734375,-0.09429931640625,-0.03375244140625
1760201633465,1404286315,17629,14,-1.02587890625,-0.09356689453125,-0.03887939453125
1760201633465,1404286315,17629,15,-1.02734375,-0.09210205078125,-0.03790283203125
1760201633465,1404286315,17629,16,-1.028076171875,-0.09478759765625,-0.03717041015625
1760201633465,1404286315,17629,17,-1.027587890625,-0.09576416015625,-0.03668212890625
1760201633465,1404286315,17629,18,-1.02587890625,-0.09307861328125,-0.03717041015625
1760201633465,1404286315,17629,19,-1.029052734375,-0.09332275390625,-0.03570556640625
1760201633465,1404286315,17629,20,-1.027099609375,-0.09332275390625,-0.03472900390625
1760201633465,1404286315,17629,21,-1.02783203125,-0.09552001953125,-0.03936767578125
1760201633465,1404286315,17629,22,-1.02587890625,-0.09136962890625,-0.03204345703125
1760201633465,1404286315,17629,23,-1.02685546875,-0.09332275390625,-0.03741455078125
1760201633465,1404286315,17629,24,-1.02783203125,-0.09185791015625,-0.04522705078125
1760201633465,1404286315,17629,25,-1.0244140625,-0.10089111328125,-0.03863525390625
1760201633465,1404286315,17629,26,-1.03125,-0.09600830078125,-0.04449462890625
1760201633465,1404286315,17629,27,-1.0263671875,-0.09405517578125,-0.03912353515625
1760201633465,1404286315,17629,28,-1.027587890625,-0.09356689453125,-0.03741455078125
1760201633465,1404286315,17629,29,-1.02685546875,-0.09381103515625,-0.04473876953125
1760201633465,1404286315,17629,30,-1.028076171875,-0.09576416015625,-0.03985595703125
1760201633465,1404286315,17629,31,-1.026611328125,-0.09356689453125,-0.03887939453125
1760201635985,1404288889,17630,0,-1.02685546875,-0.09478759765625,-0.04278564453125
1760201635985,1404288889,17630,1,-1.027587890625,-0.09576416015625,-0.04327392578125
1760201635985,1404288889,17630,2,-1.025146484375,-0.09893798828125,-0.03961181640625
1760201635985,1404288889,17630,3,-1.032470703125,-0.09429931640625,-0.04058837890625
1760201635985,1404288889,17630,4,-1.02685546875,-0.09478759765625,-0.04180908203125
1760201635985,1404288889,17630,5,-1.0224609375,-0.09478759765625,-0.03912353515625
1760201635985,1404288889,17630,6,-1.028564453125,-0.09625244140625,-0.04107666015625
1760201635985,1404288889,17630,7,-1.02978515625,-0.09478759765625,-0.04254150390625
1760201635985,1404288889,17630,8,-1.03076171875,-0.09552001953125,-0.03424072265625
1760201635985,1404288889,17630,9,-1.04638671875,-0.10186767578125,-0.03912353515625
1760201635985,1404288889,17630,10,-1.02099609375,-0.09210205078125,-0.03009033203125
1760201635985,1404288889,17630,11,-1.02392578125,-0.09844970703125,-0.06109619140625
1760201635985,1404288889,17630,12,-1.005126953125,-0.10113525390625,-0.06890869140625
1760201635985,1404288889,17630,13,-1.01904296875,-0.10797119140625,-0.07257080078125
1760201635985,1404288889,17630,14,-1.047119140625,-0.11090087890625,-0.05987548828125
1760201635985,1404288889,17630,15,-1.022705078125,-0.09063720703125,-0.05157470703125
1760201635985,1404288889,17630,16,-1.0322265625,-0.08648681640625,-0.05206298828125
1760201635985,1404288889,17630,17,-1.019775390625,-0.09625244140625,-0.06158447265625
1760201635985,1404288889,17630,18,-1.033203125,-0.10870361328125,-0.05010986328125
1760201635985,1404288889,17630,19,-1.028564453125,-0.10528564453125,-0.05255126953125
1760201635985,1404288889,17630,20,-1.02734375,-0.09600830078125,-0.04913330078125
1760201635985,1404288889,17630,21,-1.026123046875,-0.09259033203125,-0.05377197265625
1760201635985,1404288889,17630,22,-1.028564453125,-0.09722900390625,-0.05352783203125
1760201635985,1404288889,17630,23,-1.02685546875,-0.09869384765625,-0.04986572265625
1760201635985,1404288889,17630,24,-1.02978515625,-0.10015869140625,-0.04425048828125
1760201635985,1404288889,17630,25,-1.02587890625,-0.09698486328125,-0.04864501953125
1760201635985,1404288889,17630,26,-1.02490234375,-0.09698486328125,-0.04595947265625
1760201635985,1404288889,17630,27,-1.030029296875,-0.09698486328125,-0.05084228515625
1760201635985,1404288889,17630,28,-1.025634765625,-0.09649658203125,-0.04742431640625
1760201635985,1404288889,17630,29,-1.025146484375,-0.09503173828125,-0.04449462890625
1760201635985,1404288889,17630,30,-1.025146484375,-0.09771728515625,-0.04766845703125
1760201635985,1404288889,17630,31,-1.02685546875,-0.09527587890625,-0.04766845703125
1760201638684,1404291462,17631,0,-1.026611328125,-0.09600830078125,-0.04498291015625
1760201638684,1404291462,17631,1,-1.029541015625,-0.09600830078125,-0.05035400390625
1760201638684,1404291462,17631,2,-1.025390625,-0.10113525390625,-0.04986572265625
1760201638684,1404291462,17631,3,-1.031494140625,-0.09552001953125,-0.04742431640625
1760201638684,1404291462,17631,4,-1.024169921875,-0.09307861328125,-0.04180908203125
1760201638684,1404291462,17631,5,-1.028076171875,-0.09283447265625,-0.03961181640625
1760201638684,1404291462,17631,6,-1.025634765625,-0.09844970703125,-0.04425048828125
1760201638684,1404291462,17631,7,-1.027587890625,-0.09820556640625,-0.04547119140625
1760201638684,1404291462,17631,8,-1.0263671875,-0.09429931640625,-0.04180908203125
1760201638684,1404291462,17631,9,-1.02734375,-0.09454345703125,-0.04278564453125
1760201638684,1404291462,17631,10,-1.0244140625,-0.09527587890625,-0.05841064453125
1760201638684,1404291462,17631,11,-1.027587890625,-0.09869384765625,-0.05035400390625
1760201638684,1404291462,17631,12,-1.0283203125,-0.09918212890625,-0.05035400390625
1760201638684,1404291462,17631,13,-1.025634765625,-0.09307861328125,-0.04669189453125
1760201638684,1404291462,17631,14,-1.026611328125,-0.09503173828125,-0.04571533203125
1760201638684,1404291462,17631,15,-1.02685546875,-0.09698486328125,-0.05255126953125
1760201638684,1404291462,17631,16,-1.02880859375,-0.09893798828125,-0.05523681640625
1760201638684,1404291462,17631,17,-1.029052734375,-0.09381103515625,-0.05230712890625
1760201638684,1404291462,17631,18,-1.030029296875,-0.09283447265625,-0.04595947265625
1760201638684,1404291462,17631,19,-1.027587890625,-0.09771728515625,-0.05010986328125
1760201638684,1404291462,17631,20,-1.026123046875,-0.09625244140625,-0.04888916015625
1760201638684,1404291462,17631,21,-1.030517578125,-0.09722900390625,-0.05010986328125
1760201638684,1404291462,17631,22,-1.027099609375,-0.09405517578125,-0.04742431640625
1760201638684,1404291462,17631,23,-1.02587890625,-0.09722900390625,-0.05108642578125
1760201638684,1404291462,17631,24,-1.029296875,-0.09600830078125,-0.04766845703125
1760201638684,1404291462,17631,25,-1.025634765625,-0.09674072265625,-0.04595947265625
1760201638684,1404291462,17631,26,-1.02734375,-0.09674072265625,-0.05157470703125
1760201638684,1404291462,17631,27,-1.024169921875,-0.09503173828125,-0.05157470703125
1760201638684,1404291462,17631,28,-1.026123046875,-0.09747314453125,-0.04718017578125
1760201638684,1404291462,17631,29,-1.030517578125,-0.09625244140625,-0.05010986328125
1760201638684,1404291462,17631,30,-1.02392578125,-0.09796142578125,-0.05328369140625
1760201638684,1404291462,17631,31,-1.02685546875,-0.09576416015625,-0.05279541015625
1760201641205,1404294035,17632,0,-1.02587890625,-0.09771728515625,-0.05792236328125
1760201641205,1404294035,17632,1,-1.02685546875,-0.09600830078125,-0.05523681640625
1760201641205,1404294035,17632,2,-1.02880859375,-0.09991455078125,-0.04815673828125
1760201641205,1404294035,17632,3,-1.04345703125,-0.10235595703125,-0.05572509765625
1760201641205,1404294035,17632,4,-1.025390625,-0.09234619140625,-0.04571533203125
1760201641205,1404294035,17632,5,-1.024658203125,-0.10040283203125,-0.04791259765625
1760201641205,1404294035,17632,6,-1.02587890625,-0.09967041015625,-0.04693603515625
1760201641205,1404294035,17632,7,-1.029296875,-0.10430908203125,-0.05938720703125
1760201641205,1404294035,17632,8,-1.021484375,-0.09967041015625,-0.05450439453125
1760201641205,1404294035,17632,9,-1.00048828125,-0.09796142578125,-0.07403564453125
1760201641205,1404294035,17632,10,-1.0361328125,-0.10772705078125,-0.04327392578125
1760201641205,1404294035,17632,11,-1.03125,-0.11456298828125,-0.07061767578125
1760201641205,1404294035,17632,12,-1.02978515625,-0.08892822265625,-0.04473876953125
1760201641205,1404294035,17632,13,-1.018310546875,-0.10186767578125,-0.05694580078125
1760201641205,1404294035,17632,14,-1.032958984375,-0.10089111328125,-0.05572509765625
1760201641205,1404294035,17632,15,-1.02490234375,-0.10797119140625,-0.05914306640625
1760201641205,1404294035,17632,16,-1.027099609375,-0.10137939453125,-0.05010986328125
1760201641205,1404294035,17632,17,-1.024658203125,-0.09869384765625,-0.05694580078125
1760201641205,1404294035,17632,18,-1.027099609375,-0.09600830078125,-0.04644775390625
1760201641205,1404294035,17632,19,-1.029296875,-0.10577392578125,-0.04693603515625
1760201641205,1404294035,17632,20,-1.027099609375,-0.09918212890625,-0.05596923828125
1760201641205,1404294035,17632,21,-1.027587890625,-0.09893798828125,-0.04669189453125
1760201641205,1404294035,17632,22,-1.02490234375,-0.09942626953125,-0.05230712890625
