receivedPhoneTimestamp,respeckTimestamp,packetSeqNum,sampleSeqNum,accelX,accelY,accelZ
1760367240473,1490801630,51031,31,0.323486328125,-0.58526611328125,-0.77789306640625
1760367243085,1490804173,51032,0,0.31298828125,-0.58990478515625,-0.78277587890625
1760367243085,1490804173,51032,1,0.31005859375,-0.57647705078125,-0.79107666015625
1760367243085,1490804173,51032,2,0.324462890625,-0.56134033203125,-0.87481689453125
1760367243085,1490804173,51032,3,0.318359375,-0.46685791015625,-0.82257080078125
1760367243085,1490804173,51032,4,0.3427734375,-0.41119384765625,-0.81256103515625
1760367243085,1490804173,51032,5,0.38671875,-0.47247314453125,-0.84649658203125
1760367243085,1490804173,51032,6,0.37939453125,-0.46685791015625,-0.82135009765625
1760367243085,1490804173,51032,7,0.3984375,-0.47125244140625,-0.83575439453125
1760367243085,1490804173,51032,8,0.373779296875,-0.46246337890625,-0.81329345703125
1760367243085,1490804173,51032,9,0.389404296875,-0.46807861328125,-0.85430908203125
1760367243085,1490804173,51032,10,0.362060546875,-0.43707275390625,-0.82647705078125
1760367243085,1490804173,51032,11,0.393310546875,-0.45367431640625,-0.87139892578125
1760367243085,1490804173,51032,12,0.377685546875,-0.38800048828125,-0.82354736328125
1760367243085,1490804173,51032,13,0.390625,-0.38922119140625,-0.84014892578125
1760367243085,1490804173,51032,14,0.369873046875,-0.41265869140625,-0.80694580078125
1760367243085,1490804173,51032,15,0.341552734375,-0.47686767578125,-0.81890869140625
1760367243085,1490804173,51032,16,0.337646484375,-0.58111572265625,-0.84429931640625
1760367243085,1490804173,51032,17,0.29736328125,-0.57208251953125,-0.81231689453125
1760367243085,1490804173,51032,18,0.343017578125,-0.55621337890625,-0.89947509765625
1760367243085,1490804173,51032,19,0.333984375,-0.38653564453125,-0.72930908203125
1760367243085,1490804173,51032,20,0.37841796875,-0.45953369140625,-0.92364501953125
1760367243085,1490804173,51032,21,0.376708984375,-0.38433837890625,-0.83355712890625
1760367243085,1490804173,51032,22,0.404052734375,-0.39801025390625,-0.86602783203125
1760367243085,1490804173,51032,23,0.416748046875,-0.42095947265625,-0.85430908203125
1760367243085,1490804173,51032,24,0.406005859375,-0.40777587890625,-0.81427001953125
1760367243085,1490804173,51032,25,0.385986328125,-0.41510009765625,-0.81475830078125
1760367243085,1490804173,51032,26,0.34423828125,-0.48614501953125,-0.82843017578125
1760367243085,1490804173,51032,27,0.330322265625,-0.55548095703125,-0.84454345703125
1760367243085,1490804173,51032,28,0.30859375,-0.55841064453125,-0.79229736328125
1760367243085,1490804173,51032,29,0.3466796875,-0.58941650390625,-0.89874267578125
1760367243085,1490804173,51032,30,0.31396484375,-0.43414306640625,-0.78277587890625
1760367243085,1490804173,51032,31,0.36328125,-0.43267822265625,-0.84014892578125
1760367245686,1490806716,51033,0,0.3701171875,-0.42633056640625,-0.85919189453125
1760367245686,1490806716,51033,1,0.35888671875,-0.39581298828125,-0.82183837890625
1760367245686,1490806716,51033,2,0.38916015625,-0.41094970703125,-0.88629150390625
1760367245686,1490806716,51033,3,0.36279296875,-0.41314697265625,-0.82623291015625
1760367245686,1490806716,51033,4,0.385498046875,-0.45245361328125,-0.84454345703125
1760367245686,1490806716,51033,5,0.3876953125,-0.47882080078125,-0.78814697265625
1760367245686,1490806716,51033,6,0.37060546875,-0.52301025390625,-0.79132080078125
1760367245686,1490806716,51033,7,0.32861328125,-0.57476806640625,-0.81744384765625
1760367245686,1490806716,51033,8,0.29296875,-0.58062744140625,-0.80426025390625
1760367245686,1490806716,51033,9,0.30078125,-0.57379150390625,-0.84088134765625
1760367245686,1490806716,51033,10,0.310302734375,-0.52862548828125,-0.83062744140625
1760367245686,1490806716,51033,11,0.33544921875,-0.50054931640625,-0.78985595703125
1760367245686,1490806716,51033,12,0.3515625,-0.47369384765625,-0.84307861328125
1760367245686,1490806716,51033,13,0.340087890625,-0.46636962890625,-0.81695556640625
1760367245686,1490806716,51033,14,0.385009765625,-0.49688720703125,-0.84478759765625
1760367245686,1490806716,51033,15,0.3603515625,-0.46905517578125,-0.81451416015625
1760367245686,1490806716,51033,16,0.390625,-0.45635986328125,-0.81451416015625
1760367245686,1490806716,51033,17,0.381103515625,-0.47857666015625,-0.82843017578125
1760367245686,1490806716,51033,18,0.36865234375,-0.48760986328125,-0.80181884765625
1760367245686,1490806716,51033,19,0.33642578125,-0.50665283203125,-0.81060791015625
1760367245686,1490806716,51033,20,0.3203125,-0.57281494140625,-0.80499267578125
1760367245686,1490806716,51033,21,0.300537109375,-0.57257080078125,-0.88214111328125
1760367245686,1490806716,51033,22,0.316650390625,-0.48516845703125,-0.80621337890625
1760367245686,1490806716,51033,23,0.3291015625,-0.43975830078125,-0.81085205078125
1760367245686,1490806716,51033,24,0.363525390625,-0.47198486328125,-0.91387939453125
1760367245686,1490806716,51033,25,0.365478515625,-0.38140869140625,-0.76690673828125
1760367245686,1490806716,51033,26,0.39306640625,-0.44732666015625,-0.90753173828125
1760367245686,1490806716,51033,27,0.369140625,-0.41802978515625,-0.82916259765625
1760367245686,1490806716,51033,28,0.3896484375,-0.43048095703125,-0.84820556640625
1760367245686,1490806716,51033,29,0.383056640625,-0.42218017578125,-0.86041259765625
1760367245686,1490806716,51033,30,0.383056640625,-0.39776611328125,-0.82037353515625
1760367245686,1490806716,51033,31,0.392822265625,-0.43170166015625,-0.89385986328125
1760367248085,1490809259,51034,0,0.36669921875,-0.38970947265625,-0.83062744140625
1760367248085,1490809259,51034,1,0.361328125,-0.42657470703125,-0.81256103515625
1760367248085,1490809259,51034,2,0.33837890625,-0.50616455078125,-0.84600830078125
1760367248085,1490809259,51034,3,0.3193359375,-0.55938720703125,-0.81768798828125
1760367248085,1490809259,51034,4,0.356689453125,-0.55596923828125,-0.95562744140625
1760367248085,1490809259,51034,5,0.3330078125,-0.38604736328125,-0.74761962890625
1760367248085,1490809259,51034,6,0.35546875,-0.37408447265625,-0.86724853515625
1760367248085,1490809259,51034,7,0.370361328125,-0.41705322265625,-0.88604736328125
1760367248085,1490809259,51034,8,0.36083984375,-0.37799072265625,-0.83697509765625
1760367248085,1490809259,51034,9,0.37841796875,-0.41021728515625,-0.89483642578125
1760367248085,1490809259,51034,10,0.359130859375,-0.37945556640625,-0.85504150390625
1760367248085,1490809259,51034,11,0.372314453125,-0.37823486328125,-0.85333251953125
1760367248085,1490809259,51034,12,0.35693359375,-0.43048095703125,-0.81573486328125
1760367248085,1490809259,51034,13,0.33837890625,-0.50543212890625,-0.83673095703125
1760367248085,1490809259,51034,14,0.319091796875,-0.55426025390625,-0.83355712890625
1760367248085,1490809259,51034,15,0.369384765625,-0.59307861328125,-0.98272705078125
1760367248085,1490809259,51034,16,0.31201171875,-0.32672119140625,-0.71221923828125
1760367248085,1490809259,51034,17,0.375732421875,-0.32891845703125,-0.90631103515625
1760367248085,1490809259,51034,18,0.365966796875,-0.33282470703125,-0.87213134765625
1760367248085,1490809259,51034,19,0.385498046875,-0.32891845703125,-0.89605712890625
1760367248085,1490809259,51034,20,0.36767578125,-0.32281494140625,-0.86138916015625
1760367248085,1490809259,51034,21,0.380126953125,-0.34869384765625,-0.88336181640625
1760367248085,1490809259,51034,22,0.37353515625,-0.36651611328125,-0.87872314453125
1760367248085,1490809259,51034,23,0.372314453125,-0.37091064453125,-0.88116455078125
1760367248085,1490809259,51034,24,0.37255859375,-0.37628173828125,-0.87701416015625
1760367248085,1490809259,51034,25,0.36865234375,-0.37115478515625,-0.86749267578125
1760367248085,1490809259,51034,26,0.3720703125,-0.36944580078125,-0.87847900390625
1760367248085,1490809259,51034,27,0.356201171875,-0.39190673828125,-0.82916259765625
1760367248085,1490809259,51034,28,0.349609375,-0.44903564453125,-0.85235595703125
1760367248085,1490809259,51034,29,0.364501953125,-0.49151611328125,-0.83746337890625
1760367248085,1490809259,51034,30,0.305419921875,-0.50958251953125,-0.83941650390625
1760367248085,1490809259,51034,31,0.258056640625,-0.49542236328125,-0.90533447265625
1760367250885,1490811802,51035,0,0.30810546875,-0.47344970703125,-0.90728759765625
1760367250885,1490811802,51035,1,0.35986328125,-0.40777587890625,-0.82476806640625
1760367250885,1490811802,51035,2,0.384521484375,-0.36553955078125,-0.85333251953125
1760367250885,1490811802,51035,3,0.355712890625,-0.34796142578125,-0.85382080078125
1760367250885,1490811802,51035,4,0.3974609375,-0.37701416015625,-0.86163330078125
1760367250885,1490811802,51035,5,0.412841796875,-0.38653564453125,-0.89239501953125
1760367250885,1490811802,51035,6,0.35205078125,-0.33355712890625,-0.85162353515625
1760367250885,1490811802,51035,7,0.413818359375,-0.38067626953125,-0.86822509765625
1760367250885,1490811802,51035,8,0.360107421875,-0.34771728515625,-0.85968017578125
1760367250885,1490811802,51035,9,0.339599609375,-0.40386962890625,-0.84771728515625
1760367250885,1490811802,51035,10,0.352294921875,-0.47003173828125,-0.84844970703125
1760367250885,1490811802,51035,11,0.318359375,-0.52130126953125,-0.83355712890625
1760367250885,1490811802,51035,12,0.373046875,-0.53765869140625,-0.92926025390625
1760367250885,1490811802,51035,13,0.3271484375,-0.38995361328125,-0.76715087890625
1760367250885,1490811802,51035,14,0.353271484375,-0.40533447265625,-0.88262939453125
1760367250885,1490811802,51035,15,0.358154296875,-0.40362548828125,-0.86724853515625
1760367250885,1490811802,51035,16,0.35498046875,-0.36944580078125,-0.84625244140625
1760367250885,1490811802,51035,17,0.37744140625,-0.38385009765625,-0.89166259765625
1760367250885,1490811802,51035,18,0.372314453125,-0.36602783203125,-0.82501220703125
1760367250885,1490811802,51035,19,0.38818359375,-0.41973876953125,-0.92779541015625
1760367250885,1490811802,51035,20,0.364990234375,-0.37091064453125,-0.83575439453125
1760367250885,1490811802,51035,21,0.3603515625,-0.39117431640625,-0.80572509765625
1760367250885,1490811802,51035,22,0.33251953125,-0.48468017578125,-0.86114501953125
1760367250885,1490811802,51035,23,0.32080078125,-0.55889892578125,-0.84844970703125
1760367250885,1490811802,51035,24,0.33837890625,-0.57354736328125,-0.94708251953125
1760367250885,1490811802,51035,25,0.309814453125,-0.38067626953125,-0.74786376953125
1760367250885,1490811802,51035,26,0.353271484375,-0.38726806640625,-0.88580322265625
1760367250885,1490811802,51035,27,0.35498046875,-0.38775634765625,-0.85504150390625
1760367250885,1490811802,51035,28,0.36181640625,-0.37164306640625,-0.85260009765625
1760367250885,1490811802,51035,29,0.37451171875,-0.40704345703125,-0.88922119140625
1760367250885,1490811802,51035,30,0.36083984375,-0.39337158203125,-0.84283447265625
1760367250885,1490811802,51035,31,0.3759765625,-0.40631103515625,-0.87701416015625
1760367253284,1490814345,51036,0,0.365478515625,-0.39996337890625,-0.86090087890625
1760367253284,1490814345,51036,1,0.369384765625,-0.39630126953125,-0.85089111328125
1760367253284,1490814345,51036,2,0.365478515625,-0.43218994140625,-0.88580322265625
1760367253284,1490814345,51036,3,0.333740234375,-0.39752197265625,-0.84039306640625
1760367253284,1490814345,51036,4,0.32373046875,-0.41876220703125,-0.84454345703125
1760367253284,1490814345,51036,5,0.337646484375,-0.52886962890625,-0.82452392578125
1760367253284,1490814345,51036,6,0.33056640625,-0.57159423828125,-0.83111572265625
1760367253284,1490814345,51036,7,0.37060546875,-0.56671142578125,-0.87774658203125
1760367253284,1490814345,51036,8,0.333984375,-0.39996337890625,-0.77838134765625
1760367253284,1490814345,51036,9,0.352783203125,-0.39410400390625,-0.87481689453125
1760367253284,1490814345,51036,10,0.35546875,-0.37115478515625,-0.85479736328125
1760367253284,1490814345,51036,11,0.365478515625,-0.36041259765625,-0.86920166015625
1760367253284,1490814345,51036,12,0.36767578125,-0.39434814453125,-0.90875244140625
1760367253284,1490814345,51036,13,0.350341796875,-0.34893798828125,-0.83941650390625
1760367253284,1490814345,51036,14,0.369384765625,-0.38531494140625,-0.89288330078125
1760367253284,1490814345,51036,15,0.36376953125,-0.38018798828125,-0.85577392578125
1760367253284,1490814345,51036,16,0.351318359375,-0.39019775390625,-0.84429931640625
1760367253284,1490814345,51036,17,0.338623046875,-0.45806884765625,-0.85406494140625
1760367253284,1490814345,51036,18,0.322265625,-0.52838134765625,-0.85333251953125
1760367253284,1490814345,51036,19,0.313232421875,-0.53497314453125,-0.87652587890625
1760367253284,1490814345,51036,20,0.328125,-0.45635986328125,-0.82159423828125
1760367253284,1490814345,51036,21,0.33203125,-0.37994384765625,-0.83990478515625
1760367253284,1490814345,51036,22,0.356201171875,-0.40582275390625,-0.88165283203125
1760367253284,1490814345,51036,23,0.354248046875,-0.39923095703125,-0.85699462890625
1760367253284,1490814345,51036,24,0.358642578125,-0.41876220703125,-0.88189697265625
1760367253284,1490814345,51036,25,0.348876953125,-0.39361572265625,-0.85479736328125
1760367253284,1490814345,51036,26,0.35888671875,-0.41387939453125,-0.90411376953125
1760367253284,1490814345,51036,27,0.341064453125,-0.38018798828125,-0.85235595703125
1760367253284,1490814345,51036,28,0.358154296875,-0.38800048828125,-0.86773681640625
1760367253284,1490814345,51036,29,0.3623046875,-0.39312744140625,-0.86114501953125
1760367253284,1490814345,51036,30,0.366455078125,-0.42169189453125,-0.83941650390625
1760367253284,1490814345,51036,31,0.31787109375,-0.45709228515625,-0.86627197265625
1760367255886,1490816888,51037,0,0.315673828125,-0.50177001953125,-0.85211181640625
1760367255886,1490816888,51037,1,0.321044921875,-0.49957275390625,-0.84552001953125
1760367255886,1490816888,51037,2,0.351806640625,-0.49176025390625,-0.89117431640625
1760367255886,1490816888,51037,3,0.308349609375,-0.34381103515625,-0.81817626953125
1760367255886,1490816888,51037,4,0.35888671875,-0.37335205078125,-0.91412353515625
1760367255886,1490816888,51037,5,0.361572265625,-0.35357666015625,-0.82916259765625
1760367255886,1490816888,51037,6,0.391357421875,-0.40484619140625,-0.89849853515625
1760367255886,1490816888,51037,7,0.373046875,-0.39947509765625,-0.87237548828125
1760367255886,1490816888,51037,8,0.3740234375,-0.36895751953125,-0.89947509765625
1760367255886,1490816888,51037,9,0.353759765625,-0.31842041015625,-0.86993408203125
1760367255886,1490816888,51037,10,0.355712890625,-0.32037353515625,-0.86700439453125
1760367255886,1490816888,51037,11,0.36767578125,-0.35162353515625,-0.92364501953125
1760367255886,1490816888,51037,12,0.3701171875,-0.33599853515625,-0.85455322265625
1760367255886,1490816888,51037,13,0.369140625,-0.35968017578125,-0.84503173828125
1760367255886,1490816888,51037,14,0.331298828125,-0.44512939453125,-0.88531494140625
1760367255886,1490816888,51037,15,0.32080078125,-0.47979736328125,-0.84405517578125
1760367255886,1490816888,51037,16,0.367919921875,-0.52301025390625,-0.94854736328125
1760367255886,1490816888,51037,17,0.3154296875,-0.33111572265625,-0.77886962890625
1760367255886,1490816888,51037,18,0.375244140625,-0.37359619140625,-0.87774658203125
1760367255886,1490816888,51037,19,0.38427734375,-0.39288330078125,-0.85845947265625
1760367255886,1490816888,51037,20,0.364013671875,-0.40338134765625,-0.89385986328125
1760367255886,1490816888,51037,21,0.358154296875,-0.39581298828125,-0.85455322265625
1760367255886,1490816888,51037,22,0.365234375,-0.39630126953125,-0.87701416015625
1760367255886,1490816888,51037,23,0.362060546875,-0.37115478515625,-0.85552978515625
1760367255886,1490816888,51037,24,0.36474609375,-0.37603759765625,-0.86627197265625
1760367255886,1490816888,51037,25,0.366943359375,-0.40460205078125,-0.86383056640625
1760367255886,1490816888,51037,26,0.36572265625,-0.44757080078125,-0.79962158203125
1760367255886,1490816888,51037,27,0.356201171875,-0.55352783203125,-0.81842041015625
1760367255886,1490816888,51037,28,0.311279296875,-0.57843017578125,-0.80816650390625
1760367255886,1490816888,51037,29,0.33349609375,-0.61212158203125,-0.89288330078125
1760367255886,1490816888,51037,30,0.300537109375,-0.43341064453125,-0.75860595703125
1760367255886,1490816888,51037,31,0.353759765625,-0.45684814453125,-0.85797119140625
1760367258284,1490819431,51038,0,0.341064453125,-0.43927001953125,-0.85260009765625
1760367258284,1490819431,51038,1,0.364013671875,-0.41412353515625,-0.84674072265625
1760367258284,1490819431,51038,2,0.36865234375,-0.42364501953125,-0.87677001953125
1760367258284,1490819431,51038,3,0.34521484375,-0.38385009765625,-0.84429931640625
1760367258284,1490819431,51038,4,0.367919921875,-0.41168212890625,-0.87237548828125
1760367258284,1490819431,51038,5,0.361572265625,-0.41754150390625,-0.82672119140625
1760367258284,1490819431,51038,6,0.350830078125,-0.47027587890625,-0.82427978515625
1760367258284,1490819431,51038,7,0.346923828125,-0.55303955078125,-0.80889892578125
1760367258284,1490819431,51038,8,0.30517578125,-0.57720947265625,-0.81890869140625
1760367258284,1490819431,51038,9,0.340087890625,-0.56036376953125,-0.91534423828125
1760367258284,1490819431,51038,10,0.336669921875,-0.38751220703125,-0.75250244140625
1760367258284,1490819431,51038,11,0.37353515625,-0.41925048828125,-0.89556884765625
1760367258284,1490819431,51038,12,0.349609375,-0.39312744140625,-0.82818603515625
1760367258284,1490819431,51038,13,0.386474609375,-0.41290283203125,-0.86895751953125
1760367258284,1490819431,51038,14,0.3623046875,-0.42388916015625,-0.84283447265625
1760367258284,1490819431,51038,15,0.36767578125,-0.43121337890625,-0.83551025390625
1760367258284,1490819431,51038,16,0.383056640625,-0.46734619140625,-0.86407470703125
1760367258284,1490819431,51038,17,0.358642578125,-0.44854736328125,-0.81744384765625
1760367258284,1490819431,51038,18,0.369140625,-0.46099853515625,-0.83062744140625
1760367258284,1490819431,51038,19,0.385498046875,-0.48052978515625,-0.81280517578125
1760367258284,1490819431,51038,20,0.3642578125,-0.53814697265625,-0.78936767578125
1760367258284,1490819431,51038,21,0.316650390625,-0.56353759765625,-0.79864501953125
1760367258284,1490819431,51038,22,0.31005859375,-0.61114501953125,-0.79595947265625
1760367258284,1490819431,51038,23,0.320556640625,-0.58770751953125,-0.76910400390625
1760367258284,1490819431,51038,24,0.361083984375,-0.60015869140625,-0.82769775390625
1760367258284,1490819431,51038,25,0.34423828125,-0.47442626953125,-0.75665283203125
1760367258284,1490819431,51038,26,0.34375,-0.48785400390625,-0.83575439453125
1760367258284,1490819431,51038,27,0.387939453125,-0.50469970703125,-0.79522705078125
1760367258284,1490819431,51038,28,0.375,-0.49371337890625,-0.84356689453125
1760367258284,1490819431,51038,29,0.340087890625,-0.47613525390625,-0.81817626953125
1760367258284,1490819431,51038,30,0.361083984375,-0.47808837890625,-0.80670166015625
1760367258284,1490819431,51038,31,0.388671875,-0.50274658203125,-0.80377197265625
1760367260885,1490821974,51039,0,0.421142578125,-0.53253173828125,-0.78668212890625
1760367260885,1490821974,51039,1,0.3369140625,-0.49810791015625,-0.84576416015625
1760367260885,1490821974,51039,2,0.323974609375,-0.48077392578125,-0.84063720703125
1760367260885,1490821974,51039,3,0.3603515625,-0.48931884765625,-0.80621337890625
1760367260885,1490821974,51039,4,0.338623046875,-0.50762939453125,-0.81207275390625
1760367260885,1490821974,51039,5,0.31103515625,-0.54547119140625,-0.82647705078125
1760367260885,1490821974,51039,6,0.35498046875,-0.56158447265625,-0.96710205078125
1760367260885,1490821974,51039,7,0.3642578125,-0.36993408203125,-0.67437744140625
1760367260885,1490821974,51039,8,0.380126953125,-0.42535400390625,-0.89776611328125
1760367260885,1490821974,51039,9,0.3427734375,-0.41583251953125,-0.82745361328125
1760367260885,1490821974,51039,10,0.381591796875,-0.43194580078125,-0.84796142578125
1760367260885,1490821974,51039,11,0.37646484375,-0.45074462890625,-0.84307861328125
1760367260885,1490821974,51039,12,0.390380859375,-0.45904541015625,-0.81622314453125
1760367260885,1490821974,51039,13,0.385498046875,-0.47930908203125,-0.83062744140625
1760367260885,1490821974,51039,14,0.378662109375,-0.49078369140625,-0.81304931640625
1760367260885,1490821974,51039,15,0.3759765625,-0.49908447265625,-0.80523681640625
1760367260885,1490821974,51039,16,0.330810546875,-0.51837158203125,-0.80718994140625
1760367260885,1490821974,51039,17,0.297119140625,-0.55133056640625,-0.82012939453125
1760367260885,1490821974,51039,18,0.296630859375,-0.55157470703125,-0.85113525390625
1760367260885,1490821974,51039,19,0.336669921875,-0.50714111328125,-0.80670166015625
1760367260885,1490821974,51039,20,0.35400390625,-0.46978759765625,-0.80352783203125
1760367260885,1490821974,51039,21,0.34326171875,-0.48907470703125,-0.83746337890625
1760367260885,1490821974,51039,22,0.365966796875,-0.47979736328125,-0.81427001953125
1760367260885,1490821974,51039,23,0.3583984375,-0.48370361328125,-0.83966064453125
1760367260885,1490821974,51039,24,0.36376953125,-0.47467041015625,-0.80865478515625
1760367260885,1490821974,51039,25,0.370361328125,-0.49542236328125,-0.82281494140625
1760367260885,1490821974,51039,26,0.373291015625,-0.50982666015625,-0.81671142578125
1760367260885,1490821974,51039,27,0.366943359375,-0.51129150390625,-0.79547119140625
1760367260885,1490821974,51039,28,0.330078125,-0.53106689453125,-0.80108642578125
1760367260885,1490821974,51039,29,0.309326171875,-0.56304931640625,-0.81695556640625
1760367260885,1490821974,51039,30,0.289306640625,-0.55718994140625,-0.81158447265625
1760367260885,1490821974,51039,31,0.32275390625,-0.55010986328125,-0.83697509765625
1760367263484,1490824517,51040,0,0.318115234375,-0.48028564453125,-0.79595947265625
1760367263484,1490824517,51040,1,0.34765625,-0.50054931640625,-0.84454345703125
1760367263484,1490824517,51040,2,0.337158203125,-0.48492431640625,-0.81207275390625
1760367263484,1490824517,51040,3,0.35498046875,-0.48956298828125,-0.83087158203125
1760367263484,1490824517,51040,4,0.35546875,-0.49249267578125,-0.82208251953125
1760367263484,1490824517,51040,5,0.361083984375,-0.48638916015625,-0.81695556640625
1760367263484,1490824517,51040,6,0.355224609375,-0.49273681640625,-0.82867431640625
1760367263484,1490824517,51040,7,0.355712890625,-0.49639892578125,-0.82672119140625
1760367263484,1490824517,51040,8,0.357421875,-0.49566650390625,-0.82818603515625
1760367263484,1490824517,51040,9,0.34228515625,-0.49371337890625,-0.80059814453125
1760367263484,1490824517,51040,10,0.315673828125,-0.51226806640625,-0.81939697265625
1760367263484,1490824517,51040,11,0.30810546875,-0.55181884765625,-0.81256103515625
1760367263484,1490824517,51040,12,0.32421875,-0.56866455078125,-0.84014892578125
1760367263484,1490824517,51040,13,0.3251953125,-0.52496337890625,-0.82501220703125
1760367263484,1490824517,51040,14,0.320556640625,-0.47857666015625,-0.82720947265625
1760367263484,1490824517,51040,15,0.33837890625,-0.48590087890625,-0.83404541015625
1760367263484,1490824517,51040,16,0.349609375,-0.48248291015625,-0.82452392578125
1760367263484,1490824517,51040,17,0.355224609375,-0.48687744140625,-0.82672119140625
1760367263484,1490824517,51040,18,0.339599609375,-0.48248291015625,-0.83380126953125
1760367263484,1490824517,51040,19,0.358642578125,-0.48345947265625,-0.83917236328125
1760367263484,1490824517,51040,20,0.3486328125,-0.48248291015625,-0.82501220703125
1760367263484,1490824517,51040,21,0.3408203125,-0.46270751953125,-0.81402587890625
1760367263484,1490824517,51040,22,0.322998046875,-0.51422119140625,-0.82427978515625
1760367263484,1490824517,51040,23,0.30712890625,-0.55596923828125,-0.82794189453125
1760367263484,1490824517,51040,24,0.346435546875,-0.56158447265625,-0.87384033203125
1760367263484,1490824517,51040,25,0.323486328125,-0.44415283203125,-0.78204345703125
1760367263484,1490824517,51040,26,0.334716796875,-0.46319580078125,-0.92828369140625
1760367263484,1490824517,51040,27,0.33203125,-0.36456298828125,-0.81744384765625
1760367263484,1490824517,51040,28,0.38671875,-0.36846923828125,-0.88238525390625
1760367263484,1490824517,51040,29,0.384765625,-0.34576416015625,-0.84869384765625
1760367263484,1490824517,51040,30,0.404052734375,-0.38360595703125,-0.87286376953125
1760367263484,1490824517,51040,31,0.406982421875,-0.39923095703125,-0.88214111328125
1760367265887,1490827060,51041,0,0.390869140625,-0.32647705078125,-0.77935791015625
1760367265887,1490827060,51041,1,0.427490234375,-0.43878173828125,-0.94439697265625
1760367265887,1490827060,51041,2,0.375,-0.33819580078125,-0.76690673828125
1760367265887,1490827060,51041,3,0.41162109375,-0.43780517578125,-0.82843017578125
1760367265887,1490827060,51041,4,0.353271484375,-0.50421142578125,-0.84039306640625
1760367265887,1490827060,51041,5,0.319580078125,-0.56573486328125,-0.82769775390625
1760367265887,1490827060,51041,6,0.3583984375,-0.58135986328125,-0.90655517578125
1760367265887,1490827060,51041,7,0.326416015625,-0.41827392578125,-0.76763916015625
1760367265887,1490827060,51041,8,0.370361328125,-0.38238525390625,-0.85699462890625
1760367265887,1490827060,51041,9,0.367431640625,-0.39605712890625,-0.84600830078125
1760367265887,1490827060,51041,10,0.3701171875,-0.41241455078125,-0.84820556640625
1760367265887,1490827060,51041,11,0.3740234375,-0.44903564453125,-0.87652587890625
1760367265887,1490827060,51041,12,0.354736328125,-0.41192626953125,-0.82745361328125
1760367265887,1490827060,51041,13,0.359619140625,-0.45928955078125,-0.83673095703125
1760367265887,1490827060,51041,14,0.34765625,-0.49761962890625,-0.80181884765625
1760367265887,1490827060,51041,15,0.328857421875,-0.56988525390625,-0.82061767578125
1760367265887,1490827060,51041,16,0.322509765625,-0.58404541015625,-0.79547119140625
1760367265887,1490827060,51041,17,0.342529296875,-0.58453369140625,-0.83306884765625
1760367265887,1490827060,51041,18,0.32958984375,-0.52423095703125,-0.77789306640625
1760367265887,1490827060,51041,19,0.345947265625,-0.51715087890625,-0.82452392578125
1760367265887,1490827060,51041,20,0.341064453125,-0.49591064453125,-0.82476806640625
1760367265887,1490827060,51041,21,0.357177734375,-0.47100830078125,-0.82550048828125
1760367265887,1490827060,51041,22,0.348876953125,-0.47369384765625,-0.84625244140625
1760367265887,1490827060,51041,23,0.35205078125,-0.44952392578125,-0.81866455078125
1760367265887,1490827060,51041,24,0.335205078125,-0.47393798828125,-0.85504150390625
1760367265887,1490827060,51041,25,0.30078125,-0.46954345703125,-0.84039306640625
1760367265887,1490827060,51041,26,0.360595703125,-0.49591064453125,-0.79913330078125
1760367265887,1490827060,51041,27,0.33984375,-0.53448486328125,-0.79888916015625
1760367265887,1490827060,51041,28,0.335693359375,-0.59478759765625,-0.80865478515625
1760367265887,1490827060,51041,29,0.3369140625,-0.58062744140625,-0.84674072265625
1760367265887,1490827060,51041,30,0.328857421875,-0.47174072265625,-0.77130126953125
1760367265887,1490827060,51041,31,0.359375,-0.46685791015625,-0.82891845703125
1760367268486,1490829597,51042,0,0.34765625,-0.47271728515625,-0.82623291015625
1760367268486,1490829597,51042,1,0.347900390625,-0.48541259765625,-0.85772705078125
1760367268486,1490829597,51042,2,0.34521484375,-0.46270751953125,-0.84625244140625
1760367268486,1490829597,51042,3,0.33740234375,-0.44976806640625,-0.83770751953125
1760367268486,1490829597,51042,20,0.31201171875,-0.56964111328125,-0.80596923828125
1760367268486,1490829597,51042,21,0.3447265625,-0.60284423828125,-0.87359619140625
1760367268486,1490829597,51042,22,0.302001953125,-0.45953369140625,-0.78302001953125
1760367268486,1490829597,51042,23,0.34619140625,-0.40655517578125,-0.84332275390625
1760367268486,1490829597,51042,24,0.358642578125,-0.42803955078125,-0.86334228515625
1760367268486,1490829597,51042,25,0.37451171875,-0.42340087890625,-0.84503173828125
1760367268486,1490829597,51042,26,0.355224609375,-0.42144775390625,-0.88800048828125
1760367268486,1490829597,51042,27,0.367431640625,-0.39654541015625,-0.81768798828125
1760367268486,1490829597,51042,28,0.396240234375,-0.42291259765625,-0.86114501953125
1760367268486,1490829597,51042,29,0.364013671875,-0.41217041015625,-0.84576416015625
1760367268486,1490829597,51042,30,0.36962890625,-0.41851806640625,-0.85772705078125
1760367268486,1490829597,51042,31,0.36572265625,-0.43023681640625,-0.84210205078125
1760367271282,1490832140,51043,0,0.35693359375,-0.45806884765625,-0.80963134765625
1760367271282,1490832140,51043,1,0.319580078125,-0.52764892578125,-0.83917236328125
1760367271282,1490832140,51043,2,0.327392578125,-0.58062744140625,-0.81109619140625
1760367271282,1490832140,51043,3,0.311279296875,-0.57110595703125,-0.79498291015625
1760367271282,1490832140,51043,4,0.336669921875,-0.58697509765625,-0.89678955078125
1760367271282,1490832140,51043,5,0.322998046875,-0.41412353515625,-0.75714111328125
1760367271282,1490832140,51043,6,0.36181640625,-0.44952392578125,-0.86871337890625
1760367271282,1490832140,51043,7,0.341552734375,-0.43829345703125,-0.82452392578125
1760367271282,1490832140,51043,8,0.358642578125,-0.46636962890625,-0.88140869140625
1760367271282,1490832140,51043,9,0.34912109375,-0.44683837890625,-0.82745361328125
1760367271282,1490832140,51043,10,0.3662109375,-0.45806884765625,-0.84722900390625
1760367271282,1490832140,51043,11,0.3515625,-0.45684814453125,-0.84259033203125
1760367271282,1490832140,51043,12,0.347412109375,-0.46710205078125,-0.84088134765625
1760367271282,1490832140,51043,13,0.3359375,-0.46319580078125,-0.80279541015625
1760367271282,1490832140,51043,14,0.322998046875,-0.56036376953125,-0.83404541015625
1760367271282,1490832140,51043,15,0.301025390625,-0.57720947265625,-0.80914306640625
1760367271282,1490832140,51043,16,0.296630859375,-0.56744384765625,-0.79571533203125
1760367271282,1490832140,51043,17,0.33642578125,-0.58013916015625,-0.85992431640625
1760367271282,1490832140,51043,18,0.310302734375,-0.45855712890625,-0.78131103515625
1760367271282,1490832140,51043,19,0.34521484375,-0.46539306640625,-0.85186767578125
1760367271282,1490832140,51043,20,0.347900390625,-0.45831298828125,-0.82891845703125
1760367271282,1490832140,51043,21,0.35498046875,-0.45880126953125,-0.85577392578125
1760367271282,1490832140,51043,22,0.35205078125,-0.45489501953125,-0.83599853515625
1760367271282,1490832140,51043,23,0.3583984375,-0.45391845703125,-0.83575439453125
1760367271282,1490832140,51043,24,0.35693359375,-0.45758056640625,-0.83135986328125
1760367271282,1490832140,51043,25,0.336669921875,-0.48785400390625,-0.81134033203125
1760367271282,1490832140,51043,26,0.308837890625,-0.53619384765625,-0.83648681640625
1760367271282,1490832140,51043,27,0.3154296875,-0.56549072265625,-0.80938720703125
1760367271282,1490832140,51043,28,0.2958984375,-0.54107666015625,-0.81353759765625
1760367271282,1490832140,51043,29,0.3408203125,-0.54644775390625,-0.89093017578125
1760367271282,1490832140,51043,30,0.329833984375,-0.40875244140625,-0.78912353515625
1760367271282,1490832140,51043,31,0.376708984375,-0.42071533203125,-0.87774658203125
1760367273686,1490834683,51044,0,0.34765625,-0.42047119140625,-0.83599853515625
