receivedPhoneTimestamp,respeckTimestamp,packetSeqNum,sampleSeqNum,accelX,accelY,accelZ
1759330847198,426269926,7537,16,0.28857421875,-0.02740478515625,-0.93365478515625
1759330847198,426269926,7537,17,0.282470703125,-0.01763916015625,-0.98321533203125
1759330847198,426269926,7537,18,0.3349609375,-0.01934814453125,-0.93658447265625
1759330847198,426269926,7537,19,0.38623046875,-0.04376220703125,-0.83770751953125
1759330847198,426269926,7537,20,0.33984375,-0.03961181640625,-0.91583251953125
1759330847198,426269926,7537,21,0.336669921875,-0.03399658203125,-0.94219970703125
1759330847198,426269926,7537,22,0.3388671875,-0.02178955078125,-0.88409423828125
1759330847198,426269926,7537,23,0.309814453125,-0.01739501953125,-0.94488525390625
1759330847198,426269926,7537,24,0.298095703125,-0.00885009765625,-0.97735595703125
1759330847198,426269926,7537,25,0.330078125,-0.01300048828125,-0.96002197265625
1759330847198,426269926,7537,26,0.35791015625,-0.03717041015625,-0.82110595703125
1759330847198,426269926,7537,27,0.310546875,-0.02154541015625,-0.94171142578125
1759330847198,426269926,7537,28,0.31005859375,-0.01153564453125,-0.97833251953125
1759330847198,426269926,7537,29,0.306396484375,-0.02447509765625,-0.87750244140625
1759330847198,426269926,7537,30,0.2548828125,-0.00811767578125,-0.94952392578125
1759330847198,426269926,7537,31,0.241943359375,0.02020263671875,-0.99200439453125
1759330849899,426272469,7538,0,0.22802734375,0.00848388671875,-0.97222900390625
1759330849899,426272469,7538,1,0.28125,0.00701904296875,-0.95562744140625
1759330849899,426272469,7538,2,0.283447265625,-0.00494384765625,-0.93804931640625
1759330849899,426272469,7538,3,0.32568359375,-0.00836181640625,-1.00152587890625
1759330849899,426272469,7538,4,0.390869140625,-0.05279541015625,-0.79425048828125
1759330849899,426272469,7538,5,0.39990234375,-0.05352783203125,-0.88775634765625
1759330849899,426272469,7538,6,0.410888671875,-0.05059814453125,-0.90093994140625
1759330849899,426272469,7538,7,0.419677734375,-0.05426025390625,-0.89703369140625
1759330849899,426272469,7538,8,0.471435546875,-0.06182861328125,-0.84210205078125
1759330849899,426272469,7538,9,0.457763671875,-0.07135009765625,-0.81597900390625
1759330849899,426272469,7538,10,0.44970703125,-0.06182861328125,-0.89044189453125
1759330849899,426272469,7538,11,0.44384765625,-0.06842041015625,-0.81207275390625
1759330849899,426272469,7538,12,0.37060546875,-0.04132080078125,-0.85382080078125
1759330849899,426272469,7538,13,0.280517578125,-0.01959228515625,-1.02911376953125
1759330849899,426272469,7538,14,0.283203125,-0.02960205078125,-1.04180908203125
1759330849899,426272469,7538,15,0.3447265625,-0.06817626953125,-0.79425048828125
1759330849899,426272469,7538,16,0.309326171875,-0.06134033203125,-0.88360595703125
1759330849899,426272469,7538,17,0.291015625,-0.04840087890625,-1.09234619140625
1759330849899,426272469,7538,18,0.339111328125,-0.06890869140625,-0.85504150390625
1759330849899,426272469,7538,19,0.352783203125,-0.08648681640625,-0.83233642578125
1759330849899,426272469,7538,20,0.322509765625,-0.07330322265625,-1.00421142578125
1759330849899,426272469,7538,21,0.323974609375,-0.06549072265625,-0.89678955078125
1759330849899,426272469,7538,22,0.317626953125,-0.06597900390625,-0.94732666015625
1759330849899,426272469,7538,23,0.33251953125,-0.07379150390625,-0.91217041015625
1759330849899,426272469,7538,24,0.3330078125,-0.07061767578125,-0.90435791015625
1759330849899,426272469,7538,25,0.334228515625,-0.06549072265625,-0.93585205078125
1759330849899,426272469,7538,26,0.321533203125,-0.06109619140625,-0.90313720703125
1759330849899,426272469,7538,27,0.321533203125,-0.05914306640625,-0.99298095703125
1759330849899,426272469,7538,28,0.36474609375,-0.07623291015625,-0.88116455078125
1759330849899,426272469,7538,29,0.410400390625,-0.08502197265625,-0.85504150390625
1759330849899,426272469,7538,30,0.407470703125,-0.08551025390625,-0.85845947265625
1759330849899,426272469,7538,31,0.3779296875,-0.07647705078125,-0.93487548828125
1759330852297,426275012,7539,0,0.403564453125,-0.07745361328125,-0.86041259765625
1759330852297,426275012,7539,1,0.377197265625,-0.07330322265625,-0.92559814453125
1759330852297,426275012,7539,2,0.398193359375,-0.08160400390625,-0.87750244140625
1759330852297,426275012,7539,3,0.391357421875,-0.07598876953125,-0.85870361328125
1759330852297,426275012,7539,4,0.35888671875,-0.06695556640625,-0.96343994140625
1759330852297,426275012,7539,5,0.3798828125,-0.07183837890625,-0.88067626953125
1759330852297,426275012,7539,6,0.365966796875,-0.06939697265625,-0.88922119140625
1759330852297,426275012,7539,7,0.352294921875,-0.06646728515625,-0.92340087890625
1759330852297,426275012,7539,8,0.3310546875,-0.05694580078125,-0.91754150390625
1759330852297,426275012,7539,9,0.32763671875,-0.06134033203125,-0.95904541015625
1759330852297,426275012,7539,10,0.35986328125,-0.06988525390625,-0.85626220703125
1759330852297,426275012,7539,11,0.322265625,-0.05548095703125,-0.94635009765625
1759330852297,426275012,7539,12,0.3310546875,-0.06207275390625,-0.94464111328125
1759330852297,426275012,7539,13,0.336669921875,-0.06280517578125,-0.87457275390625
1759330852297,426275012,7539,14,0.319580078125,-0.05645751953125,-0.96563720703125
1759330852297,426275012,7539,15,0.327880859375,-0.05816650390625,-0.89532470703125
1759330852297,426275012,7539,16,0.294921875,-0.05401611328125,-0.94024658203125
1759330852297,426275012,7539,17,0.306640625,-0.05328369140625,-0.97125244140625
1759330852297,426275012,7539,18,0.316162109375,-0.05841064453125,-0.87237548828125
1759330852297,426275012,7539,19,0.2841796875,-0.04791259765625,-0.97808837890625
1759330852297,426275012,7539,20,0.31005859375,-0.05670166015625,-0.94488525390625
1759330852297,426275012,7539,21,0.32373046875,-0.06011962890625,-0.86529541015625
1759330852297,426275012,7539,22,0.292724609375,-0.05499267578125,-0.98760986328125
1759330852297,426275012,7539,23,0.312744140625,-0.05938720703125,-0.90948486328125
1759330852297,426275012,7539,24,0.2978515625,-0.05401611328125,-0.88970947265625
1759330852297,426275012,7539,25,0.233154296875,-0.04205322265625,-0.97052001953125
1759330852297,426275012,7539,26,0.187744140625,-0.01983642578125,-0.99859619140625
1759330852297,426275012,7539,27,0.175048828125,-0.02301025390625,-0.97930908203125
1759330852297,426275012,7539,28,0.174072265625,-0.01910400390625,-0.97955322265625
1759330852297,426275012,7539,29,0.171142578125,-0.01861572265625,-0.99908447265625
1759330852297,426275012,7539,30,0.259033203125,-0.02203369140625,-0.98931884765625
1759330852297,426275012,7539,31,0.3095703125,-0.04107666015625,-0.83209228515625
1759330854998,426277555,7540,0,0.2900390625,-0.04229736328125,-0.98736572265625
1759330854998,426277555,7540,1,0.312255859375,-0.04718017578125,-0.91217041015625
1759330854998,426277555,7540,2,0.29736328125,-0.04571533203125,-0.90704345703125
1759330854998,426277555,7540,3,0.2763671875,-0.03912353515625,-1.02252197265625
1759330854998,426277555,7540,4,0.322509765625,-0.04937744140625,-0.87799072265625
1759330854998,426277555,7540,5,0.312255859375,-0.05450439453125,-0.89678955078125
1759330854998,426277555,7540,6,0.302978515625,-0.04595947265625,-1.01348876953125
1759330854998,426277555,7540,7,0.35009765625,-0.06060791015625,-0.83062744140625
1759330854998,426277555,7540,8,0.319580078125,-0.05426025390625,-0.94512939453125
1759330854998,426277555,7540,9,0.335205078125,-0.05499267578125,-0.96026611328125
1759330854998,426277555,7540,10,0.369384765625,-0.06304931640625,-0.84869384765625
1759330854998,426277555,7540,11,0.339111328125,-0.05426025390625,-0.97613525390625
1759330854998,426277555,7540,12,0.393310546875,-0.06256103515625,-0.87091064453125
1759330854998,426277555,7540,13,0.415771484375,-0.06964111328125,-0.77618408203125
1759330854998,426277555,7540,14,0.287353515625,-0.05035400390625,-0.99371337890625
1759330854998,426277555,7540,15,0.26123046875,-0.04034423828125,-1.01470947265625
1759330854998,426277555,7540,16,0.2919921875,-0.06280517578125,-0.90704345703125
1759330854998,426277555,7540,17,0.2958984375,-0.06060791015625,-0.86553955078125
1759330854998,426277555,7540,18,0.2158203125,-0.05059814453125,-0.98687744140625
1759330854998,426277555,7540,19,0.179443359375,-0.01104736328125,-1.01007080078125
1759330854998,426277555,7540,20,0.171630859375,-0.00885009765625,-0.97955322265625
1759330854998,426277555,7540,21,0.169677734375,-0.01202392578125,-0.97149658203125
1759330854998,426277555,7540,22,0.170166015625,-0.01226806640625,-0.98590087890625
1759330854998,426277555,7540,23,0.195068359375,-0.00592041015625,-1.04449462890625
1759330854998,426277555,7540,24,0.306640625,-0.02374267578125,-0.89239501953125
1759330854998,426277555,7540,25,0.357666015625,-0.03839111328125,-0.77764892578125
1759330854998,426277555,7540,26,0.2734375,-0.03643798828125,-1.08551025390625
1759330854998,426277555,7540,27,0.34716796875,-0.04571533203125,-0.90484619140625
1759330854998,426277555,7540,28,0.399658203125,-0.05865478515625,-0.76959228515625
1759330854998,426277555,7540,29,0.31689453125,-0.05230712890625,-0.99102783203125
1759330854998,426277555,7540,30,0.290283203125,-0.04815673828125,-0.94805908203125
1759330854998,426277555,7540,31,0.29150390625,-0.04791259765625,-0.93170166015625
1759330857398,426280098,7541,0,0.2822265625,-0.04547119140625,-0.95538330078125
1759330857398,426280098,7541,1,0.28125,-0.05133056640625,-0.93316650390625
1759330857398,426280098,7541,2,0.27734375,-0.04888916015625,-0.95147705078125
1759330857398,426280098,7541,3,0.275146484375,-0.04864501953125,-0.94683837890625
1759330857398,426280098,7541,4,0.288818359375,-0.04962158203125,-0.92828369140625
1759330857398,426280098,7541,5,0.281494140625,-0.04840087890625,-0.93292236328125
1759330857398,426280098,7541,6,0.25927734375,-0.04595947265625,-0.95050048828125
1759330857398,426280098,7541,7,0.233154296875,-0.03472900390625,-0.96954345703125
1759330857398,426280098,7541,8,0.227783203125,-0.03253173828125,-0.96905517578125
1759330857398,426280098,7541,9,0.2255859375,-0.03424072265625,-0.95465087890625
1759330857398,426280098,7541,10,0.213623046875,-0.03082275390625,-0.97027587890625
1759330857398,426280098,7541,11,0.210693359375,-0.03106689453125,-0.96661376953125
1759330857398,426280098,7541,12,0.2080078125,-0.02911376953125,-0.97686767578125
1759330857398,426280098,7541,13,0.2001953125,-0.03253173828125,-0.99639892578125
1759330857398,426280098,7541,14,0.285888671875,-0.01837158203125,-1.00103759765625
1759330857398,426280098,7541,15,0.420166015625,-0.03131103515625,-0.76007080078125
1759330857398,426280098,7541,16,0.377685546875,-0.03790283203125,-0.88043212890625
1759330857398,426280098,7541,17,0.320068359375,-0.03375244140625,-0.96343994140625
1759330857398,426280098,7541,18,0.29248046875,-0.03741455078125,-0.94171142578125
1759330857398,426280098,7541,19,0.283203125,-0.03326416015625,-0.94342041015625
1759330857398,426280098,7541,20,0.274658203125,-0.03424072265625,-0.94586181640625
1759330857398,426280098,7541,21,0.2626953125,-0.03546142578125,-0.95318603515625
1759330857398,426280098,7541,22,0.261962890625,-0.03228759765625,-0.97076416015625
1759330857398,426280098,7541,23,0.291748046875,-0.03717041015625,-0.92633056640625
1759330857398,426280098,7541,24,0.29931640625,-0.03692626953125,-0.92340087890625
1759330857398,426280098,7541,25,0.285400390625,-0.03863525390625,-0.94635009765625
1759330857398,426280098,7541,26,0.281005859375,-0.03936767578125,-0.94000244140625
1759330857398,426280098,7541,27,0.2724609375,-0.03204345703125,-0.95782470703125
1759330857398,426280098,7541,28,0.30419921875,-0.03082275390625,-0.99371337890625
1759330857398,426280098,7541,29,0.40771484375,-0.05059814453125,-0.80865478515625
1759330857398,426280098,7541,30,0.392333984375,-0.05328369140625,-0.89361572265625
1759330857398,426280098,7541,31,0.394775390625,-0.05279541015625,-0.95465087890625
1759330859948,426282641,7542,0,0.454833984375,-0.06402587890625,-0.79888916015625
1759330859948,426282641,7542,1,0.44580078125,-0.06842041015625,-0.89117431640625
1759330859948,426282641,7542,2,0.475341796875,-0.07281494140625,-0.84942626953125
1759330859948,426282641,7542,3,0.468994140625,-0.07672119140625,-0.79864501953125
1759330859948,426282641,7542,4,0.44287109375,-0.06915283203125,-0.94049072265625
1759330859948,426282641,7542,5,0.472412109375,-0.07965087890625,-0.77691650390625
1759330859948,426282641,7542,6,0.4287109375,-0.07403564453125,-0.83941650390625
1759330859948,426282641,7542,7,0.356201171875,-0.05718994140625,-1.01080322265625
1759330859948,426282641,7542,8,0.3896484375,-0.06597900390625,-0.85382080078125
1759330859948,426282641,7542,9,0.368408203125,-0.06549072265625,-0.86676025390625
1759330859948,426282641,7542,10,0.32177734375,-0.05938720703125,-0.98834228515625
1759330859948,426282641,7542,11,0.32666015625,-0.05792236328125,-0.89874267578125
1759330859948,426282641,7542,12,0.31689453125,-0.05987548828125,-0.91265869140625
1759330859948,426282641,7542,13,0.286865234375,-0.05694580078125,-0.97808837890625
1759330859948,426282641,7542,14,0.2880859375,-0.05303955078125,-0.95489501953125
1759330859948,426282641,7542,15,0.34228515625,-0.05841064453125,-0.92095947265625
1759330859948,426282641,7542,16,0.37451171875,-0.06842041015625,-0.84722900390625
1759330859948,426282641,7542,17,0.3203125,-0.06524658203125,-0.96636962890625
1759330859948,426282641,7542,18,0.335205078125,-0.05889892578125,-0.93316650390625
1759330859948,426282641,7542,19,0.3671875,-0.06256103515625,-0.85162353515625
1759330859948,426282641,7542,20,0.333251953125,-0.06134033203125,-0.96563720703125
1759330859948,426282641,7542,21,0.35498046875,-0.06524658203125,-0.90240478515625
1759330859948,426282641,7542,22,0.35400390625,-0.06597900390625,-0.87969970703125
1759330859948,426282641,7542,23,0.328857421875,-0.05987548828125,-0.96270751953125
1759330859948,426282641,7542,24,0.331787109375,-0.05987548828125,-0.89385986328125
1759330859948,426282641,7542,25,0.30908203125,-0.05938720703125,-0.93780517578125
1759330859948,426282641,7542,26,0.302490234375,-0.05572509765625,-0.96905517578125
1759330859948,426282641,7542,27,0.326171875,-0.06256103515625,-0.88409423828125
1759330859948,426282641,7542,28,0.31982421875,-0.06182861328125,-0.91583251953125
1759330859948,426282641,7542,29,0.2919921875,-0.06036376953125,-0.94317626953125
1759330859948,426282641,7542,30,0.2529296875,-0.05548095703125,-0.94097900390625
1759330859948,426282641,7542,31,0.224609375,-0.04766845703125,-0.97979736328125
1759330862798,426285184,7543,0,0.208251953125,-0.03985595703125,-0.97125244140625
1759330862798,426285184,7543,1,0.20556640625,-0.03424072265625,-0.98126220703125
1759330862798,426285184,7543,2,0.229248046875,-0.03546142578125,-0.98541259765625
1759330862798,426285184,7543,3,0.268310546875,-0.03546142578125,-0.91046142578125
1759330862798,426285184,7543,4,0.292236328125,-0.03570556640625,-0.98834228515625
1759330862798,426285184,7543,5,0.349365234375,-0.05352783203125,-0.86651611328125
1759330862798,426285184,7543,6,0.338134765625,-0.05938720703125,-0.97613525390625
1759330862798,426285184,7543,7,0.440673828125,-0.06427001953125,-0.84381103515625
1759330862798,426285184,7543,8,0.474365234375,-0.06182861328125,-0.80255126953125
1759330862798,426285184,7543,9,0.491943359375,-0.06158447265625,-0.89093017578125
1759330862798,426285184,7543,10,0.500244140625,-0.08062744140625,-0.78814697265625
1759330862798,426285184,7543,11,0.494873046875,-0.06890869140625,-0.84600830078125
1759330862798,426285184,7543,12,0.4970703125,-0.07061767578125,-0.84771728515625
1759330862798,426285184,7543,13,0.508056640625,-0.07379150390625,-0.82305908203125
1759330862798,426285184,7543,14,0.51416015625,-0.07720947265625,-0.80328369140625
1759330862798,426285184,7543,15,0.5166015625,-0.07672119140625,-0.83013916015625
1759330862798,426285184,7543,16,0.517333984375,-0.07623291015625,-0.82135009765625
1759330862798,426285184,7543,17,0.507080078125,-0.07501220703125,-0.81329345703125
1759330862798,426285184,7543,18,0.530517578125,-0.07305908203125,-0.85040283203125
1759330862798,426285184,7543,19,0.498046875,-0.08282470703125,-0.79864501953125
1759330862798,426285184,7543,20,0.518310546875,-0.08233642578125,-0.81182861328125
1759330862798,426285184,7543,21,0.5126953125,-0.07183837890625,-0.83843994140625
1759330862798,426285184,7543,22,0.51220703125,-0.08282470703125,-0.78863525390625
1759330862798,426285184,7543,23,0.50830078125,-0.06793212890625,-0.77130126953125
1759330862798,426285184,7543,24,0.440673828125,-0.06817626953125,-0.90753173828125
1759330862798,426285184,7543,25,0.388671875,-0.05865478515625,-0.92510986328125
1759330862798,426285184,7543,26,0.370849609375,-0.06011962890625,-0.88897705078125
1759330862798,426285184,7543,27,0.33984375,-0.05572509765625,-0.92584228515625
1759330862798,426285184,7543,28,0.3232421875,-0.05621337890625,-0.93609619140625
1759330862798,426285184,7543,29,0.3212890625,-0.05401611328125,-0.92169189453125
1759330862798,426285184,7543,30,0.31201171875,-0.05621337890625,-0.92926025390625
1759330862798,426285184,7543,31,0.30224609375,-0.05206298828125,-0.94317626953125
1759330865047,426287727,7544,0,0.302978515625,-0.05328369140625,-0.93975830078125
1759330865047,426287727,7544,1,0.305908203125,-0.05377197265625,-0.93170166015625
1759330865047,426287727,7544,2,0.309326171875,-0.05401611328125,-0.93707275390625
1759330865047,426287727,7544,3,0.31201171875,-0.05377197265625,-0.92706298828125
1759330865047,426287727,7544,4,0.312744140625,-0.05450439453125,-0.90118408203125
1759330865047,426287727,7544,5,0.2626953125,-0.04400634765625,-0.94488525390625
1759330865047,426287727,7544,6,0.213623046875,-0.02911376953125,-0.99102783203125
1759330865047,426287727,7544,7,0.200439453125,-0.02301025390625,-0.97833251953125
1759330865047,426287727,7544,8,0.19140625,-0.02618408203125,-0.96978759765625
1759330865047,426287727,7544,9,0.18505859375,-0.02789306640625,-0.97760009765625
1759330865047,426287727,7544,10,0.19384765625,-0.02764892578125,-0.97637939453125
1759330865047,426287727,7544,11,0.193603515625,-0.02813720703125,-0.96759033203125
1759330865047,426287727,7544,12,0.239990234375,-0.01348876953125,-1.00885009765625
1759330865047,426287727,7544,13,0.327392578125,-0.03375244140625,-0.85406494140625
1759330865047,426287727,7544,14,0.324462890625,-0.03887939453125,-0.92535400390625
1759330865047,426287727,7544,15,0.322021484375,-0.03863525390625,-0.92926025390625
1759330865047,426287727,7544,16,0.310546875,-0.03887939453125,-0.91583251953125
1759330865047,426287727,7544,17,0.30078125,-0.04400634765625,-0.96368408203125
1759330865047,426287727,7544,18,0.293701171875,-0.04327392578125,-0.91583251953125
1759330865047,426287727,7544,19,0.267822265625,-0.04376220703125,-0.95782470703125
1759330865047,426287727,7544,20,0.26708984375,-0.04302978515625,-0.95465087890625
1759330865047,426287727,7544,21,0.267578125,-0.03912353515625,-0.94024658203125
1759330865047,426287727,7544,22,0.269287109375,-0.04010009765625,-0.95782470703125
1759330865047,426287727,7544,23,0.2587890625,-0.03839111328125,-0.93536376953125
1759330865047,426287727,7544,24,0.25830078125,-0.03765869140625,-0.97222900390625
1759330865047,426287727,7544,25,0.26708984375,-0.03912353515625,-0.92681884765625
1759330865047,426287727,7544,26,0.25048828125,-0.03668212890625,-0.96636962890625
1759330865047,426287727,7544,27,0.259521484375,-0.03448486328125,-0.95562744140625
1759330865047,426287727,7544,28,0.259033203125,-0.03985595703125,-0.93951416015625
1759330865047,426287727,7544,29,0.264404296875,-0.04327392578125,-0.96295166015625
1759330865047,426287727,7544,30,0.255859375,-0.03863525390625,-0.94097900390625
1759330865047,426287727,7544,31,0.249267578125,-0.03765869140625,-0.95489501953125
1759330867598,426290270,7545,0,0.246337890625,-0.03521728515625,-0.96343994140625
1759330867598,426290270,7545,1,0.258544921875,-0.04669189453125,-0.94390869140625
1759330867598,426290270,7545,2,0.251953125,-0.04180908203125,-0.94952392578125
1759330867598,426290270,7545,3,0.24951171875,-0.04229736328125,-0.96759033203125
1759330867598,426290270,7545,4,0.255615234375,-0.04278564453125,-0.94415283203125
1759330867598,426290270,7545,5,0.25,-0.04034423828125,-0.95660400390625
1759330867598,426290270,7545,6,0.25439453125,-0.04205322265625,-0.95465087890625
1759330867598,426290270,7545,7,0.248779296875,-0.04156494140625,-0.94879150390625
1759330867598,426290270,7545,8,0.253173828125,-0.04620361328125,-0.95806884765625
1759330867598,426290270,7545,9,0.253173828125,-0.04595947265625,-0.93951416015625
1759330867598,426290270,7545,10,0.233154296875,-0.04010009765625,-0.96246337890625
1759330867598,426290270,7545,11,0.2236328125,-0.03570556640625,-0.99029541015625
1759330867598,426290270,7545,12,0.267822265625,-0.03106689453125,-1.00372314453125
1759330867598,426290270,7545,13,0.382568359375,-0.04034423828125,-0.81842041015625
1759330867598,426290270,7545,14,0.381591796875,-0.03521728515625,-0.90948486328125
1759330867598,426290270,7545,15,0.40185546875,-0.04278564453125,-0.91461181640625
1759330867598,426290270,7545,16,0.4248046875,-0.05816650390625,-0.83184814453125
1759330867598,426290270,7545,17,0.411865234375,-0.05133056640625,-0.96197509765625
1759330867598,426290270,7545,18,0.488037109375,-0.06549072265625,-0.79180908203125
1759330867598,426290270,7545,19,0.468505859375,-0.06036376953125,-0.78106689453125
1759330867598,426290270,7545,20,0.448974609375,-0.06109619140625,-0.95562744140625
1759330867598,426290270,7545,21,0.462158203125,-0.07208251953125,-0.79376220703125
1759330867598,426290270,7545,22,0.44140625,-0.06280517578125,-0.85748291015625
1759330867598,426290270,7545,23,0.39892578125,-0.06134033203125,-0.90679931640625
1759330867598,426290270,7545,24,0.35693359375,-0.05059814453125,-0.92779541015625
1759330867598,426290270,7545,25,0.3759765625,-0.05499267578125,-0.92315673828125
1759330867598,426290270,7545,26,0.38671875,-0.05987548828125,-0.85626220703125
1759330867598,426290270,7545,27,0.347900390625,-0.05499267578125,-0.95880126953125
1759330867598,426290270,7545,28,0.375244140625,-0.05621337890625,-0.88385009765625
1759330867598,426290270,7545,29,0.36376953125,-0.05596923828125,-0.89825439453125
1759330867598,426290270,7545,30,0.3515625,-0.05841064453125,-0.93634033203125
1759330867598,426290270,7545,31,0.35302734375,-0.05548095703125,-0.87994384765625
1759330869998,426292807,7546,0,0.3388671875,-0.05255126953125,-0.94659423828125
1759330869998,426292807,7546,1,0.33984375,-0.05157470703125,-0.90093994140625
1759330869998,426292807,7546,2,0.32373046875,-0.05010986328125,-0.94317626953125
1759330869998,426292807,7546,3,0.331298828125,-0.05255126953125,-0.91070556640625
1759330869998,426292807,7546,4,0.32080078125,-0.05133056640625,-0.90948486328125
1759330869998,426292807,7546,5,0.30810546875,-0.04718017578125,-0.96466064453125
1759330869998,426292807,7546,6,0.321044921875,-0.04986572265625,-0.89019775390625
1759330869998,426292807,7546,7,0.294189453125,-0.04571533203125,-0.93609619140625
1759330869998,426292807,7546,8,0.255615234375,-0.04815673828125,-0.97222900390625
1759330869998,426292807,7546,9,0.24267578125,-0.04473876953125,-0.94073486328125
1759330869998,426292807,7546,10,0.2138671875,-0.02911376953125,-0.98394775390625
1759330869998,426292807,7546,11,0.20361328125,-0.02911376953125,-0.97222900390625
1759330869998,426292807,7546,12,0.193603515625,-0.02960205078125,-0.97027587890625
1759330869998,426292807,7546,13,0.187255859375,-0.02789306640625,-0.97467041015625
1759330869998,426292807,7546,14,0.18701171875,-0.02301025390625,-0.97271728515625
1759330869998,426292807,7546,15,0.1865234375,-0.02301025390625,-0.97198486328125
1759330869998,426292807,7546,16,0.186279296875,-0.02301025390625,-0.97003173828125
1759330869998,426292807,7546,17,0.182861328125,-0.01959228515625,-0.97613525390625
1759330869998,426292807,7546,18,0.17724609375,-0.01568603515625,-0.98419189453125
1759330869998,426292807,7546,19,0.236083984375,-0.00860595703125,-1.04888916015625
1759330869998,426292807,7546,20,0.385986328125,-0.02325439453125,-0.78643798828125
1759330869998,426292807,7546,21,0.394287109375,-0.03277587890625,-0.88336181640625
1759330869998,426292807,7546,22,0.39111328125,-0.03497314453125,-0.94146728515625
1759330869998,426292807,7546,23,0.427001953125,-0.04278564453125,-0.83746337890625
1759330869998,426292807,7546,24,0.427978515625,-0.04693603515625,-0.88629150390625
1759330869998,426292807,7546,25,0.430908203125,-0.05645751953125,-0.86260986328125
1759330869998,426292807,7546,26,0.430419921875,-0.05279541015625,-0.89263916015625
1759330869998,426292807,7546,27,0.459716796875,-0.06500244140625,-0.83258056640625
1759330869998,426292807,7546,28,0.448486328125,-0.06085205078125,-0.84869384765625
1759330869998,426292807,7546,29,0.432373046875,-0.05596923828125,-0.92218017578125
1759330869998,426292807,7546,30,0.46044921875,-0.06573486328125,-0.77032470703125
1759330869998,426292807,7546,31,0.34130859375,-0.04449462890625,-0.90142822265625
1759330872698,426295350,7547,0,0.265625,-0.03033447265625,-1.03057861328125
1759330872698,426295350,7547,1,0.2802734375,-0.03057861328125,-0.94708251953125
1759330872698,426295350,7547,2,0.312744140625,-0.04156494140625,-0.89434814453125
1759330872698,426295350,7547,3,0.294921875,-0.03399658203125,-0.98419189453125
1759330872698,426295350,7547,4,0.3349609375,-0.04010009765625,-0.90484619140625
1759330872698,426295350,7547,5,0.33447265625,-0.04473876953125,-0.85406494140625
1759330872698,426295350,7547,6,0.2880859375,-0.03277587890625,-1.00079345703125
1759330872698,426295350,7547,7,0.296142578125,-0.03497314453125,-0.91168212890625
1759330872698,426295350,7547,8,0.278076171875,-0.03082275390625,-0.95831298828125
1759330872698,426295350,7547,9,0.2958984375,-0.03228759765625,-0.94342041015625
1759330872698,426295350,7547,10,0.28466796875,-0.03472900390625,-0.91070556640625
1759330872698,426295350,7547,11,0.275634765625,-0.03033447265625,-0.98175048828125
1759330872698,426295350,7547,12,0.285400390625,-0.03594970703125,-0.89947509765625
1759330872698,426295350,7547,13,0.26318359375,-0.02886962890625,-0.97100830078125
1759330872698,426295350,7547,14,0.27294921875,-0.03179931640625,-0.94732666015625
1759330872698,426295350,7547,15,0.26123046875,-0.02838134765625,-0.93267822265625
1759330872698,426295350,7547,16,0.258056640625,-0.02423095703125,-0.97955322265625
1759330872698,426295350,7547,17,0.2626953125,-0.02813720703125,-0.90582275390625
1759330872698,426295350,7547,18,0.2177734375,-0.01959228515625,-0.97564697265625
1759330872698,426295350,7547,19,0.191162109375,-0.01129150390625,-0.98297119140625
1759330872698,426295350,7547,20,0.177734375,-0.01080322265625,-0.97613525390625
1759330872698,426295350,7547,21,0.1767578125,-0.00933837890625,-0.97467041015625
1759330872698,426295350,7547,22,0.17333984375,-0.01251220703125,-0.97711181640625
1759330872698,426295350,7547,23,0.173583984375,-0.01324462890625,-0.97735595703125
1759330872698,426295350,7547,24,0.166259765625,-0.00689697265625,-1.01153564453125
1759330872698,426295350,7547,25,0.274658203125,-0.00787353515625,-0.98223876953125
1759330872698,426295350,7547,26,0.375244140625,-0.03814697265625,-0.81549072265625
1759330872698,426295350,7547,27,0.361572265625,-0.03814697265625,-0.87945556640625
1759330872698,426295350,7547,28,0.2939453125,-0.03204345703125,-0.99273681640625
1759330872698,426295350,7547,29,0.31689453125,-0.04034423828125,-0.91632080078125
1759330872698,426295350,7547,30,0.31005859375,-0.03594970703125,-0.91143798828125
1759330872698,426295350,7547,31,0.28125,-0.03741455078125,-0.96173095703125
1759330875098,426297893,7548,0,0.2802734375,-0.03302001953125,-0.94195556640625
1759330875098,426297893,7548,1,0.279296875,-0.03863525390625,-0.93853759765625
1759330875098,426297893,7548,2,0.279052734375,-0.03717041015625,-0.94952392578125
1759330875098,426297893,7548,3,0.282958984375,-0.03839111328125,-0.93634033203125
1759330875098,426297893,7548,4,0.280029296875,-0.03472900390625,-0.94683837890625
1759330875098,426297893,7548,5,0.280517578125,-0.03497314453125,-0.94342041015625
1759330875098,426297893,7548,6,0.27392578125,-0.03570556640625,-0.96197509765625
1759330875098,426297893,7548,7,0.31689453125,-0.03570556640625,-0.95855712890625
1759330875098,426297893,7548,8,0.400390625,-0.05181884765625,-0.80889892578125
1759330875098,426297893,7548,9,0.341552734375,-0.05499267578125,-0.96539306640625
1759330875098,426297893,7548,10,0.380859375,-0.05474853515625,-0.90362548828125
1759330875098,426297893,7548,11,0.408447265625,-0.06719970703125,-0.79986572265625
1759330875098,426297893,7548,12,0.310791015625,-0.04913330078125,-0.94512939453125
1759330875098,426297893,7548,13,0.23583984375,-0.03668212890625,-0.99005126953125
1759330875098,426297893,7548,14,0.197021484375,-0.02545166015625,-0.98150634765625
1759330875098,426297893,7548,15,0.17822265625,-0.02227783203125,-0.97393798828125
1759330875098,426297893,7548,16,0.173583984375,-0.01739501953125,-0.98394775390625
1759330875098,426297893,7548,17,0.169189453125,-0.01959228515625,-0.97613525390625
1759330875098,426297893,7548,18,0.174072265625,-0.01861572265625,-0.97442626953125
1759330875098,426297893,7548,19,0.17578125,-0.01885986328125,-0.97979736328125
1759330875098,426297893,7548,20,0.181396484375,-0.01983642578125,-0.98004150390625
1759330875098,426297893,7548,21,0.190185546875,-0.01568603515625,-1.01812744140625
1759330875098,426297893,7548,22,0.31787109375,-0.01495361328125,-0.90362548828125
1759330875098,426297893,7548,23,0.36962890625,-0.03204345703125,-0.85650634765625
1759330875098,426297893,7548,24,0.368896484375,-0.03326416015625,-0.94879150390625
1759330875098,426297893,7548,25,0.4091796875,-0.04522705078125,-0.87286376953125
1759330875098,426297893,7548,26,0.4228515625,-0.04815673828125,-0.85357666015625
1759330875098,426297893,7548,27,0.41845703125,-0.04840087890625,-0.91314697265625
1759330875098,426297893,7548,28,0.441650390625,-0.05865478515625,-0.82989501953125
1759330875098,426297893,7548,29,0.435791015625,-0.05352783203125,-0.88409423828125
1759330875098,426297893,7548,30,0.433349609375,-0.05841064453125,-0.87188720703125
1759330875098,426297893,7548,31,0.423095703125,-0.05548095703125,-0.87945556640625
1759330877656,426300436,7549,0,0.43310546875,-0.05694580078125,-0.89532470703125
1759330877656,426300436,7549,1,0.458251953125,-0.06719970703125,-0.82720947265625
1759330877656,426300436,7549,2,0.46533203125,-0.06329345703125,-0.87506103515625
1759330877656,426300436,7549,3,0.477783203125,-0.06475830078125,-0.83111572265625
1759330877656,426300436,7549,4,0.475830078125,-0.06207275390625,-0.84527587890625
1759330877656,426300436,7549,5,0.4755859375,-0.06622314453125,-0.83477783203125
1759330877656,426300436,7549,6,0.447021484375,-0.06158447265625,-0.82159423828125
1759330877656,426300436,7549,7,0.3671875,-0.04083251953125,-0.94366455078125
1759330877656,426300436,7549,8,0.34033203125,-0.03985595703125,-0.93658447265625
1759330877656,426300436,7549,9,0.331787109375,-0.04302978515625,-0.95123291015625
1759330877656,426300436,7549,10,0.418701171875,-0.04547119140625,-0.89947509765625
1759330877656,426300436,7549,11,0.457275390625,-0.06402587890625,-0.76031494140625
1759330877656,426300436,7549,12,0.41845703125,-0.05548095703125,-0.93756103515625
1759330877656,426300436,7549,13,0.437744140625,-0.05767822265625,-0.86651611328125
1759330877656,426300436,7549,14,0.4521484375,-0.06451416015625,-0.80499267578125
1759330877656,426300436,7549,15,0.412109375,-0.05084228515625,-0.97418212890625
