receivedPhoneTimestamp,respeckTimestamp,packetSeqNum,sampleSeqNum,accelX,accelY,accelZ
1760020559182,78333279,976,0,-0.021240234375,-1.02886962890625,0.16766357421875
1760020559182,78333279,976,1,-0.02880859375,-1.03741455078125,0.14422607421875
1760020559182,78333279,976,2,-0.04296875,-1.03277587890625,0.14593505859375
1760020559182,78333279,976,3,-0.037353515625,-1.04913330078125,0.16741943359375
1760020559182,78333279,976,4,-0.039306640625,-1.05792236328125,0.13739013671875
1760020559182,78333279,976,5,-0.04052734375,-1.04644775390625,0.15936279296875
1760020559182,78333279,976,6,-0.033447265625,-1.03399658203125,0.15057373046875
1760020559182,78333279,976,7,-0.0322265625,-1.04522705078125,0.17913818359375
1760020559182,78333279,976,8,-0.0205078125,-1.03179931640625,0.17303466796875
1760020559182,78333279,976,9,-0.02685546875,-1.03472900390625,0.18304443359375
1760020559182,78333279,976,10,-0.03076171875,-1.03643798828125,0.16204833984375
1760020559182,78333279,976,11,-0.025634765625,-1.03985595703125,0.17083740234375
1760020559182,78333279,976,12,-0.02685546875,-1.03033447265625,0.18206787109375
1760020559182,78333279,976,13,-0.02197265625,-1.03521728515625,0.18817138671875
1760020559182,78333279,976,14,-0.018310546875,-1.02789306640625,0.16986083984375
1760020559182,78333279,976,15,-0.0166015625,-1.02911376953125,0.17816162109375
1760020559182,78333279,976,16,-0.02001953125,-1.04058837890625,0.18426513671875
1760020559182,78333279,976,17,-0.013671875,-1.03131103515625,0.18035888671875
1760020559182,78333279,976,18,-0.013671875,-1.03741455078125,0.17987060546875
1760020559182,78333279,976,19,-0.010986328125,-1.03936767578125,0.17523193359375
1760020559182,78333279,976,20,-0.01806640625,-1.03912353515625,0.17352294921875
1760020559182,78333279,976,21,-0.0166015625,-1.03839111328125,0.16986083984375
1760020559182,78333279,976,22,-0.0205078125,-1.03985595703125,0.18060302734375
1760020559182,78333279,976,23,-0.01513671875,-1.03741455078125,0.17327880859375
1760020559182,78333279,976,24,-0.019287109375,-1.03692626953125,0.17401123046875
1760020559182,78333279,976,25,-0.017578125,-1.03887939453125,0.17474365234375
1760020559182,78333279,976,26,-0.015380859375,-1.03619384765625,0.17083740234375
1760020559182,78333279,976,27,-0.020263671875,-1.03790283203125,0.16815185546875
1760020559182,78333279,976,28,-0.016357421875,-1.02911376953125,0.17401123046875
1760020559182,78333279,976,29,-0.012939453125,-1.03961181640625,0.16400146484375
1760020559182,78333279,976,30,-0.014892578125,-1.03643798828125,0.17279052734375
1760020559182,78333279,976,31,-0.013427734375,-1.03594970703125,0.17083740234375
1760020561727,78335852,977,0,-0.017578125,-1.03839111328125,0.16961669921875
1760020561727,78335852,977,1,-0.016845703125,-1.03448486328125,0.16864013671875
1760020561727,78335852,977,2,-0.010986328125,-1.03546142578125,0.17132568359375
1760020561727,78335852,977,3,-0.022705078125,-1.04571533203125,0.17645263671875
1760020561727,78335852,977,4,-0.009521484375,-1.05059814453125,0.17913818359375
1760020561727,78335852,977,5,-0.012939453125,-1.03057861328125,0.16790771484375
1760020561727,78335852,977,6,-0.009521484375,-1.02447509765625,0.16156005859375
1760020561727,78335852,977,7,-0.008056640625,-1.04718017578125,0.16058349609375
1760020561727,78335852,977,8,-0.002197265625,-1.04205322265625,0.16351318359375
1760020561727,78335852,977,9,-0.006103515625,-1.03912353515625,0.16644287109375
1760020561727,78335852,977,10,-0.011474609375,-1.03546142578125,0.16375732421875
1760020561727,78335852,977,11,-0.01025390625,-1.03448486328125,0.17449951171875
1760020561727,78335852,977,12,-0.016357421875,-1.03790283203125,0.16668701171875
1760020561727,78335852,977,13,-0.009521484375,-1.03839111328125,0.17108154296875
1760020561727,78335852,977,14,-0.0126953125,-1.04083251953125,0.18206787109375
1760020561727,78335852,977,15,-0.013916015625,-1.03546142578125,0.17425537109375
1760020561727,78335852,977,16,-0.009765625,-1.03228759765625,0.17645263671875
1760020561727,78335852,977,17,-0.01611328125,-1.03277587890625,0.17230224609375
1760020561727,78335852,977,18,-0.0087890625,-1.02789306640625,0.17449951171875
1760020561727,78335852,977,19,-0.018798828125,-1.04962158203125,0.17596435546875
1760020561727,78335852,977,20,-0.007568359375,-1.03253173828125,0.18206787109375
1760020561727,78335852,977,21,-0.012451171875,-1.03717041015625,0.18450927734375
1760020561727,78335852,977,22,-0.01171875,-1.03790283203125,0.17449951171875
1760020561727,78335852,977,23,-0.01123046875,-1.03350830078125,0.17913818359375
1760020561727,78335852,977,24,-0.0185546875,-1.03643798828125,0.18133544921875
1760020561727,78335852,977,25,-0.017333984375,-1.03228759765625,0.17742919921875
1760020561727,78335852,977,26,-0.021240234375,-1.03057861328125,0.18133544921875
1760020561727,78335852,977,27,-0.021484375,-1.03912353515625,0.18402099609375
1760020561727,78335852,977,28,-0.015380859375,-1.03546142578125,0.18280029296875
1760020561727,78335852,977,29,-0.010986328125,-1.04010009765625,0.17498779296875
1760020561727,78335852,977,30,-0.01416015625,-1.03424072265625,0.17889404296875
1760020561727,78335852,977,31,-0.013916015625,-1.03472900390625,0.18109130859375
1760020564431,78338425,978,0,-0.009765625,-1.03399658203125,0.17889404296875
1760020564431,78338425,978,1,-0.006591796875,-1.03619384765625,0.17864990234375
1760020564431,78338425,978,2,-0.009765625,-1.03765869140625,0.17694091796875
1760020564431,78338425,978,3,-0.008056640625,-1.02886962890625,0.19110107421875
1760020564431,78338425,978,4,-0.01611328125,-1.02984619140625,0.19427490234375
1760020564431,78338425,978,5,-0.00634765625,-1.03399658203125,0.18084716796875
1760020564431,78338425,978,6,-0.008056640625,-1.03106689453125,0.18963623046875
1760020564431,78338425,978,7,-0.007080078125,-1.03570556640625,0.18768310546875
1760020564431,78338425,978,8,-0.010009765625,-1.03228759765625,0.18670654296875
1760020564431,78338425,978,9,-0.006591796875,-1.03106689453125,0.18841552734375
1760020564431,78338425,978,10,-0.012939453125,-1.03399658203125,0.18060302734375
1760020564431,78338425,978,11,-0.00830078125,-1.03765869140625,0.17523193359375
1760020564431,78338425,978,12,-0.010498046875,-1.03985595703125,0.17669677734375
1760020564431,78338425,978,13,-0.008544921875,-1.03302001953125,0.18060302734375
1760020564431,78338425,978,14,-0.01123046875,-1.03302001953125,0.17840576171875
1760020564431,78338425,978,15,-0.013916015625,-1.03741455078125,0.17376708984375
1760020564431,78338425,978,16,-0.0146484375,-1.03863525390625,0.17352294921875
1760020564431,78338425,978,17,-0.012939453125,-1.04205322265625,0.17498779296875
1760020564431,78338425,978,18,-0.01123046875,-1.03204345703125,0.17474365234375
1760020564431,78338425,978,19,-0.009521484375,-1.03741455078125,0.17230224609375
1760020564431,78338425,978,20,-0.01171875,-1.03643798828125,0.17181396484375
1760020564431,78338425,978,21,-0.011962890625,-1.03448486328125,0.17352294921875
1760020564431,78338425,978,22,-0.013427734375,-1.03546142578125,0.18011474609375
1760020564431,78338425,978,23,-0.0146484375,-1.03570556640625,0.17913818359375
1760020564431,78338425,978,24,-0.014404296875,-1.03790283203125,0.18377685546875
1760020564431,78338425,978,25,-0.0166015625,-1.03057861328125,0.19110107421875
1760020564431,78338425,978,26,-0.01416015625,-1.03253173828125,0.17987060546875
1760020564431,78338425,978,27,-0.0205078125,-1.03375244140625,0.19207763671875
1760020564431,78338425,978,28,-0.012939453125,-1.02935791015625,0.19085693359375
1760020564431,78338425,978,29,-0.01318359375,-1.02984619140625,0.19451904296875
1760020564431,78338425,978,30,-0.036376953125,-1.03570556640625,0.19281005859375
1760020564431,78338425,978,31,-0.027587890625,-1.03497314453125,0.17913818359375
1760020566982,78340998,979,0,-0.021240234375,-1.03424072265625,0.18621826171875
1760020566982,78340998,979,1,-0.0146484375,-1.03009033203125,0.18865966796875
1760020566982,78340998,979,2,-0.01806640625,-1.02960205078125,0.19915771484375
1760020566982,78340998,979,3,-0.020751953125,-1.02911376953125,0.18499755859375
1760020566982,78340998,979,4,-0.01953125,-1.03546142578125,0.19378662109375
1760020566982,78340998,979,5,-0.019287109375,-1.03350830078125,0.19451904296875
1760020566982,78340998,979,6,-0.022705078125,-1.03131103515625,0.19622802734375
1760020566982,78340998,979,7,-0.021240234375,-1.02984619140625,0.19769287109375
1760020566982,78340998,979,8,-0.0205078125,-1.03179931640625,0.19696044921875
1760020566982,78340998,979,9,-0.021484375,-1.03155517578125,0.19305419921875
1760020566982,78340998,979,10,-0.018798828125,-1.03350830078125,0.18890380859375
1760020566982,78340998,979,11,-0.0185546875,-1.03350830078125,0.19036865234375
1760020566982,78340998,979,12,-0.0205078125,-1.02642822265625,0.19207763671875
1760020566982,78340998,979,13,-0.018798828125,-1.02911376953125,0.20501708984375
1760020566982,78340998,979,14,-0.01708984375,-1.03668212890625,0.19378662109375
1760020566982,78340998,979,15,-0.017822265625,-1.03790283203125,0.18475341796875
1760020566982,78340998,979,16,-0.01708984375,-1.03448486328125,0.18719482421875
1760020566982,78340998,979,17,-0.017578125,-1.03546142578125,0.19183349609375
1760020566982,78340998,979,18,-0.019775390625,-1.02545166015625,0.19354248046875
1760020566982,78340998,979,19,-0.02099609375,-1.03082275390625,0.19866943359375
1760020566982,78340998,979,20,-0.009521484375,-1.03594970703125,0.18402099609375
1760020566982,78340998,979,21,-0.0166015625,-1.04058837890625,0.16839599609375
1760020566982,78340998,979,22,-0.01708984375,-1.04156494140625,0.18499755859375
1760020566982,78340998,979,23,-0.017578125,-1.03155517578125,0.19158935546875
1760020566982,78340998,979,24,-0.01220703125,-1.03277587890625,0.18865966796875
1760020566982,78340998,979,25,-0.016357421875,-1.03057861328125,0.19061279296875
1760020566982,78340998,979,26,-0.01318359375,-1.03546142578125,0.18670654296875
1760020566982,78340998,979,27,-0.014404296875,-1.03790283203125,0.18402099609375
1760020566982,78340998,979,28,-0.013671875,-1.03228759765625,0.18841552734375
1760020566982,78340998,979,29,-0.01708984375,-1.02740478515625,0.19403076171875
1760020566982,78340998,979,30,-0.011474609375,-1.03204345703125,0.18548583984375
1760020566982,78340998,979,31,-0.011962890625,-1.04083251953125,0.18963623046875
1760020569534,78343571,980,0,-0.01171875,-1.03326416015625,0.18011474609375
1760020569534,78343571,980,1,-0.013916015625,-1.03692626953125,0.18524169921875
1760020569534,78343571,980,2,-0.01318359375,-1.03131103515625,0.18792724609375
1760020569534,78343571,980,3,-0.014404296875,-1.03472900390625,0.18792724609375
1760020569534,78343571,980,4,-0.01318359375,-1.03839111328125,0.18060302734375
1760020569534,78343571,980,5,-0.01220703125,-1.03448486328125,0.17913818359375
1760020569534,78343571,980,6,-0.011962890625,-1.03228759765625,0.18280029296875
1760020569534,78343571,980,7,-0.013427734375,-1.03106689453125,0.18963623046875
1760020569534,78343571,980,8,-0.014404296875,-1.03277587890625,0.17645263671875
1760020569534,78343571,980,9,-0.019287109375,-1.03399658203125,0.18939208984375
1760020569534,78343571,980,10,-0.01708984375,-1.03814697265625,0.18304443359375
1760020569534,78343571,980,11,-0.015380859375,-1.03472900390625,0.17034912109375
1760020569534,78343571,980,12,-0.015380859375,-1.03741455078125,0.18133544921875
1760020569534,78343571,980,13,-0.01220703125,-1.03643798828125,0.17718505859375
1760020569534,78343571,980,14,-0.014892578125,-1.02935791015625,0.17230224609375
1760020569534,78343571,980,15,-0.0146484375,-1.03839111328125,0.17401123046875
1760020569534,78343571,980,16,-0.01318359375,-1.04205322265625,0.16400146484375
1760020569534,78343571,980,17,-0.013916015625,-1.04693603515625,0.15740966796875
1760020569534,78343571,980,18,-0.01220703125,-1.03814697265625,0.16009521484375
1760020569534,78343571,980,19,-0.009033203125,-1.03961181640625,0.17083740234375
1760020569534,78343571,980,20,-0.009521484375,-1.04327392578125,0.16229248046875
1760020569534,78343571,980,21,-0.009765625,-1.04229736328125,0.15423583984375
1760020569534,78343571,980,22,-0.009765625,-1.03961181640625,0.15911865234375
1760020569534,78343571,980,23,-0.01318359375,-1.03448486328125,0.16668701171875
1760020569534,78343571,980,24,-0.009765625,-1.03668212890625,0.17156982421875
1760020569534,78343571,980,25,-0.0078125,-1.03619384765625,0.16424560546875
1760020569534,78343571,980,26,-0.008544921875,-1.04058837890625,0.16400146484375
1760020569534,78343571,980,27,-0.010498046875,-1.04083251953125,0.15032958984375
1760020569534,78343571,980,28,-0.01123046875,-1.04180908203125,0.16497802734375
1760020569534,78343571,980,29,-0.008544921875,-1.04547119140625,0.16424560546875
1760020569534,78343571,980,30,-0.0107421875,-1.03497314453125,0.15936279296875
1760020569534,78343571,980,31,-0.015869140625,-1.04644775390625,0.16253662109375
1760020572082,78346144,981,0,-0.01025390625,-1.04229736328125,0.15277099609375
1760020572082,78346144,981,1,-0.012451171875,-1.04498291015625,0.15521240234375
1760020572082,78346144,981,2,-0.012451171875,-1.03814697265625,0.15887451171875
1760020572082,78346144,981,3,-0.011474609375,-1.02935791015625,0.16839599609375
1760020572082,78346144,981,4,-0.012939453125,-1.03692626953125,0.16082763671875
1760020572082,78346144,981,5,-0.01513671875,-1.04254150390625,0.16717529296875
1760020572082,78346144,981,6,-0.014404296875,-1.04644775390625,0.16058349609375
1760020572082,78346144,981,7,-0.010986328125,-1.03790283203125,0.15789794921875
1760020572082,78346144,981,8,-0.011962890625,-1.03692626953125,0.16888427734375
1760020572082,78346144,981,9,-0.017333984375,-1.02691650390625,0.17010498046875
1760020572082,78346144,981,10,-0.016357421875,-1.04400634765625,0.16912841796875
1760020572082,78346144,981,11,-0.0078125,-1.04278564453125,0.15008544921875
1760020572082,78346144,981,12,-0.0107421875,-1.05084228515625,0.15008544921875
1760020572082,78346144,981,13,-0.01171875,-1.03887939453125,0.15130615234375
1760020572082,78346144,981,14,-0.01171875,-1.02984619140625,0.17254638671875
1760020572082,78346144,981,15,-0.015625,-1.03399658203125,0.17108154296875
1760020572082,78346144,981,16,-0.0107421875,-1.04083251953125,0.16131591796875
1760020572082,78346144,981,17,-0.011474609375,-1.04718017578125,0.15936279296875
1760020572082,78346144,981,18,-0.01025390625,-1.04254150390625,0.15692138671875
1760020572082,78346144,981,19,-0.00927734375,-1.03741455078125,0.17132568359375
1760020572082,78346144,981,20,-0.013427734375,-1.02935791015625,0.17108154296875
1760020572082,78346144,981,21,-0.0185546875,-1.03668212890625,0.18377685546875
1760020572082,78346144,981,22,-0.010986328125,-1.04400634765625,0.16204833984375
1760020572082,78346144,981,23,-0.00927734375,-1.05010986328125,0.15496826171875
1760020572082,78346144,981,24,-0.00732421875,-1.04718017578125,0.15667724609375
1760020572082,78346144,981,25,-0.005859375,-1.02471923828125,0.17034912109375
1760020572082,78346144,981,26,-0.01904296875,-1.02593994140625,0.19256591796875
1760020572082,78346144,981,27,-0.010986328125,-1.03619384765625,0.17864990234375
1760020572082,78346144,981,28,-0.012939453125,-1.04132080078125,0.16278076171875
1760020572082,78346144,981,29,-0.01513671875,-1.04742431640625,0.15667724609375
1760020572082,78346144,981,30,-0.005615234375,-1.03570556640625,0.16937255859375
1760020572082,78346144,981,31,-0.01611328125,-1.01910400390625,0.17279052734375
1760020574635,78348718,982,0,-0.02001953125,-1.03887939453125,0.18890380859375
1760020574635,78348718,982,1,-0.0107421875,-1.04791259765625,0.15130615234375
1760020574635,78348718,982,2,-0.0029296875,-1.05303955078125,0.14007568359375
1760020574635,78348718,982,3,-0.0078125,-1.04425048828125,0.15789794921875
1760020574635,78348718,982,4,-0.009521484375,-1.02960205078125,0.17010498046875
1760020574635,78348718,982,5,-0.01025390625,-1.04156494140625,0.16229248046875
1760020574635,78348718,982,6,-0.00537109375,-1.04522705078125,0.15252685546875
1760020574635,78348718,982,7,-0.010498046875,-1.04254150390625,0.15716552734375
1760020574635,78348718,982,8,-0.0029296875,-1.03424072265625,0.15032958984375
1760020574635,78348718,982,9,-0.009521484375,-1.04302978515625,0.16033935546875
1760020574635,78348718,982,10,-0.00830078125,-1.04058837890625,0.15667724609375
1760020574635,78348718,982,11,-0.00732421875,-1.03765869140625,0.15545654296875
1760020574635,78348718,982,12,-0.003173828125,-1.03692626953125,0.15496826171875
1760020574635,78348718,982,13,-0.0068359375,-1.04815673828125,0.14593505859375
1760020574635,78348718,982,14,-0.005615234375,-1.04156494140625,0.15008544921875
1760020574635,78348718,982,15,-0.00927734375,-1.03350830078125,0.16204833984375
1760020574635,78348718,982,16,-0.00146484375,-1.03961181640625,0.16864013671875
1760020574635,78348718,982,17,-0.006103515625,-1.04376220703125,0.14447021484375
1760020574635,78348718,982,18,0.0,-1.04937744140625,0.15325927734375
1760020574635,78348718,982,19,-0.002197265625,-1.04058837890625,0.15594482421875
1760020574635,78348718,982,20,-0.0009765625,-1.03106689453125,0.16424560546875
1760020574635,78348718,982,21,-0.007568359375,-1.03643798828125,0.16986083984375
1760020574635,78348718,982,22,-0.003662109375,-1.03765869140625,0.16937255859375
1760020574635,78348718,982,23,-0.002197265625,-1.03961181640625,0.16961669921875
1760020574635,78348718,982,24,-0.007080078125,-1.03424072265625,0.15472412109375
1760020574635,78348718,982,25,-0.003173828125,-1.03253173828125,0.16522216796875
1760020574635,78348718,982,26,-0.00341796875,-1.04547119140625,0.17034912109375
1760020574635,78348718,982,27,0.000732421875,-1.04058837890625,0.16424560546875
1760020574635,78348718,982,28,0.00341796875,-1.04229736328125,0.15985107421875
1760020574635,78348718,982,29,0.00439453125,-1.04669189453125,0.15350341796875
1760020574635,78348718,982,30,0.00830078125,-1.03692626953125,0.15985107421875
1760020574635,78348718,982,31,0.0029296875,-1.04034423828125,0.16790771484375
1760020577182,78351291,983,0,-0.000732421875,-1.03057861328125,0.17181396484375
1760020577182,78351291,983,1,-0.004150390625,-1.03033447265625,0.18035888671875
1760020577182,78351291,983,2,-0.005859375,-1.03521728515625,0.16937255859375
1760020577182,78351291,983,3,0.00244140625,-1.03985595703125,0.16522216796875
1760020577182,78351291,983,4,-0.0048828125,-1.04107666015625,0.17401123046875
1760020577182,78351291,983,5,0.0048828125,-1.03277587890625,0.16448974609375
1760020577182,78351291,983,6,-0.0029296875,-1.03985595703125,0.17523193359375
1760020577182,78351291,983,7,-0.007568359375,-1.03863525390625,0.16424560546875
1760020577182,78351291,983,8,0.0009765625,-1.04644775390625,0.16009521484375
1760020577182,78351291,983,9,0.0078125,-1.04083251953125,0.16619873046875
1760020577182,78351291,983,10,0.0078125,-1.03594970703125,0.18182373046875
1760020577182,78351291,983,11,0.0029296875,-1.04718017578125,0.21527099609375
1760020577182,78351291,983,12,-0.02099609375,-1.02886962890625,0.16253662109375
1760020577182,78351291,983,13,-0.005859375,-1.03570556640625,0.20037841796875
1760020577182,78351291,983,14,-0.005615234375,-1.02203369140625,0.17254638671875
1760020577182,78351291,983,15,-0.005859375,-1.03985595703125,0.18695068359375
1760020577182,78351291,983,16,-0.0166015625,-1.02813720703125,0.20550537109375
1760020577182,78351291,983,17,-0.01025390625,-1.02789306640625,0.20062255859375
1760020577182,78351291,983,18,-0.01806640625,-1.03179931640625,0.20697021484375
1760020577182,78351291,983,19,-0.010009765625,-1.02911376953125,0.19134521484375
1760020577182,78351291,983,20,-0.00390625,-1.03228759765625,0.18792724609375
1760020577182,78351291,983,21,-0.00634765625,-1.03253173828125,0.18182373046875
1760020577182,78351291,983,22,-0.007568359375,-1.03521728515625,0.20306396484375
1760020577182,78351291,983,23,-0.01171875,-1.03009033203125,0.19329833984375
1760020577182,78351291,983,24,-0.009033203125,-1.02667236328125,0.19915771484375
1760020577182,78351291,983,25,-0.00732421875,-1.03228759765625,0.19500732421875
1760020577182,78351291,983,26,-0.0068359375,-1.03717041015625,0.19134521484375
1760020577182,78351291,983,27,-0.00830078125,-1.03131103515625,0.19622802734375
1760020577182,78351291,983,28,-0.012451171875,-1.02593994140625,0.20281982421875
1760020577182,78351291,983,29,-0.00830078125,-1.02911376953125,0.19622802734375
1760020577182,78351291,983,30,-0.009765625,-1.03350830078125,0.18670654296875
1760020577182,78351291,983,31,-0.007568359375,-1.03302001953125,0.18695068359375
1760020579882,78353864,984,0,-0.007568359375,-1.03741455078125,0.18231201171875
1760020579882,78353864,984,1,-0.005615234375,-1.03399658203125,0.18328857421875
1760020579882,78353864,984,2,-0.007568359375,-1.03424072265625,0.18646240234375
1760020579882,78353864,984,3,-0.01025390625,-1.04034423828125,0.17694091796875
1760020579882,78353864,984,4,-0.003662109375,-1.04156494140625,0.16668701171875
1760020579882,78353864,984,5,-0.006103515625,-1.04278564453125,0.17010498046875
1760020579882,78353864,984,6,-0.005126953125,-1.03643798828125,0.17816162109375
1760020579882,78353864,984,7,-0.006591796875,-1.02716064453125,0.18255615234375
1760020579882,78353864,984,8,-0.011474609375,-1.03302001953125,0.18621826171875
1760020579882,78353864,984,9,-0.0009765625,-1.03546142578125,0.17889404296875
1760020579882,78353864,984,10,-0.000732421875,-1.03350830078125,0.16986083984375
1760020579882,78353864,984,11,0.0009765625,-1.03326416015625,0.18719482421875
1760020579882,78353864,984,12,-0.003173828125,-1.02764892578125,0.17938232421875
1760020579882,78353864,984,13,-0.010498046875,-1.03179931640625,0.18231201171875
1760020579882,78353864,984,14,-0.00390625,-1.04498291015625,0.17791748046875
1760020579882,78353864,984,15,0.000732421875,-1.04351806640625,0.15911865234375
1760020579882,78353864,984,16,-0.001220703125,-1.04547119140625,0.15985107421875
1760020579882,78353864,984,17,0.00146484375,-1.03302001953125,0.17034912109375
1760020579882,78353864,984,18,-0.007568359375,-1.03228759765625,0.19012451171875
1760020579882,78353864,984,19,-0.0029296875,-1.02764892578125,0.18255615234375
1760020579882,78353864,984,20,0.001220703125,-1.04156494140625,0.17523193359375
1760020579882,78353864,984,21,0.00341796875,-1.03253173828125,0.16912841796875
1760020579882,78353864,984,22,0.0009765625,-1.03765869140625,0.18353271484375
1760020579882,78353864,984,23,-0.0009765625,-1.02740478515625,0.18328857421875
1760020579882,78353864,984,24,0.001708984375,-1.03399658203125,0.19378662109375
1760020579882,78353864,984,25,0.00048828125,-1.03887939453125,0.16986083984375
1760020579882,78353864,984,26,0.007080078125,-1.02496337890625,0.14105224609375
1760020579882,78353864,984,27,0.012939453125,-1.05255126953125,0.19110107421875
1760020579882,78353864,984,28,-0.00341796875,-1.03497314453125,0.14691162109375
1760020579882,78353864,984,29,0.012451171875,-1.04571533203125,0.18377685546875
1760020579882,78353864,984,30,0.004638671875,-1.03912353515625,0.15032958984375
1760020579882,78353864,984,31,0.006591796875,-1.04547119140625,0.16546630859375
1760020582434,78356437,985,0,0.0068359375,-1.03814697265625,0.15496826171875
1760020582434,78356437,985,1,0.00048828125,-1.03863525390625,0.15936279296875
1760020582434,78356437,985,2,-0.005859375,-1.03619384765625,0.17547607421875
1760020582434,78356437,985,3,-0.009521484375,-1.03399658203125,0.17425537109375
1760020582434,78356437,985,4,-0.002197265625,-1.02984619140625,0.16278076171875
1760020582434,78356437,985,5,0.000732421875,-1.04107666015625,0.17327880859375
1760020582434,78356437,985,6,0.004150390625,-1.04302978515625,0.14666748046875
1760020582434,78356437,985,7,-0.004150390625,-1.03839111328125,0.15838623046875
1760020582434,78356437,985,8,-0.001953125,-1.03790283203125,0.16668701171875
1760020582434,78356437,985,9,-0.006103515625,-1.03863525390625,0.15155029296875
1760020582434,78356437,985,10,0.001708984375,-1.04376220703125,0.14886474609375
1760020582434,78356437,985,11,0.0029296875,-1.04791259765625,0.14642333984375
1760020582434,78356437,985,12,0.0,-1.03961181640625,0.14984130859375
1760020582434,78356437,985,13,0.002197265625,-1.06158447265625,0.18499755859375
1760020582434,78356437,985,14,-0.031494140625,-1.05523681640625,0.18890380859375
1760020582434,78356437,985,15,0.005859375,-1.02471923828125,0.15692138671875
1760020582434,78356437,985,16,-0.009033203125,-1.00518798828125,0.13275146484375
1760020582434,78356437,985,17,-0.00537109375,-1.04595947265625,0.21917724609375
1760020582434,78356437,985,18,-0.011474609375,-1.02520751953125,0.18133544921875
1760020582434,78356437,985,19,-0.02099609375,-1.02935791015625,0.19866943359375
1760020582434,78356437,985,20,-0.02099609375,-1.03131103515625,0.19915771484375
1760020582434,78356437,985,21,-0.017578125,-1.02667236328125,0.18035888671875
1760020582434,78356437,985,22,0.007568359375,-1.01690673828125,0.15081787109375
1760020582434,78356437,985,23,-0.025390625,-1.06695556640625,0.21600341796875
1760020582434,78356437,985,24,-0.01708984375,-1.02423095703125,0.14373779296875
1760020582434,78356437,985,25,-0.011474609375,-1.05718994140625,0.19183349609375
1760020582434,78356437,985,26,-0.014892578125,-1.03765869140625,0.17010498046875
1760020582434,78356437,985,27,-0.00244140625,-1.03521728515625,0.16082763671875
1760020582434,78356437,985,28,-0.009033203125,-1.04693603515625,0.18182373046875
1760020582434,78356437,985,29,-0.006103515625,-1.03619384765625,0.17669677734375
1760020582434,78356437,985,30,-0.020263671875,-1.02520751953125,0.18035888671875
1760020582434,78356437,985,31,-0.0244140625,-1.03326416015625,0.19525146484375
1760020584986,78359010,986,0,-0.023193359375,-1.02984619140625,0.18817138671875
1760020584986,78359010,986,1,-0.016357421875,-1.03448486328125,0.17303466796875
1760020584986,78359010,986,2,-0.025634765625,-1.03375244140625,0.17913818359375
1760020584986,78359010,986,3,-0.01708984375,-1.03497314453125,0.18499755859375
1760020584986,78359010,986,4,-0.02685546875,-1.06402587890625,0.20013427734375
1760020584986,78359010,986,5,-0.026123046875,-1.02545166015625,0.15618896484375
1760020584986,78359010,986,6,-0.015869140625,-1.02886962890625,0.16571044921875
1760020584986,78359010,986,7,-0.02197265625,-1.04107666015625,0.17254638671875
1760020584986,78359010,986,8,-0.015625,-1.03643798828125,0.18133544921875
1760020584986,78359010,986,9,-0.021240234375,-1.03594970703125,0.18280029296875
1760020584986,78359010,986,10,-0.02001953125,-1.03350830078125,0.18499755859375
1760020584986,78359010,986,11,-0.015625,-1.03106689453125,0.17572021484375
1760020584986,78359010,986,12,-0.02197265625,-1.03619384765625,0.18157958984375
1760020584986,78359010,986,13,-0.01318359375,-1.02960205078125,0.17083740234375
1760020584986,78359010,986,14,-0.0107421875,-1.03326416015625,0.17449951171875
1760020584986,78359010,986,15,-0.013427734375,-1.03814697265625,0.17669677734375
1760020584986,78359010,986,16,-0.016845703125,-1.03936767578125,0.16912841796875
1760020584986,78359010,986,17,-0.009521484375,-1.03814697265625,0.16571044921875
1760020584986,78359010,986,18,-0.009033203125,-1.03936767578125,0.16448974609375
1760020584986,78359010,986,19,-0.009033203125,-1.03717041015625,0.16790771484375
1760020584986,78359010,986,20,-0.0107421875,-1.03497314453125,0.16815185546875
1760020584986,78359010,986,21,-0.009521484375,-1.03765869140625,0.16375732421875
1760020584986,78359010,986,22,-0.01171875,-1.04156494140625,0.16131591796875
1760020584986,78359010,986,23,-0.012451171875,-1.03814697265625,0.16302490234375
1760020584986,78359010,986,24,-0.009521484375,-1.04400634765625,0.16278076171875
1760020584986,78359010,986,25,-0.013916015625,-1.04107666015625,0.16302490234375
1760020584986,78359010,986,26,-0.011474609375,-1.04229736328125,0.16522216796875
1760020584986,78359010,986,27,-0.01318359375,-1.03765869140625,0.16058349609375
1760020584986,78359010,986,28,-0.01025390625,-1.04302978515625,0.15911865234375
1760020584986,78359010,986,29,-0.007568359375,-1.03887939453125,0.16302490234375
1760020584986,78359010,986,30,-0.00830078125,-1.03521728515625,0.16180419921875
1760020584986,78359010,986,31,-0.011962890625,-1.04156494140625,0.16937255859375
1760020587535,78361583,987,0,-0.01171875,-1.03546142578125,0.16473388671875
1760020587535,78361583,987,1,-0.0087890625,-1.03717041015625,0.16937255859375
1760020587535,78361583,987,2,-0.009765625,-1.03936767578125,0.16619873046875
1760020587535,78361583,987,3,-0.01025390625,-1.04034423828125,0.16497802734375
1760020587535,78361583,987,4,-0.011474609375,-1.03570556640625,0.16864013671875
1760020587535,78361583,987,5,-0.00732421875,-1.03912353515625,0.16864013671875
1760020587535,78361583,987,6,-0.013916015625,-1.04547119140625,0.16595458984375
1760020587535,78361583,987,7,-0.00927734375,-1.03033447265625,0.16937255859375
1760020587535,78361583,987,8,-0.011962890625,-1.04669189453125,0.16058349609375
1760020587535,78361583,987,9,-0.00830078125,-1.03424072265625,0.16424560546875
1760020587535,78361583,987,10,-0.010498046875,-1.03863525390625,0.17230224609375
1760020587535,78361583,987,11,-0.01025390625,-1.03521728515625,0.16351318359375
1760020587535,78361583,987,12,-0.009521484375,-1.03619384765625,0.16766357421875
1760020587535,78361583,987,13,-0.00927734375,-1.03814697265625,0.16668701171875
1760020587535,78361583,987,14,-0.010986328125,-1.04351806640625,0.16717529296875
1760020587535,78361583,987,15,-0.004638671875,-1.03863525390625,0.16571044921875
1760020587535,78361583,987,16,-0.009521484375,-1.03887939453125,0.16326904296875
1760020587535,78361583,987,17,-0.013427734375,-1.04010009765625,0.16497802734375
1760020587535,78361583,987,18,-0.007080078125,-1.04254150390625,0.16229248046875
1760020587535,78361583,987,19,-0.0048828125,-1.03839111328125,0.15838623046875
1760020587535,78361583,987,20,-0.0068359375,-1.04229736328125,0.15911865234375
1760020587535,78361583,987,21,-0.0068359375,-1.03741455078125,0.15667724609375
1760020587535,78361583,987,22,-0.005615234375,-1.04205322265625,0.15789794921875
1760020587535,78361583,987,23,-0.01416015625,-1.04473876953125,0.15545654296875
1760020587535,78361583,987,24,-0.0029296875,-1.04205322265625,0.15081787109375
1760020587535,78361583,987,25,-0.00537109375,-1.04522705078125,0.15863037109375
1760020587535,78361583,987,26,-0.005859375,-1.03790283203125,0.14593505859375
1760020587535,78361583,987,27,-0.008056640625,-1.04400634765625,0.15692138671875
1760020587535,78361583,987,28,-0.007568359375,-1.04058837890625,0.15594482421875
1760020587535,78361583,987,29,-0.00927734375,-1.04180908203125,0.15887451171875
1760020587535,78361583,987,30,-0.005126953125,-1.04254150390625,0.15716552734375
1760020587535,78361583,987,31,-0.004150390625,-1.04132080078125,0.15106201171875
