receivedPhoneTimestamp,respeckTimestamp,packetSeqNum,sampleSeqNum,accelX,accelY,accelZ
1759920374086,1123156163,37064,25,-0.177978515625,-0.99127197265625,0.03924560546875
1759920374086,1123156163,37064,26,-0.211181640625,-0.95709228515625,0.06097412109375
1759920374086,1123156163,37064,27,-0.140869140625,-0.97467041015625,0.06805419921875
1759920374086,1123156163,37064,28,-0.14306640625,-1.01837158203125,0.01361083984375
1759920374086,1123156163,37064,29,-0.096435546875,-0.95074462890625,-0.00909423828125
1759920374086,1123156163,37064,30,-0.00634765625,-1.00592041015625,-0.05059814453125
1759920374086,1123156163,37064,31,-0.082275390625,-1.00762939453125,-0.01446533203125
1759920376606,1123158736,37065,0,-0.0830078125,-1.01641845703125,-0.04962158203125
1759920376606,1123158736,37065,1,-0.12158203125,-1.01177978515625,-0.02960205078125
1759920376606,1123158736,37065,2,-0.127685546875,-0.98419189453125,-0.05841064453125
1759920376606,1123158736,37065,3,-0.089599609375,-0.99566650390625,-0.05108642578125
1759920376606,1123158736,37065,4,-0.075439453125,-1.00469970703125,-0.07843017578125
1759920376606,1123158736,37065,5,-0.079833984375,-1.01129150390625,-0.06134033203125
1759920376606,1123158736,37065,6,-0.0830078125,-1.00567626953125,-0.08551025390625
1759920376606,1123158736,37065,7,-0.062255859375,-0.99664306640625,-0.06231689453125
1759920376606,1123158736,37065,8,-0.080322265625,-0.99566650390625,-0.04742431640625
1759920376606,1123158736,37065,9,-0.073486328125,-1.00518798828125,-0.05621337890625
1759920376606,1123158736,37065,10,-0.09033203125,-1.00836181640625,-0.02789306640625
1759920376606,1123158736,37065,11,-0.08251953125,-1.00128173828125,-0.03546142578125
1759920376606,1123158736,37065,12,-0.082275390625,-0.99273681640625,-0.05084228515625
1759920376606,1123158736,37065,13,-0.090087890625,-0.99615478515625,-0.03009033203125
1759920376606,1123158736,37065,14,-0.0908203125,-0.99835205078125,-0.01202392578125
1759920376606,1123158736,37065,15,-0.0771484375,-1.00909423828125,-0.03326416015625
1759920376606,1123158736,37065,16,-0.082275390625,-0.98858642578125,-0.00982666015625
1759920376606,1123158736,37065,17,-0.09033203125,-0.99761962890625,-0.01495361328125
1759920376606,1123158736,37065,18,-0.091552734375,-0.99737548828125,-0.02569580078125
1759920376606,1123158736,37065,19,-0.09130859375,-0.99908447265625,-0.01617431640625
1759920376606,1123158736,37065,20,-0.081787109375,-0.99835205078125,-0.01446533203125
1759920376606,1123158736,37065,21,-0.08447265625,-0.99249267578125,-0.00299072265625
1759920376606,1123158736,37065,22,-0.082763671875,-1.00933837890625,-0.02960205078125
1759920376606,1123158736,37065,23,-0.0908203125,-0.99542236328125,-0.01422119140625
1759920376606,1123158736,37065,24,-0.091796875,-0.99688720703125,-0.01348876953125
1759920376606,1123158736,37065,25,-0.089111328125,-0.99859619140625,-0.02374267578125
1759920376606,1123158736,37065,26,-0.089111328125,-0.99053955078125,-0.01397705078125
1759920376606,1123158736,37065,27,-0.094482421875,-0.99786376953125,0.00921630859375
1759920376606,1123158736,37065,28,-0.0751953125,-1.01300048828125,-0.00030517578125
1759920376606,1123158736,37065,29,-0.098876953125,-0.97784423828125,0.01727294921875
1759920376606,1123158736,37065,30,-0.082763671875,-0.99884033203125,-0.01666259765625
1759920376606,1123158736,37065,31,-0.0986328125,-1.00103759765625,0.00531005859375
1759920379126,1123161309,37066,0,-0.09033203125,-0.99761962890625,0.00213623046875
1759920379126,1123161309,37066,1,-0.082275390625,-1.00201416015625,-0.00518798828125
1759920379126,1123161309,37066,2,-0.07958984375,-0.98785400390625,-0.00885009765625
1759920379126,1123161309,37066,3,-0.091796875,-0.99493408203125,0.01190185546875
1759920379126,1123161309,37066,4,-0.09130859375,-1.00421142578125,0.00946044921875
1759920379126,1123161309,37066,5,-0.09033203125,-0.99493408203125,0.01116943359375
1759920379126,1123161309,37066,6,-0.094970703125,-0.99517822265625,0.00701904296875
1759920379126,1123161309,37066,7,-0.087646484375,-0.99468994140625,-0.00152587890625
1759920379126,1123161309,37066,8,-0.080322265625,-0.98590087890625,0.01336669921875
1759920379126,1123161309,37066,9,-0.099609375,-0.99151611328125,0.03070068359375
1759920379126,1123161309,37066,10,-0.085205078125,-1.00567626953125,0.04608154296875
1759920379126,1123161309,37066,11,-0.089599609375,-0.99151611328125,0.02923583984375
1759920379126,1123161309,37066,12,-0.09375,-0.99200439453125,0.00604248046875
1759920379126,1123161309,37066,13,-0.095458984375,-0.98858642578125,-0.00054931640625
1759920379126,1123161309,37066,14,-0.09619140625,-1.00323486328125,0.00360107421875
1759920379126,1123161309,37066,15,-0.087158203125,-0.99835205078125,0.03753662109375
1759920379126,1123161309,37066,16,-0.064453125,-0.99786376953125,0.01873779296875
1759920379126,1123161309,37066,17,-0.0810546875,-0.99346923828125,0.01458740234375
1759920379126,1123161309,37066,18,-0.08251953125,-0.99786376953125,0.00286865234375
1759920379126,1123161309,37066,19,-0.083251953125,-0.99908447265625,-0.01177978515625
1759920379126,1123161309,37066,20,-0.077880859375,-0.99664306640625,-0.00592041015625
1759920379126,1123161309,37066,21,-0.0791015625,-1.00152587890625,-0.00665283203125
1759920379126,1123161309,37066,22,-0.087890625,-0.99713134765625,-0.02447509765625
1759920379126,1123161309,37066,23,-0.06884765625,-0.99298095703125,-0.05035400390625
1759920379126,1123161309,37066,24,-0.0615234375,-0.98883056640625,-0.05670166015625
1759920379126,1123161309,37066,25,-0.074462890625,-1.00836181640625,-0.02154541015625
1759920379126,1123161309,37066,26,-0.08203125,-1.00885009765625,-0.04815673828125
1759920379126,1123161309,37066,27,-0.08837890625,-0.99273681640625,-0.03790283203125
1759920379126,1123161309,37066,28,-0.091064453125,-1.00347900390625,-0.03033447265625
1759920379126,1123161309,37066,29,-0.086181640625,-1.00274658203125,-0.04083251953125
1759920379126,1123161309,37066,30,-0.0751953125,-1.00079345703125,-0.03179931640625
1759920379126,1123161309,37066,31,-0.08349609375,-0.99957275390625,-0.04791259765625
1759920381826,1123163883,37067,0,-0.083740234375,-0.99322509765625,-0.03765869140625
1759920381826,1123163883,37067,1,-0.08154296875,-0.99615478515625,-0.04571533203125
1759920381826,1123163883,37067,2,-0.069091796875,-0.99639892578125,-0.01959228515625
1759920381826,1123163883,37067,3,-0.075439453125,-0.99542236328125,-0.00958251953125
1759920381826,1123163883,37067,4,-0.071044921875,-1.00103759765625,-0.02423095703125
1759920381826,1123163883,37067,5,-0.071533203125,-1.00250244140625,-0.02325439453125
1759920381826,1123163883,37067,6,-0.07958984375,-0.99713134765625,-0.03594970703125
1759920381826,1123163883,37067,7,-0.0732421875,-0.99517822265625,-0.03399658203125
1759920381826,1123163883,37067,8,-0.076171875,-0.99737548828125,-0.00787353515625
1759920381826,1123163883,37067,9,-0.076416015625,-1.00152587890625,-0.00958251953125
1759920381826,1123163883,37067,10,-0.076171875,-1.00396728515625,-0.01202392578125
1759920381826,1123163883,37067,11,-0.071533203125,-1.00299072265625,-0.02813720703125
1759920381826,1123163883,37067,12,-0.070068359375,-0.99053955078125,-0.03302001953125
1759920381826,1123163883,37067,13,-0.079345703125,-0.97100830078125,-0.03155517578125
1759920381826,1123163883,37067,14,-0.0537109375,-1.02569580078125,0.03094482421875
1759920381826,1123163883,37067,15,-0.08447265625,-1.01422119140625,-0.00592041015625
1759920381826,1123163883,37067,16,-0.083984375,-0.99102783203125,-0.01837158203125
1759920381826,1123163883,37067,17,-0.067626953125,-0.99127197265625,-0.01080322265625
1759920381826,1123163883,37067,18,-0.081787109375,-0.99664306640625,-0.00469970703125
1759920381826,1123163883,37067,19,-0.0810546875,-1.00250244140625,0.00994873046875
1759920381826,1123163883,37067,20,-0.05810546875,-1.00860595703125,-0.01617431640625
1759920381826,1123163883,37067,21,-0.083251953125,-0.99517822265625,0.00238037109375
1759920381826,1123163883,37067,22,-0.082275390625,-0.98590087890625,0.01165771484375
1759920381826,1123163883,37067,23,-0.104736328125,-1.02716064453125,0.02996826171875
1759920381826,1123163883,37067,24,-0.065673828125,-0.99005126953125,-0.03790283203125
1759920381826,1123163883,37067,25,-0.100830078125,-1.00103759765625,-0.02252197265625
1759920381826,1123163883,37067,26,-0.068115234375,-0.99127197265625,-0.05523681640625
1759920381826,1123163883,37067,27,-0.076904296875,-0.97637939453125,-0.06011962890625
1759920381826,1123163883,37067,28,-0.093017578125,-0.99981689453125,-0.02301025390625
1759920381826,1123163883,37067,29,-0.083740234375,-1.01812744140625,-0.06158447265625
1759920381826,1123163883,37067,30,-0.074951171875,-0.99908447265625,-0.08502197265625
1759920381826,1123163883,37067,31,-0.077392578125,-0.99249267578125,-0.09967041015625
1759920384335,1123166456,37068,0,-0.07421875,-1.00103759765625,-0.09649658203125
1759920384335,1123166456,37068,1,-0.076171875,-1.01715087890625,-0.09869384765625
1759920384335,1123166456,37068,2,-0.07666015625,-1.01446533203125,-0.08575439453125
1759920384335,1123166456,37068,3,-0.068359375,-0.99639892578125,-0.07745361328125
1759920384335,1123166456,37068,4,-0.091796875,-0.97735595703125,-0.07696533203125
1759920384335,1123166456,37068,5,-0.067626953125,-0.98223876953125,-0.09307861328125
1759920384335,1123166456,37068,6,-0.083984375,-1.00469970703125,-0.07818603515625
1759920384335,1123166456,37068,7,-0.06005859375,-1.02325439453125,-0.11871337890625
1759920384335,1123166456,37068,8,-0.091796875,-0.97906494140625,-0.08258056640625
1759920384335,1123166456,37068,9,-0.080810546875,-1.00811767578125,-0.08502197265625
1759920384335,1123166456,37068,10,-0.079345703125,-1.00616455078125,-0.07598876953125
1759920384335,1123166456,37068,11,-0.083251953125,-1.01055908203125,-0.08795166015625
1759920384335,1123166456,37068,12,-0.079833984375,-0.99420166015625,-0.08209228515625
1759920384335,1123166456,37068,13,-0.077880859375,-0.98590087890625,-0.07623291015625
1759920384335,1123166456,37068,14,-0.080078125,-0.99151611328125,-0.07476806640625
1759920384335,1123166456,37068,15,-0.074951171875,-1.00152587890625,-0.07330322265625
1759920384335,1123166456,37068,16,-0.07421875,-1.02203369140625,-0.06134033203125
1759920384335,1123166456,37068,17,-0.088134765625,-1.00054931640625,-0.04888916015625
1759920384335,1123166456,37068,18,-0.075439453125,-0.98663330078125,-0.07110595703125
1759920384335,1123166456,37068,19,-0.082763671875,-0.98321533203125,-0.07550048828125
1759920384335,1123166456,37068,20,-0.078369140625,-0.99517822265625,-0.06573486328125
1759920384335,1123166456,37068,21,-0.060546875,-1.02203369140625,-0.11553955078125
1759920384335,1123166456,37068,22,-0.076171875,-0.98614501953125,-0.08648681640625
1759920384335,1123166456,37068,23,-0.071044921875,-1.00152587890625,-0.09039306640625
1759920384335,1123166456,37068,24,-0.064453125,-0.99664306640625,-0.09088134765625
1759920384335,1123166456,37068,25,-0.07373046875,-1.00372314453125,-0.08551025390625
1759920384335,1123166456,37068,26,-0.077392578125,-1.00006103515625,-0.08502197265625
1759920384335,1123166456,37068,27,-0.072998046875,-1.00250244140625,-0.08111572265625
1759920384335,1123166456,37068,28,-0.07568359375,-0.99664306640625,-0.07452392578125
1759920384335,1123166456,37068,29,-0.076904296875,-0.99591064453125,-0.07037353515625
1759920384335,1123166456,37068,30,-0.077880859375,-1.00030517578125,-0.05255126953125
1759920384335,1123166456,37068,31,-0.07568359375,-0.99981689453125,-0.05841064453125
1759920386866,1123169029,37069,0,-0.0712890625,-0.99468994140625,-0.07476806640625
1759920386866,1123169029,37069,1,-0.083251953125,-0.99713134765625,-0.06744384765625
1759920386866,1123169029,37069,2,-0.087890625,-1.00811767578125,-0.04791259765625
1759920386866,1123169029,37069,3,-0.085693359375,-1.00689697265625,-0.02838134765625
1759920386866,1123169029,37069,4,-0.075439453125,-0.99127197265625,-0.01812744140625
1759920386866,1123169029,37069,5,-0.0869140625,-0.99444580078125,-0.02301025390625
1759920386866,1123169029,37069,6,-0.08740234375,-0.99200439453125,-0.01373291015625
1759920386866,1123169029,37069,7,-0.087158203125,-0.99884033203125,-0.02349853515625
1759920386866,1123169029,37069,8,-0.094482421875,-0.99127197265625,-0.00665283203125
1759920386866,1123169029,37069,9,-0.08837890625,-1.00909423828125,-0.00445556640625
1759920386866,1123169029,37069,10,-0.0927734375,-0.99029541015625,0.00164794921875
1759920386866,1123169029,37069,11,-0.087158203125,-1.00030517578125,0.01141357421875
1759920386866,1123169029,37069,12,-0.08251953125,-0.99298095703125,0.00384521484375
1759920386866,1123169029,37069,13,-0.072021484375,-0.99737548828125,0.00897216796875
1759920386866,1123169029,37069,14,-0.083984375,-0.99737548828125,0.03045654296875
1759920386866,1123169029,37069,15,-0.075927734375,-0.99322509765625,0.02337646484375
1759920386866,1123169029,37069,16,-0.091064453125,-0.99542236328125,0.02191162109375
1759920386866,1123169029,37069,17,-0.09423828125,-0.99200439453125,0.04412841796875
1759920386866,1123169029,37069,18,-0.09033203125,-0.99127197265625,0.02093505859375
1759920386866,1123169029,37069,19,-0.089111328125,-0.99371337890625,0.03143310546875
1759920386866,1123169029,37069,20,-0.091796875,-0.99298095703125,0.04071044921875
1759920386866,1123169029,37069,21,-0.08203125,-0.99566650390625,0.03021240234375
1759920386866,1123169029,37069,22,-0.087158203125,-0.99273681640625,0.02313232421875
1759920386866,1123169029,37069,23,-0.082763671875,-0.99688720703125,0.01678466796875
1759920386866,1123169029,37069,24,-0.08251953125,-0.99298095703125,0.02996826171875
1759920386866,1123169029,37069,25,-0.094970703125,-1.00152587890625,0.03656005859375
1759920386866,1123169029,37069,26,-0.086181640625,-1.01470947265625,0.05169677734375
1759920386866,1123169029,37069,27,-0.09228515625,-0.97296142578125,-0.01104736328125
1759920386866,1123169029,37069,28,-0.085693359375,-0.99591064453125,0.03582763671875
1759920386866,1123169029,37069,29,-0.09716796875,-1.00469970703125,0.00189208984375
1759920386866,1123169029,37069,30,-0.089111328125,-0.99639892578125,-0.00811767578125
1759920386866,1123169029,37069,31,-0.077392578125,-0.99761962890625,-0.01861572265625
1759920389565,1123171602,37070,0,-0.068603515625,-0.98175048828125,-0.05108642578125
1759920389565,1123171602,37070,1,-0.07568359375,-0.99371337890625,-0.04376220703125
1759920389565,1123171602,37070,2,-0.07421875,-1.00592041015625,-0.04962158203125
1759920389565,1123171602,37070,3,-0.05810546875,-1.00982666015625,-0.07379150390625
1759920389565,1123171602,37070,4,-0.0771484375,-0.99346923828125,-0.05377197265625
1759920389565,1123171602,37070,5,-0.066650390625,-1.00762939453125,-0.05816650390625
1759920389565,1123171602,37070,6,-0.07470703125,-1.00103759765625,-0.06011962890625
1759920389565,1123171602,37070,7,-0.066162109375,-1.00250244140625,-0.07135009765625
1759920389565,1123171602,37070,8,-0.066162109375,-0.99761962890625,-0.07525634765625
1759920389565,1123171602,37070,9,-0.065673828125,-0.99810791015625,-0.05963134765625
1759920389565,1123171602,37070,10,-0.0693359375,-1.00421142578125,-0.05914306640625
1759920389565,1123171602,37070,11,-0.0703125,-1.00006103515625,-0.05718994140625
1759920389565,1123171602,37070,12,-0.0703125,-0.99493408203125,-0.07818603515625
1759920389565,1123171602,37070,13,-0.06494140625,-0.99810791015625,-0.07574462890625
1759920389565,1123171602,37070,14,-0.068603515625,-1.00543212890625,-0.05596923828125
1759920389565,1123171602,37070,15,-0.071533203125,-0.99981689453125,-0.04327392578125
1759920389565,1123171602,37070,16,-0.07568359375,-1.00543212890625,-0.04644775390625
1759920389565,1123171602,37070,17,-0.072021484375,-0.99615478515625,-0.05206298828125
1759920389565,1123171602,37070,18,-0.07421875,-0.99273681640625,-0.04864501953125
1759920389565,1123171602,37070,19,-0.07373046875,-1.00006103515625,-0.04278564453125
1759920389565,1123171602,37070,20,-0.073486328125,-1.00958251953125,-0.03985595703125
1759920389565,1123171602,37070,21,-0.070068359375,-1.00396728515625,-0.04107666015625
1759920389565,1123171602,37070,22,-0.068603515625,-0.99835205078125,-0.05743408203125
1759920389565,1123171602,37070,23,-0.074462890625,-1.00421142578125,-0.05401611328125
1759920389565,1123171602,37070,24,-0.07177734375,-1.00250244140625,-0.03399658203125
1759920389565,1123171602,37070,25,-0.06640625,-0.99346923828125,-0.02862548828125
1759920389565,1123171602,37070,26,-0.071533203125,-1.00347900390625,-0.01959228515625
1759920389565,1123171602,37070,27,-0.07275390625,-0.99298095703125,-0.01031494140625
1759920389565,1123171602,37070,28,-0.07763671875,-0.99542236328125,-0.02349853515625
1759920389565,1123171602,37070,29,-0.081298828125,-0.99908447265625,-0.00323486328125
1759920389565,1123171602,37070,30,-0.0703125,-1.00030517578125,-0.02447509765625
1759920389565,1123171602,37070,31,-0.07373046875,-0.99444580078125,-0.01812744140625
1759920392088,1123174175,37071,0,-0.06982421875,-0.99786376953125,-0.00665283203125
1759920392088,1123174175,37071,1,-0.076416015625,-1.00274658203125,0.00531005859375
1759920392088,1123174175,37071,2,-0.08251953125,-0.99468994140625,0.01214599609375
1759920392088,1123174175,37071,3,-0.06494140625,-0.99859619140625,-0.02178955078125
1759920392088,1123174175,37071,4,-0.0654296875,-1.00079345703125,-0.02032470703125
1759920392088,1123174175,37071,5,-0.07373046875,-1.00860595703125,-0.02008056640625
1759920392088,1123174175,37071,6,-0.07958984375,-0.99713134765625,-0.01251220703125
1759920392088,1123174175,37071,7,-0.06640625,-1.00714111328125,-0.01300048828125
1759920392088,1123174175,37071,8,-0.07373046875,-0.99713134765625,0.00311279296875
1759920392088,1123174175,37071,9,-0.083740234375,-0.99371337890625,0.01336669921875
1759920392088,1123174175,37071,10,-0.077880859375,-1.00054931640625,0.02557373046875
1759920392088,1123174175,37071,11,-0.077392578125,-0.99810791015625,0.02166748046875
1759920392088,1123174175,37071,12,-0.088623046875,-1.00445556640625,0.04217529296875
1759920392088,1123174175,37071,13,-0.06884765625,-0.97418212890625,0.02899169921875
1759920392088,1123174175,37071,14,-0.08935546875,-1.00445556640625,0.04412841796875
1759920392088,1123174175,37071,15,-0.082763671875,-0.99224853515625,0.04510498046875
1759920392088,1123174175,37071,16,-0.115478515625,-0.99615478515625,0.04290771484375
1759920392088,1123174175,37071,17,-0.08544921875,-0.99176025390625,0.01947021484375
1759920392088,1123174175,37071,18,-0.0791015625,-0.99761962890625,-0.01861572265625
1759920392088,1123174175,37071,19,-0.073974609375,-0.98687744140625,-0.03082275390625
1759920392088,1123174175,37071,20,-0.07275390625,-0.97686767578125,-0.06451416015625
1759920392088,1123174175,37071,21,-0.07666015625,-1.00299072265625,-0.04425048828125
1759920392088,1123174175,37071,22,-0.064208984375,-1.01177978515625,-0.05841064453125
1759920392088,1123174175,37071,23,-0.08203125,-1.00372314453125,-0.05670166015625
1759920392088,1123174175,37071,24,-0.085205078125,-0.99639892578125,-0.05059814453125
1759920392088,1123174175,37071,25,-0.080078125,-1.00250244140625,-0.06256103515625
1759920392088,1123174175,37071,26,-0.081787109375,-1.00787353515625,-0.06549072265625
1759920392088,1123174175,37071,27,-0.076904296875,-0.99761962890625,-0.06329345703125
1759920392088,1123174175,37071,28,-0.07421875,-0.99810791015625,-0.07135009765625
1759920392088,1123174175,37071,29,-0.074951171875,-0.99835205078125,-0.06353759765625
1759920392088,1123174175,37071,30,-0.084228515625,-1.00323486328125,-0.05352783203125
1759920392088,1123174175,37071,31,-0.07373046875,-1.01300048828125,-0.05694580078125
1759920394608,1123176748,37072,0,-0.076171875,-0.99884033203125,-0.05963134765625
1759920394608,1123176748,37072,1,-0.096435546875,-0.98541259765625,-0.04010009765625
1759920394608,1123176748,37072,2,-0.097412109375,-0.99737548828125,-0.04473876953125
1759920394608,1123176748,37072,3,-0.06884765625,-0.99468994140625,-0.03765869140625
1759920394608,1123176748,37072,4,-0.075927734375,-1.00933837890625,-0.05401611328125
1759920394608,1123176748,37072,5,-0.07470703125,-0.99468994140625,-0.04620361328125
1759920394608,1123176748,37072,6,-0.083984375,-0.99713134765625,-0.04254150390625
1759920394608,1123176748,37072,7,-0.09423828125,-1.00152587890625,-0.05255126953125
1759920394608,1123176748,37072,8,-0.0927734375,-1.00421142578125,-0.04913330078125
1759920394608,1123176748,37072,9,-0.0927734375,-1.00177001953125,-0.05084228515625
1759920394608,1123176748,37072,10,-0.08251953125,-0.99517822265625,-0.04913330078125
1759920394608,1123176748,37072,11,-0.0751953125,-1.00201416015625,-0.04180908203125
1759920394608,1123176748,37072,12,-0.075439453125,-1.00445556640625,-0.03985595703125
1759920394608,1123176748,37072,13,-0.077392578125,-0.99639892578125,-0.05133056640625
1759920394608,1123176748,37072,14,-0.081787109375,-0.99468994140625,-0.04107666015625
1759920394608,1123176748,37072,15,-0.077392578125,-0.99517822265625,-0.04693603515625
1759920394608,1123176748,37072,16,-0.0869140625,-1.00616455078125,-0.03619384765625
1759920394608,1123176748,37072,17,-0.0830078125,-1.00103759765625,-0.03643798828125
1759920394608,1123176748,37072,18,-0.076904296875,-0.99810791015625,-0.04718017578125
1759920394608,1123176748,37072,19,-0.078125,-0.99810791015625,-0.04327392578125
1759920394608,1123176748,37072,20,-0.073974609375,-0.99761962890625,-0.04229736328125
1759920394608,1123176748,37072,21,-0.08154296875,-0.99908447265625,-0.03179931640625
1759920394608,1123176748,37072,22,-0.07421875,-1.00518798828125,-0.04571533203125
1759920394608,1123176748,37072,23,-0.078857421875,-1.00225830078125,-0.03961181640625
1759920394608,1123176748,37072,24,-0.0791015625,-0.99517822265625,-0.03887939453125
1759920394608,1123176748,37072,25,-0.075927734375,-0.99957275390625,-0.03375244140625
1759920394608,1123176748,37072,26,-0.078369140625,-0.99835205078125,-0.02984619140625
1759920394608,1123176748,37072,27,-0.0791015625,-0.99737548828125,-0.03009033203125
1759920394608,1123176748,37072,28,-0.081787109375,-0.99957275390625,-0.03741455078125
1759920394608,1123176748,37072,29,-0.0849609375,-1.00152587890625,-0.03594970703125
1759920394608,1123176748,37072,30,-0.080078125,-0.99908447265625,-0.02105712890625
1759920394608,1123176748,37072,31,-0.077392578125,-0.99639892578125,-0.02398681640625
1759920397306,1123179321,37073,0,-0.079345703125,-0.99542236328125,-0.01544189453125
1759920397306,1123179321,37073,1,-0.090087890625,-0.99713134765625,0.01214599609375
1759920397306,1123179321,37073,2,-0.085693359375,-0.99591064453125,-0.01031494140625
1759920397306,1123179321,37073,3,-0.083984375,-0.99713134765625,-0.01153564453125
1759920397306,1123179321,37073,4,-0.08447265625,-0.99591064453125,0.00555419921875
1759920397306,1123179321,37073,5,-0.08642578125,-1.00103759765625,0.00286865234375
1759920397306,1123179321,37073,6,-0.081787109375,-0.99810791015625,0.00897216796875
1759920397306,1123179321,37073,7,-0.08935546875,-0.99566650390625,-0.00372314453125
1759920397306,1123179321,37073,8,-0.08154296875,-0.99664306640625,-0.00469970703125
1759920397306,1123179321,37073,9,-0.0830078125,-1.00030517578125,0.00677490234375
1759920397306,1123179321,37073,10,-0.08740234375,-1.00177001953125,0.00775146484375
1759920397306,1123179321,37073,11,-0.085693359375,-0.98980712890625,0.00531005859375
1759920397306,1123179321,37073,12,-0.088623046875,-1.00592041015625,-0.00152587890625
1759920397306,1123179321,37073,13,-0.083251953125,-0.99127197265625,-0.00933837890625
1759920397306,1123179321,37073,14,-0.08984375,-1.00250244140625,-0.02203369140625
1759920397306,1123179321,37073,15,-0.079345703125,-1.00103759765625,-0.03326416015625
1759920397306,1123179321,37073,16,-0.079833984375,-0.99639892578125,-0.02203369140625
1759920397306,1123179321,37073,17,-0.074462890625,-0.99053955078125,-0.04644775390625
1759920397306,1123179321,37073,18,-0.07470703125,-0.98834228515625,-0.04571533203125
1759920397306,1123179321,37073,19,-0.070556640625,-1.00860595703125,-0.04229736328125
1759920397306,1123179321,37073,20,-0.066650390625,-1.00909423828125,-0.06622314453125
1759920397306,1123179321,37073,21,-0.080078125,-1.00299072265625,-0.05474853515625
1759920397306,1123179321,37073,22,-0.069580078125,-1.00543212890625,-0.05059814453125
1759920397306,1123179321,37073,23,-0.07958984375,-0.99932861328125,-0.06915283203125
1759920397306,1123179321,37073,24,-0.077392578125,-0.99957275390625,-0.05548095703125
1759920397306,1123179321,37073,25,-0.07958984375,-0.99737548828125,-0.04986572265625
1759920397306,1123179321,37073,26,-0.07177734375,-1.00421142578125,-0.05133056640625
1759920397306,1123179321,37073,27,-0.0703125,-1.00396728515625,-0.05523681640625
1759920397306,1123179321,37073,28,-0.070556640625,-1.00079345703125,-0.06036376953125
1759920397306,1123179321,37073,29,-0.06884765625,-0.99273681640625,-0.05938720703125
1759920397306,1123179321,37073,30,-0.075927734375,-1.00006103515625,-0.05426025390625
1759920397306,1123179321,37073,31,-0.07421875,-1.00616455078125,-0.05059814453125
1759920399826,1123181894,37074,0,-0.0751953125,-1.00567626953125,-0.05377197265625
1759920399826,1123181894,37074,1,-0.070556640625,-1.00347900390625,-0.06329345703125
1759920399826,1123181894,37074,2,-0.07421875,-0.99444580078125,-0.06060791015625
1759920399826,1123181894,37074,3,-0.079833984375,-0.99981689453125,-0.05279541015625
1759920399826,1123181894,37074,4,-0.0771484375,-1.00689697265625,-0.04937744140625
1759920399826,1123181894,37074,5,-0.0791015625,-1.00445556640625,-0.05450439453125
1759920399826,1123181894,37074,6,-0.074951171875,-0.99713134765625,-0.06304931640625
1759920399826,1123181894,37074,7,-0.07275390625,-0.99468994140625,-0.06207275390625
1759920399826,1123181894,37074,8,-0.07373046875,-0.99981689453125,-0.05181884765625
1759920399826,1123181894,37074,9,-0.078125,-1.00494384765625,-0.04791259765625
1759920399826,1123181894,37074,10,-0.07568359375,-1.00006103515625,-0.04986572265625
1759920399826,1123181894,37074,11,-0.076904296875,-1.00054931640625,-0.05474853515625
1759920399826,1123181894,37074,12,-0.076171875,-0.99835205078125,-0.04718017578125
1759920399826,1123181894,37074,13,-0.076416015625,-1.00738525390625,-0.05303955078125
1759920399826,1123181894,37074,14,-0.07666015625,-1.00274658203125,-0.04547119140625
1759920399826,1123181894,37074,15,-0.07568359375,-0.99713134765625,-0.04864501953125
1759920399826,1123181894,37074,16,-0.07958984375,-0.99859619140625,-0.04571533203125
1759920399826,1123181894,37074,17,-0.075927734375,-0.99591064453125,-0.04351806640625
1759920399826,1123181894,37074,18,-0.080322265625,-1.00372314453125,-0.03009033203125
1759920399826,1123181894,37074,19,-0.0791015625,-0.99981689453125,-0.03887939453125
1759920399826,1123181894,37074,20,-0.08447265625,-0.99346923828125,-0.03668212890625
1759920399826,1123181894,37074,21,-0.08056640625,-1.00103759765625,-0.02838134765625
1759920399826,1123181894,37074,22,-0.077880859375,-0.99688720703125,-0.03131103515625
1759920399826,1123181894,37074,23,-0.07373046875,-1.00006103515625,-0.02862548828125
1759920399826,1123181894,37074,24,-0.076416015625,-1.00665283203125,-0.02740478515625
1759920399826,1123181894,37074,25,-0.07568359375,-0.99371337890625,-0.03009033203125
1759920399826,1123181894,37074,26,-0.072509765625,-0.99761962890625,-0.02935791015625
1759920399826,1123181894,37074,27,-0.07666015625,-0.99932861328125,-0.03155517578125
1759920399826,1123181894,37074,28,-0.07421875,-1.00201416015625,-0.02691650390625
1759920399826,1123181894,37074,29,-0.080078125,-1.00054931640625,-0.01129150390625
1759920399826,1123181894,37074,30,-0.0791015625,-1.00103759765625,-0.03839111328125
1759920399826,1123181894,37074,31,-0.074951171875,-0.99932861328125,-0.02789306640625
1759920402348,1123184468,37075,0,-0.07666015625,-1.00396728515625,-0.04547119140625
1759920402348,1123184468,37075,1,-0.069091796875,-0.99957275390625,-0.04547119140625
1759920402348,1123184468,37075,2,-0.072998046875,-0.99346923828125,-0.05938720703125
1759920402348,1123184468,37075,3,-0.06787109375,-0.98907470703125,-0.08233642578125
1759920402348,1123184468,37075,4,-0.060302734375,-0.99053955078125,-0.09527587890625
1759920402348,1123184468,37075,5,-0.055419921875,-1.00811767578125,-0.09625244140625
1759920402348,1123184468,37075,6,-0.055419921875,-1.00421142578125,-0.11456298828125
1759920402348,1123184468,37075,7,-0.0634765625,-1.00469970703125,-0.08233642578125
1759920402348,1123184468,37075,8,-0.0556640625,-1.00738525390625,-0.09527587890625
1759920402348,1123184468,37075,9,-0.05517578125,-1.00274658203125,-0.10479736328125
1759920402348,1123184468,37075,10,-0.05810546875,-0.99884033203125,-0.10968017578125
1759920402348,1123184468,37075,11,-0.059814453125,-1.00250244140625,-0.10260009765625
1759920402348,1123184468,37075,12,-0.054443359375,-1.00665283203125,-0.09527587890625
1759920402348,1123184468,37075,13,-0.056884765625,-0.99957275390625,-0.09600830078125
1759920402348,1123184468,37075,14,-0.05810546875,-0.99859619140625,-0.09527587890625
1759920402348,1123184468,37075,15,-0.058349609375,-0.99932861328125,-0.09991455078125
1759920402348,1123184468,37075,16,-0.0625,-1.00177001953125,-0.08843994140625
1759920402348,1123184468,37075,17,-0.061279296875,-1.00616455078125,-0.08819580078125
1759920402348,1123184468,37075,18,-0.05908203125,-0.99542236328125,-0.09478759765625
1759920402348,1123184468,37075,19,-0.056640625,-0.99688720703125,-0.09771728515625
1759920402348,1123184468,37075,20,-0.06005859375,-1.00445556640625,-0.08917236328125
1759920402348,1123184468,37075,21,-0.065185546875,-1.00518798828125,-0.08282470703125
1759920402348,1123184468,37075,22,-0.06298828125,-1.00030517578125,-0.09332275390625
1759920402348,1123184468,37075,23,-0.060302734375,-0.99371337890625,-0.08966064453125
1759920402348,1123184468,37075,24,-0.062255859375,-1.00250244140625,-0.09576416015625
1759920402348,1123184468,37075,25,-0.06298828125,-0.99810791015625,-0.08502197265625
1759920402348,1123184468,37075,26,-0.064697265625,-1.00103759765625,-0.07745361328125
1759920402348,1123184468,37075,27,-0.061767578125,-1.00518798828125,-0.08575439453125
1759920402348,1123184468,37075,28,-0.064697265625,-0.99884033203125,-0.08453369140625
1759920402348,1123184468,37075,29,-0.061767578125,-1.00054931640625,-0.08111572265625
1759920402348,1123184468,37075,30,-0.064208984375,-1.00372314453125,-0.07550048828125
1759920402348,1123184468,37075,31,-0.06201171875,-0.99932861328125,-0.09234619140625
1759920405044,1123187041,37076,0,-0.058837890625,-0.99761962890625,-0.08355712890625
1759920405044,1123187041,37076,1,-0.066162109375,-0.99810791015625,-0.08770751953125
1759920405044,1123187041,37076,2,-0.0634765625,-0.99664306640625,-0.07891845703125
1759920405044,1123187041,37076,3,-0.06640625,-1.00738525390625,-0.07843017578125
1759920405044,1123187041,37076,4,-0.064453125,-0.99664306640625,-0.08233642578125
1759920405044,1123187041,37076,5,-0.065185546875,-1.00006103515625,-0.07623291015625
1759920405044,1123187041,37076,6,-0.062255859375,-0.99981689453125,-0.08551025390625
1759920405044,1123187041,37076,7,-0.06298828125,-1.00152587890625,-0.08502197265625
1759920405044,1123187041,37076,8,-0.06787109375,-1.00738525390625,-0.07720947265625
1759920405044,1123187041,37076,9,-0.06201171875,-1.00079345703125,-0.07550048828125
1759920405044,1123187041,37076,10,-0.06591796875,-0.99957275390625,-0.07427978515625
1759920405044,1123187041,37076,11,-0.06640625,-0.99517822265625,-0.07891845703125
1759920405044,1123187041,37076,12,-0.05908203125,-1.00103759765625,-0.09625244140625
1759920405044,1123187041,37076,13,-0.0673828125,-0.99957275390625,-0.06085205078125
1759920405044,1123187041,37076,14,-0.071533203125,-1.00372314453125,-0.07769775390625
1759920405044,1123187041,37076,15,-0.06494140625,-1.00469970703125,-0.06915283203125
