receivedPhoneTimestamp,respeckTimestamp,packetSeqNum,sampleSeqNum,accelX,accelY,accelZ
1759923401840,1024905365,51805,31,0.30517578125,-0.02593994140625,-0.95880126953125
1759923404370,1024907896,51806,0,0.304931640625,-0.02349853515625,-0.95758056640625
1759923404370,1024907896,51806,1,0.31201171875,-0.02716064453125,-0.95806884765625
1759923404370,1024907896,51806,2,0.317626953125,-0.02496337890625,-0.95416259765625
1759923404370,1024907896,51806,3,0.322021484375,-0.02496337890625,-0.95343017578125
1759923404370,1024907896,51806,4,0.3251953125,-0.02691650390625,-0.94976806640625
1759923404370,1024907896,51806,5,0.327392578125,-0.02593994140625,-0.95318603515625
1759923404370,1024907896,51806,6,0.3291015625,-0.02642822265625,-0.95343017578125
1759923404370,1024907896,51806,7,0.32861328125,-0.02569580078125,-0.95123291015625
1759923404370,1024907896,51806,8,0.326904296875,-0.02618408203125,-0.94830322265625
1759923404370,1024907896,51806,9,0.332275390625,-0.02496337890625,-0.95001220703125
1759923404370,1024907896,51806,10,0.33447265625,-0.02716064453125,-0.95416259765625
1759923404370,1024907896,51806,11,0.33642578125,-0.02813720703125,-0.94976806640625
1759923404370,1024907896,51806,12,0.333740234375,-0.02593994140625,-0.95098876953125
1759923404370,1024907896,51806,13,0.33544921875,-0.02618408203125,-0.94732666015625
1759923404370,1024907896,51806,14,0.333984375,-0.02642822265625,-0.94879150390625
1759923404370,1024907896,51806,15,0.33642578125,-0.02618408203125,-0.94952392578125
1759923404370,1024907896,51806,16,0.33642578125,-0.02496337890625,-0.94708251953125
1759923404370,1024907896,51806,17,0.33447265625,-0.02496337890625,-0.94610595703125
1759923404370,1024907896,51806,18,0.3369140625,-0.02545166015625,-0.94512939453125
1759923404370,1024907896,51806,19,0.336181640625,-0.02227783203125,-0.94757080078125
1759923404370,1024907896,51806,20,0.334716796875,-0.02398681640625,-0.94781494140625
1759923404370,1024907896,51806,21,0.335693359375,-0.02667236328125,-0.94830322265625
1759923404370,1024907896,51806,22,0.34228515625,-0.02398681640625,-0.95391845703125
1759923404370,1024907896,51806,23,0.335693359375,-0.02667236328125,-0.93780517578125
1759923404370,1024907896,51806,24,0.3388671875,-0.02398681640625,-0.94439697265625
1759923404370,1024907896,51806,25,0.336669921875,-0.02301025390625,-0.94854736328125
1759923404370,1024907896,51806,26,0.3349609375,-0.02691650390625,-0.94488525390625
1759923404370,1024907896,51806,27,0.337158203125,-0.02740478515625,-0.94683837890625
1759923404370,1024907896,51806,28,0.33544921875,-0.02325439453125,-0.94512939453125
1759923404370,1024907896,51806,29,0.33544921875,-0.02447509765625,-0.94561767578125
1759923404370,1024907896,51806,30,0.33740234375,-0.02154541015625,-0.94879150390625
1759923404370,1024907896,51806,31,0.339599609375,-0.02398681640625,-0.94879150390625
1759923407064,1024910427,51807,0,0.335205078125,-0.02471923828125,-0.94390869140625
1759923407064,1024910427,51807,1,0.338623046875,-0.02252197265625,-0.94635009765625
1759923407064,1024910427,51807,2,0.337890625,-0.02203369140625,-0.94561767578125
1759923407064,1024910427,51807,3,0.338623046875,-0.02130126953125,-0.94317626953125
1759923407064,1024910427,51807,4,0.337890625,-0.02203369140625,-0.94293212890625
1759923407064,1024910427,51807,5,0.34326171875,-0.02423095703125,-0.94683837890625
1759923407064,1024910427,51807,6,0.34619140625,-0.02496337890625,-0.94610595703125
1759923407064,1024910427,51807,7,0.338623046875,-0.02276611328125,-0.94903564453125
1759923407064,1024910427,51807,8,0.32177734375,-0.02325439453125,-0.94805908203125
1759923407064,1024910427,51807,9,0.308837890625,-0.02105712890625,-0.95391845703125
1759923407064,1024910427,51807,10,0.294677734375,-0.01763916015625,-0.95684814453125
1759923407064,1024910427,51807,11,0.294677734375,-0.01934814453125,-0.96343994140625
1759923407064,1024910427,51807,12,0.282470703125,-0.02008056640625,-0.96783447265625
1759923407064,1024910427,51807,13,0.28173828125,-0.01910400390625,-0.96929931640625
1759923407064,1024910427,51807,14,0.280029296875,-0.01885986328125,-0.96319580078125
1759923407064,1024910427,51807,15,0.281005859375,-0.02252197265625,-0.95977783203125
1759923407064,1024910427,51807,16,0.2900390625,-0.02032470703125,-0.96148681640625
1759923407064,1024910427,51807,17,0.29736328125,-0.01934814453125,-0.96051025390625
1759923407064,1024910427,51807,18,0.303955078125,-0.01983642578125,-0.95709228515625
1759923407064,1024910427,51807,19,0.312744140625,-0.01885986328125,-0.95343017578125
1759923407064,1024910427,51807,20,0.31640625,-0.01739501953125,-0.95733642578125
1759923407064,1024910427,51807,21,0.317626953125,-0.01910400390625,-0.95318603515625
1759923407064,1024910427,51807,22,0.32080078125,-0.01837158203125,-0.95318603515625
1759923407064,1024910427,51807,23,0.328125,-0.01934814453125,-0.95001220703125
1759923407064,1024910427,51807,24,0.333984375,-0.01837158203125,-0.94659423828125
1759923407064,1024910427,51807,25,0.333984375,-0.01763916015625,-0.94976806640625
1759923407064,1024910427,51807,26,0.3349609375,-0.01983642578125,-0.94830322265625
1759923407064,1024910427,51807,27,0.337646484375,-0.01885986328125,-0.94854736328125
1759923407064,1024910427,51807,28,0.33642578125,-0.01812744140625,-0.94927978515625
1759923407064,1024910427,51807,29,0.33837890625,-0.01983642578125,-0.94781494140625
1759923407064,1024910427,51807,30,0.33984375,-0.01861572265625,-0.94293212890625
1759923407064,1024910427,51807,31,0.33984375,-0.02008056640625,-0.94390869140625
1759923409771,1024912958,51808,0,0.343017578125,-0.01885986328125,-0.94219970703125
1759923409771,1024912958,51808,1,0.344482421875,-0.01666259765625,-0.94512939453125
1759923409771,1024912958,51808,2,0.34326171875,-0.01910400390625,-0.94952392578125
1759923409771,1024912958,51808,3,0.336669921875,-0.01959228515625,-0.94488525390625
1759923409771,1024912958,51808,4,0.32666015625,-0.02130126953125,-0.94635009765625
1759923409771,1024912958,51808,5,0.325927734375,-0.01983642578125,-0.95025634765625
1759923409771,1024912958,51808,6,0.320556640625,-0.02105712890625,-0.95098876953125
1759923409771,1024912958,51808,7,0.317138671875,-0.02276611328125,-0.95367431640625
1759923409771,1024912958,51808,8,0.315185546875,-0.02154541015625,-0.95367431640625
1759923409771,1024912958,51808,9,0.3134765625,-0.01763916015625,-0.95367431640625
1759923409771,1024912958,51808,10,0.312744140625,-0.02105712890625,-0.95513916015625
1759923409771,1024912958,51808,11,0.31201171875,-0.02203369140625,-0.95806884765625
1759923409771,1024912958,51808,12,0.309814453125,-0.02130126953125,-0.95562744140625
1759923409771,1024912958,51808,13,0.31005859375,-0.01983642578125,-0.95831298828125
1759923409771,1024912958,51808,14,0.305908203125,-0.02227783203125,-0.95953369140625
1759923409771,1024912958,51808,15,0.305419921875,-0.02081298828125,-0.95709228515625
1759923409771,1024912958,51808,16,0.303955078125,-0.02349853515625,-0.96270751953125
1759923409771,1024912958,51808,17,0.305419921875,-0.02642822265625,-0.95513916015625
1759923409771,1024912958,51808,18,0.302490234375,-0.02838134765625,-0.95611572265625
1759923409771,1024912958,51808,19,0.30712890625,-0.03033447265625,-0.95660400390625
1759923409771,1024912958,51808,20,0.33251953125,-0.03179931640625,-0.94195556640625
1759923409771,1024912958,51808,21,0.341796875,-0.02886962890625,-0.94732666015625
1759923409771,1024912958,51808,22,0.34375,-0.02593994140625,-0.94610595703125
1759923409771,1024912958,51808,23,0.342041015625,-0.02569580078125,-0.94366455078125
1759923409771,1024912958,51808,24,0.339599609375,-0.02471923828125,-0.94244384765625
1759923409771,1024912958,51808,25,0.33740234375,-0.02545166015625,-0.94439697265625
1759923409771,1024912958,51808,26,0.334228515625,-0.02349853515625,-0.94073486328125
1759923409771,1024912958,51808,27,0.332275390625,-0.02056884765625,-0.94781494140625
1759923409771,1024912958,51808,28,0.33203125,-0.02154541015625,-0.95025634765625
1759923409771,1024912958,51808,29,0.330078125,-0.02325439453125,-0.94976806640625
1759923409771,1024912958,51808,30,0.328369140625,-0.02252197265625,-0.95147705078125
1759923409771,1024912958,51808,31,0.324462890625,-0.02276611328125,-0.95269775390625
1759923412102,1024915489,51809,0,0.3212890625,-0.02447509765625,-0.95538330078125
1759923412102,1024915489,51809,1,0.312255859375,-0.02447509765625,-0.95758056640625
1759923412102,1024915489,51809,2,0.2998046875,-0.02642822265625,-0.95611572265625
1759923412102,1024915489,51809,3,0.2880859375,-0.02423095703125,-0.95904541015625
1759923412102,1024915489,51809,4,0.28466796875,-0.02349853515625,-0.96636962890625
1759923412102,1024915489,51809,5,0.28271484375,-0.02520751953125,-0.96466064453125
1759923412102,1024915489,51809,6,0.282958984375,-0.02545166015625,-0.96392822265625
1759923412102,1024915489,51809,7,0.28173828125,-0.02740478515625,-0.96099853515625
1759923412102,1024915489,51809,8,0.283447265625,-0.02545166015625,-0.96075439453125
1759923412102,1024915489,51809,9,0.281982421875,-0.02593994140625,-0.96124267578125
1759923412102,1024915489,51809,10,0.28076171875,-0.02545166015625,-0.95880126953125
1759923412102,1024915489,51809,11,0.2939453125,-0.02960205078125,-0.96636962890625
1759923412102,1024915489,51809,12,0.298583984375,-0.01837158203125,-0.96661376953125
1759923412102,1024915489,51809,13,0.30078125,-0.02178955078125,-0.96148681640625
1759923412102,1024915489,51809,14,0.302978515625,-0.02081298828125,-0.96026611328125
1759923412102,1024915489,51809,15,0.29833984375,-0.01959228515625,-0.95928955078125
1759923412102,1024915489,51809,16,0.29736328125,-0.01885986328125,-0.95758056640625
1759923412102,1024915489,51809,17,0.302001953125,-0.02130126953125,-0.95953369140625
1759923412102,1024915489,51809,18,0.3017578125,-0.01837158203125,-0.95953369140625
1759923412102,1024915489,51809,19,0.30224609375,-0.01983642578125,-0.96173095703125
1759923412102,1024915489,51809,20,0.305419921875,-0.02008056640625,-0.96490478515625
1759923412102,1024915489,51809,21,0.29736328125,-0.02081298828125,-0.95782470703125
1759923412102,1024915489,51809,22,0.301025390625,-0.02154541015625,-0.95318603515625
1759923412102,1024915489,51809,23,0.306640625,-0.02056884765625,-0.96343994140625
1759923412102,1024915489,51809,24,0.30029296875,-0.02398681640625,-0.95904541015625
1759923412102,1024915489,51809,25,0.30126953125,-0.02447509765625,-0.95635986328125
1759923412102,1024915489,51809,26,0.3046875,-0.02252197265625,-0.95489501953125
1759923412102,1024915489,51809,27,0.30517578125,-0.02056884765625,-0.95953369140625
1759923412102,1024915489,51809,28,0.303466796875,-0.02301025390625,-0.96124267578125
1759923412102,1024915489,51809,29,0.303466796875,-0.02301025390625,-0.95880126953125
1759923412102,1024915489,51809,30,0.3056640625,-0.02374267578125,-0.95782470703125
1759923412102,1024915489,51809,31,0.307373046875,-0.02008056640625,-0.96124267578125
1759923414634,1024918020,51810,0,0.304443359375,-0.02423095703125,-0.95635986328125
1759923414634,1024918020,51810,1,0.30615234375,-0.02447509765625,-0.95855712890625
1759923414634,1024918020,51810,2,0.30712890625,-0.02252197265625,-0.95733642578125
1759923414634,1024918020,51810,3,0.30810546875,-0.02154541015625,-0.95709228515625
1759923414634,1024918020,51810,4,0.3076171875,-0.02105712890625,-0.95904541015625
1759923414634,1024918020,51810,5,0.30615234375,-0.02081298828125,-0.95587158203125
1759923414634,1024918020,51810,6,0.30517578125,-0.02056884765625,-0.95684814453125
1759923414634,1024918020,51810,7,0.306396484375,-0.02154541015625,-0.95684814453125
1759923414634,1024918020,51810,8,0.310302734375,-0.02081298828125,-0.95513916015625
1759923414634,1024918020,51810,9,0.310546875,-0.02130126953125,-0.96099853515625
1759923414634,1024918020,51810,10,0.304931640625,-0.02423095703125,-0.95440673828125
1759923414634,1024918020,51810,11,0.30615234375,-0.02374267578125,-0.95513916015625
1759923414634,1024918020,51810,12,0.31298828125,-0.02130126953125,-0.95806884765625
1759923414634,1024918020,51810,13,0.316162109375,-0.02301025390625,-0.95660400390625
1759923414634,1024918020,51810,14,0.318115234375,-0.02252197265625,-0.95489501953125
1759923414634,1024918020,51810,15,0.316162109375,-0.02447509765625,-0.95172119140625
1759923414634,1024918020,51810,16,0.31396484375,-0.02130126953125,-0.95416259765625
1759923414634,1024918020,51810,17,0.32080078125,-0.02105712890625,-0.94976806640625
1759923414634,1024918020,51810,18,0.3212890625,-0.02081298828125,-0.95440673828125
1759923414634,1024918020,51810,19,0.318115234375,-0.02081298828125,-0.95025634765625
1759923414634,1024918020,51810,20,0.31787109375,-0.02203369140625,-0.95269775390625
1759923414634,1024918020,51810,21,0.32958984375,-0.02252197265625,-0.95489501953125
1759923414634,1024918020,51810,22,0.329345703125,-0.02130126953125,-0.94464111328125
1759923414634,1024918020,51810,23,0.3369140625,-0.02423095703125,-0.94805908203125
1759923414634,1024918020,51810,24,0.3359375,-0.02447509765625,-0.94708251953125
1759923414634,1024918020,51810,25,0.33349609375,-0.02569580078125,-0.94976806640625
1759923414634,1024918020,51810,26,0.3349609375,-0.02227783203125,-0.94879150390625
1759923414634,1024918020,51810,27,0.3359375,-0.02545166015625,-0.94659423828125
1759923414634,1024918020,51810,28,0.33740234375,-0.02374267578125,-0.94073486328125
1759923414634,1024918020,51810,29,0.337158203125,-0.02618408203125,-0.94854736328125
1759923414634,1024918020,51810,30,0.338134765625,-0.02691650390625,-0.94268798828125
1759923414634,1024918020,51810,31,0.339111328125,-0.02691650390625,-0.95220947265625
1759923417151,1024920551,51811,0,0.34326171875,-0.02642822265625,-0.94219970703125
1759923417151,1024920551,51811,1,0.341064453125,-0.02593994140625,-0.94171142578125
1759923417151,1024920551,51811,2,0.339599609375,-0.02716064453125,-0.94342041015625
1759923417151,1024920551,51811,3,0.342041015625,-0.02862548828125,-0.94488525390625
1759923417151,1024920551,51811,4,0.34423828125,-0.03375244140625,-0.95220947265625
1759923417151,1024920551,51811,5,0.343017578125,-0.03839111328125,-0.94024658203125
1759923417151,1024920551,51811,6,0.34716796875,-0.03668212890625,-0.93804931640625
1759923417151,1024920551,51811,7,0.346923828125,-0.03668212890625,-0.94512939453125
1759923417151,1024920551,51811,8,0.34765625,-0.03765869140625,-0.95391845703125
1759923417151,1024920551,51811,9,0.349365234375,-0.04425048828125,-0.93609619140625
1759923417151,1024920551,51811,10,0.348876953125,-0.04278564453125,-0.93609619140625
1759923417151,1024920551,51811,11,0.353515625,-0.04498291015625,-0.94561767578125
1759923417151,1024920551,51811,12,0.3525390625,-0.04522705078125,-0.94732666015625
1759923417151,1024920551,51811,13,0.35546875,-0.05084228515625,-0.93414306640625
1759923417151,1024920551,51811,14,0.35205078125,-0.05206298828125,-0.93072509765625
1759923417151,1024920551,51811,15,0.35400390625,-0.05010986328125,-0.94122314453125
1759923417151,1024920551,51811,16,0.353759765625,-0.04840087890625,-0.93951416015625
1759923417151,1024920551,51811,17,0.3525390625,-0.04156494140625,-0.93218994140625
1759923417151,1024920551,51811,18,0.35791015625,-0.03546142578125,-0.94024658203125
1759923417151,1024920551,51811,19,0.3720703125,-0.03204345703125,-0.95172119140625
1759923417151,1024920551,51811,20,0.370849609375,-0.03839111328125,-0.93463134765625
1759923417151,1024920551,51811,21,0.373046875,-0.03692626953125,-0.92266845703125
1759923417151,1024920551,51811,22,0.376708984375,-0.03717041015625,-0.93145751953125
1759923417151,1024920551,51811,23,0.374755859375,-0.03887939453125,-0.93170166015625
1759923417151,1024920551,51811,24,0.374267578125,-0.03887939453125,-0.92681884765625
1759923417151,1024920551,51811,25,0.373291015625,-0.04107666015625,-0.92730712890625
1759923417151,1024920551,51811,26,0.3759765625,-0.03717041015625,-0.93365478515625
1759923417151,1024920551,51811,27,0.372314453125,-0.03521728515625,-0.92852783203125
1759923417151,1024920551,51811,28,0.37744140625,-0.03131103515625,-0.93023681640625
1759923417151,1024920551,51811,29,0.37890625,-0.03326416015625,-0.92974853515625
1759923417151,1024920551,51811,30,0.380126953125,-0.03472900390625,-0.93267822265625
1759923417151,1024920551,51811,31,0.379150390625,-0.03570556640625,-0.92877197265625
1759923419656,1024923082,51812,0,0.375732421875,-0.03717041015625,-0.92681884765625
1759923419656,1024923082,51812,1,0.3818359375,-0.03619384765625,-0.93023681640625
1759923419656,1024923082,51812,2,0.378662109375,-0.03546142578125,-0.92657470703125
1759923419656,1024923082,51812,3,0.378662109375,-0.03253173828125,-0.92730712890625
1759923419656,1024923082,51812,4,0.381591796875,-0.03106689453125,-0.92437744140625
1759923419656,1024923082,51812,5,0.379638671875,-0.02886962890625,-0.93292236328125
1759923419656,1024923082,51812,6,0.37744140625,-0.02911376953125,-0.93243408203125
1759923419656,1024923082,51812,7,0.37744140625,-0.03057861328125,-0.92462158203125
1759923419656,1024923082,51812,8,0.387451171875,-0.02935791015625,-0.93048095703125
1759923419656,1024923082,51812,9,0.3818359375,-0.02984619140625,-0.93389892578125
1759923419656,1024923082,51812,10,0.366943359375,-0.02911376953125,-0.93707275390625
1759923419656,1024923082,51812,11,0.34619140625,-0.02838134765625,-0.94390869140625
1759923419656,1024923082,51812,12,0.334228515625,-0.02691650390625,-0.94781494140625
1759923419656,1024923082,51812,13,0.313720703125,-0.02813720703125,-0.95343017578125
1759923419656,1024923082,51812,14,0.302001953125,-0.02374267578125,-0.95733642578125
1759923419656,1024923082,51812,15,0.30126953125,-0.02252197265625,-0.95611572265625
1759923419656,1024923082,51812,16,0.308837890625,-0.02471923828125,-0.96319580078125
1759923419656,1024923082,51812,17,0.30908203125,-0.02496337890625,-0.96026611328125
1759923419656,1024923082,51812,18,0.30615234375,-0.02618408203125,-0.95611572265625
1759923419656,1024923082,51812,19,0.299560546875,-0.02203369140625,-0.95880126953125
1759923419656,1024923082,51812,20,0.294921875,-0.02252197265625,-0.95928955078125
1759923419656,1024923082,51812,21,0.292236328125,-0.02447509765625,-0.95953369140625
1759923419656,1024923082,51812,22,0.29296875,-0.02593994140625,-0.96002197265625
1759923419656,1024923082,51812,23,0.296875,-0.02667236328125,-0.96124267578125
1759923419656,1024923082,51812,24,0.297607421875,-0.02642822265625,-0.96197509765625
1759923419656,1024923082,51812,25,0.299560546875,-0.02691650390625,-0.96002197265625
1759923419656,1024923082,51812,26,0.295654296875,-0.02520751953125,-0.96099853515625
1759923419656,1024923082,51812,27,0.2958984375,-0.02813720703125,-0.96002197265625
1759923419656,1024923082,51812,28,0.297119140625,-0.02667236328125,-0.95977783203125
1759923419656,1024923082,51812,29,0.29638671875,-0.02471923828125,-0.96124267578125
1759923419656,1024923082,51812,30,0.298583984375,-0.02447509765625,-0.95928955078125
1759923419656,1024923082,51812,31,0.298095703125,-0.02349853515625,-0.95904541015625
1759923422190,1024925613,51813,0,0.298095703125,-0.02252197265625,-0.95635986328125
1759923422190,1024925613,51813,1,0.306396484375,-0.02569580078125,-0.95855712890625
1759923422190,1024925613,51813,2,0.3056640625,-0.02325439453125,-0.95709228515625
1759923422190,1024925613,51813,3,0.30712890625,-0.02374267578125,-0.95782470703125
1759923422190,1024925613,51813,4,0.313720703125,-0.02203369140625,-0.95831298828125
1759923422190,1024925613,51813,5,0.3115234375,-0.02154541015625,-0.95538330078125
1759923422190,1024925613,51813,6,0.3134765625,-0.02105712890625,-0.95513916015625
1759923422190,1024925613,51813,7,0.315185546875,-0.02105712890625,-0.95489501953125
1759923422190,1024925613,51813,8,0.31494140625,-0.02398681640625,-0.95343017578125
1759923422190,1024925613,51813,9,0.314453125,-0.02130126953125,-0.95318603515625
1759923422190,1024925613,51813,10,0.31640625,-0.02008056640625,-0.95147705078125
1759923422190,1024925613,51813,11,0.317138671875,-0.02032470703125,-0.95733642578125
1759923422190,1024925613,51813,12,0.31298828125,-0.02325439453125,-0.95758056640625
1759923422190,1024925613,51813,13,0.3125,-0.02325439453125,-0.95660400390625
1759923422190,1024925613,51813,14,0.315673828125,-0.02301025390625,-0.95562744140625
1759923422190,1024925613,51813,15,0.31640625,-0.02032470703125,-0.95611572265625
1759923422190,1024925613,51813,16,0.31689453125,-0.02252197265625,-0.95587158203125
1759923422190,1024925613,51813,17,0.313232421875,-0.02349853515625,-0.95611572265625
1759923422190,1024925613,51813,18,0.310302734375,-0.02398681640625,-0.95074462890625
1759923422190,1024925613,51813,19,0.30419921875,-0.02178955078125,-0.95758056640625
1759923422190,1024925613,51813,20,0.305419921875,-0.02301025390625,-0.95880126953125
1759923422190,1024925613,51813,21,0.321533203125,-0.02618408203125,-0.95343017578125
1759923422190,1024925613,51813,22,0.346435546875,-0.02984619140625,-0.93804931640625
1759923422190,1024925613,51813,23,0.34765625,-0.02911376953125,-0.94024658203125
1759923422190,1024925613,51813,24,0.34521484375,-0.03228759765625,-0.94830322265625
1759923422190,1024925613,51813,25,0.34521484375,-0.02984619140625,-0.94512939453125
1759923422190,1024925613,51813,26,0.34619140625,-0.02813720703125,-0.94415283203125
1759923422190,1024925613,51813,27,0.347412109375,-0.03009033203125,-0.94439697265625
1759923422190,1024925613,51813,28,0.34765625,-0.02813720703125,-0.94439697265625
1759923422190,1024925613,51813,29,0.345947265625,-0.02764892578125,-0.94537353515625
1759923422190,1024925613,51813,30,0.34814453125,-0.02545166015625,-0.94244384765625
1759923422190,1024925613,51813,31,0.35009765625,-0.02569580078125,-0.94561767578125
1759923424707,1024928144,51814,0,0.349853515625,-0.02618408203125,-0.93829345703125
1759923424707,1024928144,51814,1,0.348388671875,-0.02545166015625,-0.94097900390625
1759923424707,1024928144,51814,2,0.350830078125,-0.02813720703125,-0.94146728515625
1759923424707,1024928144,51814,3,0.34912109375,-0.02691650390625,-0.94317626953125
1759923424707,1024928144,51814,4,0.351806640625,-0.02569580078125,-0.94000244140625
1759923424707,1024928144,51814,5,0.353271484375,-0.02471923828125,-0.94244384765625
1759923424707,1024928144,51814,6,0.3515625,-0.02667236328125,-0.94390869140625
1759923424707,1024928144,51814,7,0.3505859375,-0.02789306640625,-0.94049072265625
1759923424707,1024928144,51814,8,0.346435546875,-0.02667236328125,-0.94439697265625
1759923424707,1024928144,51814,9,0.3359375,-0.02667236328125,-0.94903564453125
1759923424707,1024928144,51814,10,0.32275390625,-0.02569580078125,-0.94805908203125
1759923424707,1024928144,51814,11,0.314697265625,-0.02740478515625,-0.95489501953125
1759923424707,1024928144,51814,12,0.3095703125,-0.02618408203125,-0.95489501953125
1759923424707,1024928144,51814,13,0.303955078125,-0.02716064453125,-0.95562744140625
1759923424707,1024928144,51814,14,0.3037109375,-0.02740478515625,-0.95758056640625
1759923424707,1024928144,51814,15,0.302490234375,-0.02447509765625,-0.95928955078125
1759923424707,1024928144,51814,16,0.30224609375,-0.02618408203125,-0.95782470703125
1759923424707,1024928144,51814,17,0.303955078125,-0.02423095703125,-0.95709228515625
1759923424707,1024928144,51814,18,0.305419921875,-0.02618408203125,-0.95806884765625
1759923424707,1024928144,51814,19,0.3037109375,-0.02398681640625,-0.95684814453125
1759923424707,1024928144,51814,20,0.3125,-0.02545166015625,-0.95660400390625
1759923424707,1024928144,51814,21,0.30810546875,-0.02398681640625,-0.95587158203125
1759923424707,1024928144,51814,22,0.311767578125,-0.02252197265625,-0.95562744140625
1759923424707,1024928144,51814,23,0.31396484375,-0.02398681640625,-0.95220947265625
1759923424707,1024928144,51814,24,0.314208984375,-0.02374267578125,-0.95416259765625
1759923424707,1024928144,51814,25,0.316650390625,-0.02276611328125,-0.95220947265625
1759923424707,1024928144,51814,26,0.316162109375,-0.01910400390625,-0.95147705078125
1759923424707,1024928144,51814,27,0.318115234375,-0.02325439453125,-0.95562744140625
1759923424707,1024928144,51814,28,0.31591796875,-0.02178955078125,-0.95831298828125
1759923424707,1024928144,51814,29,0.308349609375,-0.02105712890625,-0.95391845703125
1759923424707,1024928144,51814,30,0.303466796875,-0.02593994140625,-0.95684814453125
1759923424707,1024928144,51814,31,0.30322265625,-0.02447509765625,-0.95758056640625
1759923427232,1024930675,51815,0,0.305908203125,-0.02423095703125,-0.95513916015625
1759923427232,1024930675,51815,1,0.305419921875,-0.02374267578125,-0.95904541015625
1759923427232,1024930675,51815,2,0.302490234375,-0.02447509765625,-0.95660400390625
1759923427232,1024930675,51815,3,0.30615234375,-0.02447509765625,-0.95806884765625
1759923427232,1024930675,51815,4,0.305908203125,-0.02398681640625,-0.95880126953125
1759923427232,1024930675,51815,5,0.30712890625,-0.02203369140625,-0.95733642578125
1759923427232,1024930675,51815,6,0.31005859375,-0.02374267578125,-0.95513916015625
1759923427232,1024930675,51815,7,0.308837890625,-0.02203369140625,-0.95831298828125
1759923427232,1024930675,51815,8,0.311279296875,-0.02227783203125,-0.95611572265625
1759923427232,1024930675,51815,9,0.3125,-0.02252197265625,-0.95513916015625
1759923427232,1024930675,51815,10,0.3125,-0.02154541015625,-0.95684814453125
1759923427232,1024930675,51815,11,0.311767578125,-0.02154541015625,-0.95294189453125
1759923427232,1024930675,51815,12,0.314697265625,-0.02203369140625,-0.95465087890625
1759923427232,1024930675,51815,13,0.315673828125,-0.02227783203125,-0.95684814453125
1759923427232,1024930675,51815,14,0.31494140625,-0.02154541015625,-0.95172119140625
1759923427232,1024930675,51815,15,0.312255859375,-0.02105712890625,-0.95343017578125
1759923427232,1024930675,51815,16,0.314453125,-0.02056884765625,-0.95294189453125
1759923427232,1024930675,51815,17,0.316650390625,-0.02081298828125,-0.95440673828125
1759923427232,1024930675,51815,18,0.317138671875,-0.02105712890625,-0.95562744140625
1759923427232,1024930675,51815,19,0.31689453125,-0.02252197265625,-0.95196533203125
1759923427232,1024930675,51815,20,0.31591796875,-0.02203369140625,-0.95172119140625
1759923427232,1024930675,51815,21,0.31640625,-0.01959228515625,-0.95294189453125
1759923427232,1024930675,51815,22,0.314697265625,-0.02105712890625,-0.95367431640625
1759923427232,1024930675,51815,23,0.316650390625,-0.02081298828125,-0.95343017578125
1759923427232,1024930675,51815,24,0.316162109375,-0.02105712890625,-0.95245361328125
1759923427232,1024930675,51815,25,0.318115234375,-0.02056884765625,-0.95440673828125
1759923427232,1024930675,51815,26,0.318359375,-0.02032470703125,-0.95220947265625
1759923427232,1024930675,51815,27,0.31640625,-0.02105712890625,-0.95220947265625
1759923427232,1024930675,51815,28,0.3154296875,-0.02203369140625,-0.95172119140625
1759923427232,1024930675,51815,29,0.31591796875,-0.02081298828125,-0.95269775390625
1759923427232,1024930675,51815,30,0.319091796875,-0.02203369140625,-0.95587158203125
1759923427232,1024930675,51815,31,0.317138671875,-0.02325439453125,-0.95538330078125
1759923429754,1024933207,51816,0,0.31591796875,-0.01885986328125,-0.95343017578125
1759923429754,1024933207,51816,1,0.314453125,-0.01959228515625,-0.95050048828125
1759923429754,1024933207,51816,2,0.3173828125,-0.02178955078125,-0.95294189453125
1759923429754,1024933207,51816,3,0.314697265625,-0.02130126953125,-0.95416259765625
1759923429754,1024933207,51816,4,0.314453125,-0.02325439453125,-0.95635986328125
1759923429754,1024933207,51816,5,0.314453125,-0.02301025390625,-0.95318603515625
1759923429754,1024933207,51816,6,0.314453125,-0.02252197265625,-0.95709228515625
1759923429754,1024933207,51816,7,0.3125,-0.02203369140625,-0.95391845703125
1759923429754,1024933207,51816,8,0.3095703125,-0.02105712890625,-0.95611572265625
1759923429754,1024933207,51816,9,0.30712890625,-0.02252197265625,-0.95806884765625
1759923429754,1024933207,51816,10,0.308837890625,-0.02423095703125,-0.95758056640625
1759923429754,1024933207,51816,11,0.305419921875,-0.02301025390625,-0.95709228515625
1759923429754,1024933207,51816,12,0.305419921875,-0.02276611328125,-0.95782470703125
1759923429754,1024933207,51816,13,0.30615234375,-0.02618408203125,-0.95928955078125
1759923429754,1024933207,51816,14,0.30517578125,-0.02471923828125,-0.95782470703125
1759923429754,1024933207,51816,15,0.306640625,-0.02374267578125,-0.95709228515625
1759923429754,1024933207,51816,16,0.30517578125,-0.02301025390625,-0.95489501953125
1759923429754,1024933207,51816,17,0.3056640625,-0.02203369140625,-0.95538330078125
1759923429754,1024933207,51816,18,0.3056640625,-0.02105712890625,-0.95806884765625
1759923429754,1024933207,51816,19,0.30419921875,-0.02154541015625,-0.95782470703125
1759923429754,1024933207,51816,20,0.306884765625,-0.02203369140625,-0.95709228515625
1759923429754,1024933207,51816,21,0.314208984375,-0.02130126953125,-0.95684814453125
1759923429754,1024933207,51816,22,0.3154296875,-0.02130126953125,-0.95660400390625
1759923429754,1024933207,51816,23,0.3134765625,-0.02105712890625,-0.95465087890625
1759923429754,1024933207,51816,24,0.3134765625,-0.02154541015625,-0.95098876953125
1759923429754,1024933207,51816,25,0.31494140625,-0.01861572265625,-0.95172119140625
1759923429754,1024933207,51816,26,0.314697265625,-0.02032470703125,-0.95416259765625
1759923429754,1024933207,51816,27,0.316650390625,-0.02081298828125,-0.95220947265625
1759923429754,1024933207,51816,28,0.312744140625,-0.02081298828125,-0.95416259765625
1759923429754,1024933207,51816,29,0.3154296875,-0.01983642578125,-0.95635986328125
1759923429754,1024933207,51816,30,0.317138671875,-0.02081298828125,-0.95294189453125
1759923429754,1024933207,51816,31,0.316162109375,-0.01715087890625,-0.95098876953125
1759923432270,1024935738,51817,0,0.31591796875,-0.01934814453125,-0.95147705078125
1759923432270,1024935738,51817,1,0.316162109375,-0.01910400390625,-0.95611572265625
1759923432270,1024935738,51817,2,0.317138671875,-0.02105712890625,-0.95269775390625
1759923432270,1024935738,51817,3,0.317138671875,-0.01837158203125,-0.95367431640625
1759923432270,1024935738,51817,4,0.31396484375,-0.02056884765625,-0.95416259765625
1759923432270,1024935738,51817,5,0.313720703125,-0.02227783203125,-0.95587158203125
1759923432270,1024935738,51817,6,0.315673828125,-0.01983642578125,-0.95562744140625
1759923432270,1024935738,51817,7,0.317138671875,-0.02276611328125,-0.95611572265625
1759923432270,1024935738,51817,8,0.318603515625,-0.02081298828125,-0.95318603515625
1759923432270,1024935738,51817,9,0.31591796875,-0.01910400390625,-0.95635986328125
1759923432270,1024935738,51817,10,0.31884765625,-0.02154541015625,-0.95587158203125
1759923432270,1024935738,51817,11,0.31689453125,-0.02008056640625,-0.95465087890625
1759923432270,1024935738,51817,12,0.318115234375,-0.02008056640625,-0.95416259765625
1759923432270,1024935738,51817,13,0.318115234375,-0.02056884765625,-0.95343017578125
1759923432270,1024935738,51817,14,0.318115234375,-0.02105712890625,-0.95391845703125
1759923432270,1024935738,51817,15,0.313720703125,-0.02081298828125,-0.95318603515625
1759923455126,1024958517,51826,29,0.3193359375,-0.02154541015625,-0.95343017578125
