receivedPhoneTimestamp,respeckTimestamp,packetSeqNum,sampleSeqNum,accelX,accelY,accelZ
1759596430166,697949543,13361,30,0.099609375,-1.01007080078125,0.06903076171875
1759596430166,697949543,13361,31,0.112060546875,-1.00592041015625,0.07904052734375
1759596432686,697952110,13362,0,0.118408203125,-1.00152587890625,0.07440185546875
1759596432686,697952110,13362,1,0.113037109375,-1.00738525390625,0.07147216796875
1759596432686,697952110,13362,2,0.10986328125,-1.01397705078125,0.07073974609375
1759596432686,697952110,13362,3,0.107421875,-1.01397705078125,0.06195068359375
1759596432686,697952110,13362,4,0.14306640625,-0.99591064453125,0.06512451171875
1759596432686,697952110,13362,5,0.126708984375,-1.00445556640625,0.07244873046875
1759596432686,697952110,13362,6,0.120849609375,-1.00103759765625,0.05242919921875
1759596432686,697952110,13362,7,0.109130859375,-1.01422119140625,0.04901123046875
1759596432686,697952110,13362,8,0.115966796875,-1.01812744140625,0.05242919921875
1759596432686,697952110,13362,9,0.10498046875,-0.99908447265625,0.03802490234375
1759596432686,697952110,13362,10,0.118896484375,-1.01300048828125,0.04608154296875
1759596432686,697952110,13362,11,0.11181640625,-1.01226806640625,0.04193115234375
1759596432686,697952110,13362,12,0.123291015625,-1.00933837890625,0.03387451171875
1759596432686,697952110,13362,13,0.1142578125,-1.01470947265625,0.03924560546875
1759596432686,697952110,13362,14,0.11328125,-1.00225830078125,0.03607177734375
1759596432686,697952110,13362,15,0.116455078125,-1.01055908203125,0.04144287109375
1759596432686,697952110,13362,16,0.07958984375,-1.02276611328125,0.04656982421875
1759596432686,697952110,13362,17,0.10888671875,-1.00592041015625,0.05169677734375
1759596432686,697952110,13362,18,0.094970703125,-1.01275634765625,0.05218505859375
1759596432686,697952110,13362,19,0.08837890625,-1.01422119140625,0.04876708984375
1759596432686,697952110,13362,20,0.091796875,-1.01275634765625,0.04461669921875
1759596432686,697952110,13362,21,0.082275390625,-1.01300048828125,0.05023193359375
1759596432686,697952110,13362,22,0.10009765625,-1.01177978515625,0.04388427734375
1759596432686,697952110,13362,23,0.11474609375,-1.01641845703125,0.05072021484375
1759596432686,697952110,13362,24,0.100341796875,-1.01007080078125,0.04583740234375
1759596432686,697952110,13362,25,0.104736328125,-1.00860595703125,0.04412841796875
1759596432686,697952110,13362,26,0.108642578125,-1.01080322265625,0.04998779296875
1759596432686,697952110,13362,27,0.111572265625,-1.00787353515625,0.04974365234375
1759596432686,697952110,13362,28,0.114990234375,-1.01275634765625,0.05487060546875
1759596432686,697952110,13362,29,0.104736328125,-1.00811767578125,0.04998779296875
1759596432686,697952110,13362,30,0.113525390625,-1.00909423828125,0.05413818359375
1759596432686,697952110,13362,31,0.11083984375,-1.00909423828125,0.04998779296875
1759596435207,697954677,13363,0,0.105224609375,-1.01031494140625,0.04730224609375
1759596435207,697954677,13363,1,0.10693359375,-1.01251220703125,0.04364013671875
1759596435207,697954677,13363,2,0.10693359375,-1.01251220703125,0.04388427734375
1759596435207,697954677,13363,3,0.111083984375,-1.01104736328125,0.04364013671875
1759596435207,697954677,13363,4,0.10595703125,-1.00640869140625,0.04510498046875
1759596435207,697954677,13363,5,0.10986328125,-1.00689697265625,0.04754638671875
1759596435207,697954677,13363,6,0.109375,-1.01544189453125,0.03802490234375
1759596435207,697954677,13363,7,0.10498046875,-1.00445556640625,0.04071044921875
1759596435207,697954677,13363,8,0.10986328125,-1.01080322265625,0.04583740234375
1759596435207,697954677,13363,9,0.11376953125,-1.01031494140625,0.04632568359375
1759596435207,697954677,13363,10,0.1064453125,-1.00518798828125,0.03485107421875
1759596435207,697954677,13363,11,0.106201171875,-1.01519775390625,0.04339599609375
1759596435207,697954677,13363,12,0.109130859375,-1.00958251953125,0.04827880859375
1759596435207,697954677,13363,13,0.10400390625,-1.00982666015625,0.04193115234375
1759596435207,697954677,13363,14,0.107177734375,-1.01397705078125,0.04168701171875
1759596435207,697954677,13363,15,0.104248046875,-1.01031494140625,0.04486083984375
1759596435207,697954677,13363,16,0.108642578125,-1.01080322265625,0.04144287109375
1759596435207,697954677,13363,17,0.110595703125,-1.00616455078125,0.04437255859375
1759596435207,697954677,13363,18,0.102294921875,-1.01275634765625,0.04412841796875
1759596435207,697954677,13363,19,0.1123046875,-1.00567626953125,0.03997802734375
1759596435207,697954677,13363,20,0.10986328125,-1.01397705078125,0.04486083984375
1759596435207,697954677,13363,21,0.10888671875,-1.01202392578125,0.04217529296875
1759596435207,697954677,13363,22,0.110595703125,-1.00811767578125,0.04193115234375
1759596435207,697954677,13363,23,0.107421875,-1.00933837890625,0.04241943359375
1759596435207,697954677,13363,24,0.1064453125,-1.01446533203125,0.03436279296875
1759596435207,697954677,13363,25,0.109375,-1.00909423828125,0.03900146484375
1759596435207,697954677,13363,26,0.106201171875,-1.01177978515625,0.04168701171875
1759596435207,697954677,13363,27,0.104248046875,-1.01446533203125,0.03387451171875
1759596435207,697954677,13363,28,0.106201171875,-1.01373291015625,0.03704833984375
1759596435207,697954677,13363,29,0.114013671875,-1.01055908203125,0.03778076171875
1759596435207,697954677,13363,30,0.106201171875,-1.01300048828125,0.03631591796875
1759596435207,697954677,13363,31,0.114990234375,-1.00592041015625,0.03680419921875
1759596437907,697957244,13364,0,0.10546875,-1.01715087890625,0.03240966796875
1759596437907,697957244,13364,1,0.113525390625,-1.00567626953125,0.04290771484375
1759596437907,697957244,13364,2,0.115478515625,-1.00860595703125,0.03753662109375
1759596437907,697957244,13364,3,0.11083984375,-1.00787353515625,0.04119873046875
1759596437907,697957244,13364,4,0.103515625,-1.01324462890625,0.04339599609375
1759596437907,697957244,13364,5,0.117431640625,-1.01080322265625,0.03997802734375
1759596437907,697957244,13364,6,0.110107421875,-1.01031494140625,0.03656005859375
1759596437907,697957244,13364,7,0.114990234375,-1.00738525390625,0.04046630859375
1759596437907,697957244,13364,8,0.10986328125,-1.01153564453125,0.03948974609375
1759596437907,697957244,13364,9,0.111083984375,-1.01129150390625,0.03948974609375
1759596437907,697957244,13364,10,0.111572265625,-1.00762939453125,0.03582763671875
1759596437907,697957244,13364,11,0.110595703125,-1.01324462890625,0.03558349609375
1759596437907,697957244,13364,12,0.10546875,-1.01544189453125,0.03533935546875
1759596437907,697957244,13364,13,0.1103515625,-1.00982666015625,0.04437255859375
1759596437907,697957244,13364,14,0.111572265625,-1.01202392578125,0.04217529296875
1759596437907,697957244,13364,15,0.103759765625,-1.00885009765625,0.04071044921875
1759596437907,697957244,13364,16,0.106689453125,-1.01275634765625,0.03997802734375
1759596437907,697957244,13364,17,0.1083984375,-1.00885009765625,0.04412841796875
1759596437907,697957244,13364,18,0.108642578125,-1.00616455078125,0.04925537109375
1759596437907,697957244,13364,19,0.103515625,-1.01153564453125,0.04949951171875
1759596437907,697957244,13364,20,0.111328125,-1.01104736328125,0.04193115234375
1759596437907,697957244,13364,21,0.10400390625,-1.01031494140625,0.04412841796875
1759596437907,697957244,13364,22,0.114990234375,-1.00836181640625,0.04364013671875
1759596437907,697957244,13364,23,0.1083984375,-1.00982666015625,0.03778076171875
1759596437907,697957244,13364,24,0.107421875,-1.00885009765625,0.04071044921875
1759596437907,697957244,13364,25,0.112060546875,-1.01226806640625,0.03851318359375
1759596437907,697957244,13364,26,0.104248046875,-1.01153564453125,0.04364013671875
1759596437907,697957244,13364,27,0.1015625,-1.01177978515625,0.04412841796875
1759596437907,697957244,13364,28,0.1103515625,-1.01104736328125,0.04583740234375
1759596437907,697957244,13364,29,0.107177734375,-1.01177978515625,0.04266357421875
1759596437907,697957244,13364,30,0.107421875,-1.00933837890625,0.04754638671875
1759596437907,697957244,13364,31,0.107421875,-1.01104736328125,0.04217529296875
1759596440429,697959811,13365,0,0.1015625,-1.00665283203125,0.04779052734375
1759596440429,697959811,13365,1,0.10888671875,-1.01129150390625,0.04656982421875
1759596440429,697959811,13365,2,0.10498046875,-1.00836181640625,0.04095458984375
1759596440429,697959811,13365,3,0.101806640625,-1.01153564453125,0.05145263671875
1759596440429,697959811,13365,4,0.110107421875,-1.00860595703125,0.04339599609375
1759596440429,697959811,13365,5,0.098388671875,-1.01251220703125,0.05194091796875
1759596440429,697959811,13365,6,0.109619140625,-1.00811767578125,0.04754638671875
1759596440429,697959811,13365,7,0.100830078125,-1.01177978515625,0.04852294921875
1759596440429,697959811,13365,8,0.103759765625,-1.00567626953125,0.04852294921875
1759596440429,697959811,13365,9,0.101318359375,-1.01470947265625,0.04559326171875
1759596440429,697959811,13365,10,0.104736328125,-1.00933837890625,0.04608154296875
1759596440429,697959811,13365,11,0.10302734375,-1.01275634765625,0.04241943359375
1759596440429,697959811,13365,12,0.10302734375,-1.01202392578125,0.04901123046875
1759596440429,697959811,13365,13,0.103271484375,-1.01324462890625,0.04486083984375
1759596440429,697959811,13365,14,0.098876953125,-1.00738525390625,0.04681396484375
1759596440429,697959811,13365,15,0.101318359375,-1.01397705078125,0.04827880859375
1759596440429,697959811,13365,16,0.099609375,-1.00958251953125,0.04754638671875
1759596440429,697959811,13365,17,0.10595703125,-1.01324462890625,0.04705810546875
1759596440429,697959811,13365,18,0.101806640625,-1.01202392578125,0.04119873046875
1759596440429,697959811,13365,19,0.10546875,-1.00640869140625,0.04461669921875
1759596440429,697959811,13365,20,0.103271484375,-1.01104736328125,0.04510498046875
1759596440429,697959811,13365,21,0.105712890625,-1.01226806640625,0.04534912109375
1759596440429,697959811,13365,22,0.101806640625,-1.01177978515625,0.04583740234375
1759596440429,697959811,13365,23,0.106201171875,-1.00714111328125,0.04803466796875
1759596440429,697959811,13365,24,0.094970703125,-1.01397705078125,0.04364013671875
1759596440429,697959811,13365,25,0.11083984375,-1.00640869140625,0.04315185546875
1759596440429,697959811,13365,26,0.101318359375,-1.01275634765625,0.04730224609375
1759596440429,697959811,13365,27,0.107666015625,-1.01104736328125,0.04437255859375
1759596440429,697959811,13365,28,0.103759765625,-1.01495361328125,0.04974365234375
1759596440429,697959811,13365,29,0.103515625,-1.00689697265625,0.04144287109375
1759596440429,697959811,13365,30,0.104248046875,-1.00860595703125,0.04290771484375
1759596440429,697959811,13365,31,0.10302734375,-1.01275634765625,0.04437255859375
1759596442949,697962378,13366,0,0.105712890625,-1.01324462890625,0.04461669921875
1759596442949,697962378,13366,1,0.104248046875,-1.00811767578125,0.04632568359375
1759596442949,697962378,13366,2,0.103515625,-1.01373291015625,0.04290771484375
1759596442949,697962378,13366,3,0.10791015625,-1.00421142578125,0.04241943359375
1759596442949,697962378,13366,4,0.10205078125,-1.01129150390625,0.04510498046875
1759596442949,697962378,13366,5,0.101318359375,-1.01153564453125,0.04315185546875
1759596442949,697962378,13366,6,0.096923828125,-1.01055908203125,0.04754638671875
1759596442949,697962378,13366,7,0.1044921875,-1.01080322265625,0.04046630859375
1759596442949,697962378,13366,8,0.100341796875,-1.00860595703125,0.05072021484375
1759596442949,697962378,13366,9,0.100830078125,-1.01495361328125,0.04217529296875
1759596442949,697962378,13366,10,0.1015625,-1.01348876953125,0.04412841796875
1759596442949,697962378,13366,11,0.1025390625,-1.01251220703125,0.03997802734375
1759596442949,697962378,13366,12,0.1064453125,-1.00836181640625,0.04315185546875
1759596442949,697962378,13366,13,0.098876953125,-1.01007080078125,0.04632568359375
1759596442949,697962378,13366,14,0.098876953125,-1.01055908203125,0.04559326171875
1759596442949,697962378,13366,15,0.098876953125,-1.00982666015625,0.04608154296875
1759596442949,697962378,13366,16,0.103515625,-1.00933837890625,0.04705810546875
1759596442949,697962378,13366,17,0.104736328125,-1.01641845703125,0.04119873046875
1759596442949,697962378,13366,18,0.09912109375,-1.01348876953125,0.04779052734375
1759596442949,697962378,13366,19,0.107421875,-1.01031494140625,0.04632568359375
1759596442949,697962378,13366,20,0.1044921875,-1.01348876953125,0.03948974609375
1759596442949,697962378,13366,21,0.101806640625,-1.01251220703125,0.03900146484375
1759596442949,697962378,13366,22,0.105712890625,-1.00958251953125,0.04266357421875
1759596442949,697962378,13366,23,0.106201171875,-1.01080322265625,0.03387451171875
1759596442949,697962378,13366,24,0.107177734375,-1.01104736328125,0.04388427734375
1759596442949,697962378,13366,25,0.10791015625,-1.00640869140625,0.04046630859375
1759596442949,697962378,13366,26,0.120849609375,-1.01275634765625,0.03997802734375
1759596442949,697962378,13366,27,0.116943359375,-1.00738525390625,0.04217529296875
1759596442949,697962378,13366,28,0.12255859375,-1.01104736328125,0.03656005859375
1759596442949,697962378,13366,29,0.119384765625,-1.01519775390625,0.03411865234375
1759596442949,697962378,13366,30,0.119873046875,-1.00689697265625,0.03900146484375
1759596442949,697962378,13366,31,0.1162109375,-1.01324462890625,0.03826904296875
1759596445469,697964945,13367,0,0.122314453125,-1.00738525390625,0.03265380859375
1759596445469,697964945,13367,1,0.12353515625,-1.01202392578125,0.03045654296875
1759596445469,697964945,13367,2,0.128662109375,-1.00640869140625,0.03656005859375
1759596445469,697964945,13367,3,0.130126953125,-1.01422119140625,0.03070068359375
1759596445469,697964945,13367,4,0.130859375,-1.01226806640625,0.03875732421875
1759596445469,697964945,13367,5,0.129638671875,-1.00201416015625,0.03509521484375
1759596445469,697964945,13367,6,0.122802734375,-1.00982666015625,0.02801513671875
1759596445469,697964945,13367,7,0.127197265625,-1.01177978515625,0.02874755859375
1759596445469,697964945,13367,8,0.124755859375,-1.00347900390625,0.02630615234375
1759596445469,697964945,13367,9,0.124755859375,-1.01739501953125,0.02117919921875
1759596445469,697964945,13367,10,0.1240234375,-1.00885009765625,0.02362060546875
1759596445469,697964945,13367,11,0.11767578125,-1.00958251953125,0.01849365234375
1759596445469,697964945,13367,12,0.119140625,-1.01055908203125,0.01898193359375
1759596445469,697964945,13367,13,0.1201171875,-1.01177978515625,0.01483154296875
1759596445469,697964945,13367,14,0.12109375,-1.00567626953125,0.01824951171875
1759596445469,697964945,13367,15,0.120849609375,-1.01324462890625,0.01116943359375
1759596445469,697964945,13367,16,0.12255859375,-1.01129150390625,0.01605224609375
1759596445469,697964945,13367,17,0.112548828125,-1.00885009765625,0.01312255859375
1759596445469,697964945,13367,18,0.115478515625,-1.00958251953125,0.01434326171875
1759596445469,697964945,13367,19,0.115234375,-1.01251220703125,0.01312255859375
1759596445469,697964945,13367,20,0.116943359375,-1.00933837890625,0.01751708984375
1759596445469,697964945,13367,21,0.1171875,-1.01226806640625,0.01458740234375
1759596445469,697964945,13367,22,0.115234375,-1.01300048828125,0.01580810546875
1759596445469,697964945,13367,23,0.112060546875,-1.00714111328125,0.01727294921875
1759596445469,697964945,13367,24,0.115478515625,-1.01177978515625,0.01507568359375
1759596445469,697964945,13367,25,0.111083984375,-1.01055908203125,0.01654052734375
1759596445469,697964945,13367,26,0.109130859375,-1.01153564453125,0.01458740234375
1759596445469,697964945,13367,27,0.11572265625,-1.00958251953125,0.01654052734375
1759596445469,697964945,13367,28,0.114990234375,-1.01495361328125,0.02166748046875
1759596445469,697964945,13367,29,0.114013671875,-1.00616455078125,0.02093505859375
1759596445469,697964945,13367,30,0.11181640625,-1.01324462890625,0.02215576171875
1759596445469,697964945,13367,31,0.11083984375,-1.01324462890625,0.02606201171875
1759596448169,697967513,13368,0,0.109375,-1.00885009765625,0.01727294921875
1759596448169,697967513,13368,1,0.111083984375,-1.01007080078125,0.01605224609375
1759596448169,697967513,13368,2,0.11328125,-1.01104736328125,0.02044677734375
1759596448169,697967513,13368,3,0.107666015625,-1.01470947265625,0.01702880859375
1759596448169,697967513,13368,4,0.114990234375,-1.00762939453125,0.01702880859375
1759596448169,697967513,13368,5,0.116455078125,-1.01275634765625,0.01824951171875
1759596448169,697967513,13368,6,0.111083984375,-1.00860595703125,0.01849365234375
1759596448169,697967513,13368,7,0.11572265625,-1.01422119140625,0.01971435546875
1759596448169,697967513,13368,8,0.115234375,-1.01104736328125,0.02044677734375
1759596448169,697967513,13368,9,0.119384765625,-1.01007080078125,0.01922607421875
1759596448169,697967513,13368,10,0.123291015625,-1.00933837890625,0.02362060546875
1759596448169,697967513,13368,11,0.124755859375,-1.01153564453125,0.02337646484375
1759596448169,697967513,13368,12,0.125,-1.00689697265625,0.02484130859375
1759596448169,697967513,13368,13,0.124267578125,-1.01153564453125,0.02288818359375
1759596448169,697967513,13368,14,0.12744140625,-1.01300048828125,0.01922607421875
1759596448169,697967513,13368,15,0.12255859375,-1.00714111328125,0.02362060546875
1759596448169,697967513,13368,16,0.1240234375,-1.01251220703125,0.02362060546875
1759596448169,697967513,13368,17,0.118896484375,-1.01055908203125,0.02142333984375
1759596448169,697967513,13368,18,0.1171875,-1.00787353515625,0.02239990234375
1759596448169,697967513,13368,19,0.123291015625,-1.01300048828125,0.01678466796875
1759596448169,697967513,13368,20,0.121826171875,-1.01055908203125,0.01507568359375
1759596448169,697967513,13368,21,0.122314453125,-1.00860595703125,0.01458740234375
1759596448169,697967513,13368,22,0.119873046875,-1.01348876953125,0.01995849609375
1759596448169,697967513,13368,23,0.109619140625,-1.01055908203125,0.01361083984375
1759596448169,697967513,13368,24,0.11865234375,-1.01104736328125,0.01361083984375
1759596448169,697967513,13368,25,0.1064453125,-1.01202392578125,0.01727294921875
1759596448169,697967513,13368,26,0.112060546875,-1.01495361328125,0.01678466796875
1759596448169,697967513,13368,27,0.104736328125,-1.00885009765625,0.01922607421875
1759596448169,697967513,13368,28,0.10498046875,-1.01129150390625,0.01800537109375
1759596448169,697967513,13368,29,0.10546875,-1.01373291015625,0.01043701171875
1759596448169,697967513,13368,30,0.1044921875,-1.01177978515625,0.01947021484375
1759596448169,697967513,13368,31,0.1064453125,-1.01055908203125,0.01605224609375
1759596450689,697970080,13369,0,0.110595703125,-1.01593017578125,0.01727294921875
1759596450689,697970080,13369,1,0.1025390625,-1.01129150390625,0.01434326171875
1759596450689,697970080,13369,2,0.106689453125,-1.01055908203125,0.01629638671875
1759596450689,697970080,13369,3,0.104736328125,-1.01226806640625,0.01751708984375
1759596450689,697970080,13369,4,0.10498046875,-1.00982666015625,0.01556396484375
1759596450689,697970080,13369,5,0.10595703125,-1.01153564453125,0.01824951171875
1759596450689,697970080,13369,6,0.104248046875,-1.01202392578125,0.01287841796875
1759596450689,697970080,13369,7,0.10498046875,-1.01007080078125,0.01361083984375
1759596450689,697970080,13369,8,0.103759765625,-1.01129150390625,0.01409912109375
1759596450689,697970080,13369,9,0.102294921875,-1.01226806640625,0.00994873046875
1759596450689,697970080,13369,10,0.10791015625,-1.01300048828125,0.00848388671875
1759596450689,697970080,13369,11,0.102783203125,-1.01251220703125,0.01141357421875
1759596450689,697970080,13369,12,0.110595703125,-1.01226806640625,0.00604248046875
1759596450689,697970080,13369,13,0.106689453125,-1.01446533203125,0.00604248046875
1759596450689,697970080,13369,14,0.10791015625,-1.01373291015625,0.01019287109375
1759596450689,697970080,13369,15,0.103271484375,-1.01300048828125,0.00848388671875
1759596450689,697970080,13369,16,0.11572265625,-1.01080322265625,0.00555419921875
1759596450689,697970080,13369,17,0.104248046875,-1.01470947265625,0.01458740234375
1759596450689,697970080,13369,18,0.111572265625,-1.01422119140625,0.00872802734375
1759596450689,697970080,13369,19,0.112548828125,-1.00958251953125,0.00872802734375
1759596450689,697970080,13369,20,0.108642578125,-1.01446533203125,0.01214599609375
1759596450689,697970080,13369,21,0.10791015625,-1.01055908203125,0.01287841796875
1759596450689,697970080,13369,22,0.114501953125,-1.01373291015625,0.01409912109375
1759596450689,697970080,13369,23,0.108642578125,-1.01007080078125,0.01092529296875
1759596450689,697970080,13369,24,0.105712890625,-1.01251220703125,0.01458740234375
1759596450689,697970080,13369,25,0.10791015625,-1.01080322265625,0.01800537109375
1759596450689,697970080,13369,26,0.105712890625,-1.01129150390625,0.01409912109375
1759596450689,697970080,13369,27,0.104736328125,-1.01129150390625,0.01776123046875
1759596450689,697970080,13369,28,0.10986328125,-1.01104736328125,0.02166748046875
1759596450689,697970080,13369,29,0.103515625,-1.01324462890625,0.00775146484375
1759596450689,697970080,13369,30,0.1064453125,-1.01055908203125,0.01824951171875
1759596450689,697970080,13369,31,0.10888671875,-1.01373291015625,0.01776123046875
1759596453209,697972647,13370,0,0.109375,-1.01251220703125,0.01629638671875
1759596453209,697972647,13370,1,0.104248046875,-1.01007080078125,0.01409912109375
1759596453209,697972647,13370,2,0.1103515625,-1.01397705078125,0.01336669921875
1759596453209,697972647,13370,3,0.107666015625,-1.01031494140625,0.01483154296875
1759596453209,697972647,13370,4,0.108642578125,-1.01129150390625,0.01580810546875
1759596453209,697972647,13370,5,0.1142578125,-1.01129150390625,0.02020263671875
1759596453209,697972647,13370,6,0.11474609375,-1.01080322265625,0.01678466796875
1759596453209,697972647,13370,7,0.114990234375,-1.01153564453125,0.02288818359375
1759596453209,697972647,13370,8,0.11572265625,-1.01055908203125,0.02484130859375
1759596453209,697972647,13370,9,0.10498046875,-1.00958251953125,0.02313232421875
1759596453209,697972647,13370,10,0.10595703125,-1.01031494140625,0.02581787109375
1759596453209,697972647,13370,11,0.112548828125,-1.01275634765625,0.02313232421875
1759596453209,697972647,13370,12,0.100830078125,-1.00518798828125,0.03533935546875
1759596453209,697972647,13370,13,0.11083984375,-1.01739501953125,0.01971435546875
1759596453209,697972647,13370,14,0.10791015625,-1.01031494140625,0.03167724609375
1759596453209,697972647,13370,15,0.111572265625,-1.01129150390625,0.02679443359375
1759596453209,697972647,13370,16,0.1064453125,-1.00518798828125,0.02581787109375
1759596453209,697972647,13370,17,0.106201171875,-1.01446533203125,0.02630615234375
1759596453209,697972647,13370,18,0.109619140625,-1.01177978515625,0.02801513671875
1759596453209,697972647,13370,19,0.105224609375,-1.00885009765625,0.02899169921875
1759596453209,697972647,13370,20,0.11083984375,-1.01251220703125,0.02825927734375
1759596453209,697972647,13370,21,0.11328125,-1.01397705078125,0.02093505859375
1759596453209,697972647,13370,22,0.109130859375,-1.01177978515625,0.02752685546875
1759596453209,697972647,13370,23,0.10986328125,-1.00787353515625,0.02581787109375
1759596453209,697972647,13370,24,0.112060546875,-1.00762939453125,0.02630615234375
1759596453209,697972647,13370,25,0.105712890625,-1.01788330078125,0.03265380859375
1759596453209,697972647,13370,26,0.122314453125,-1.00860595703125,0.02655029296875
1759596453209,697972647,13370,27,0.116455078125,-1.01641845703125,0.01971435546875
1759596453209,697972647,13370,28,0.1142578125,-1.00909423828125,0.02728271484375
1759596453209,697972647,13370,29,0.11767578125,-1.00762939453125,0.02752685546875
1759596453209,697972647,13370,30,0.12255859375,-1.00738525390625,0.02508544921875
1759596453209,697972647,13370,31,0.11962890625,-1.01422119140625,0.02142333984375
1759596455911,697975214,13371,0,0.11767578125,-1.00738525390625,0.02850341796875
1759596455911,697975214,13371,1,0.120849609375,-1.01153564453125,0.02215576171875
1759596455911,697975214,13371,2,0.113037109375,-1.01202392578125,0.02581787109375
1759596455911,697975214,13371,3,0.125244140625,-1.00933837890625,0.02362060546875
1759596455911,697975214,13371,4,0.119140625,-1.01226806640625,0.02630615234375
1759596455911,697975214,13371,5,0.129150390625,-1.00860595703125,0.02777099609375
1759596455911,697975214,13371,6,0.11328125,-1.00885009765625,0.03021240234375
1759596455911,697975214,13371,7,0.126220703125,-1.00592041015625,0.02679443359375
1759596455911,697975214,13371,8,0.1259765625,-1.01348876953125,0.02288818359375
1759596455911,697975214,13371,9,0.120849609375,-1.00860595703125,0.02801513671875
1759596455911,697975214,13371,10,0.11474609375,-1.00616455078125,0.02508544921875
1759596455911,697975214,13371,11,0.124755859375,-1.01422119140625,0.01947021484375
1759596455911,697975214,13371,12,0.12158203125,-1.00958251953125,0.02801513671875
1759596455911,697975214,13371,13,0.1240234375,-1.01007080078125,0.03045654296875
1759596455911,697975214,13371,14,0.130126953125,-1.01470947265625,0.03021240234375
1759596455911,697975214,13371,15,0.11865234375,-1.00616455078125,0.03045654296875
1759596455911,697975214,13371,16,0.115478515625,-1.01104736328125,0.02752685546875
1759596455911,697975214,13371,17,0.132080078125,-1.01104736328125,0.03021240234375
1759596455911,697975214,13371,18,0.1142578125,-1.00811767578125,0.02410888671875
1759596455911,697975214,13371,19,0.12353515625,-1.01055908203125,0.02435302734375
1759596455911,697975214,13371,20,0.123046875,-1.01007080078125,0.02313232421875
1759596455911,697975214,13371,21,0.12548828125,-1.00543212890625,0.01678466796875
1759596455911,697975214,13371,22,0.113525390625,-1.01275634765625,0.01947021484375
1759596455911,697975214,13371,23,0.116943359375,-1.01251220703125,0.01678466796875
1759596455911,697975214,13371,24,0.121826171875,-1.00982666015625,0.01019287109375
1759596455911,697975214,13371,25,0.119140625,-1.01129150390625,0.01092529296875
1759596455911,697975214,13371,26,0.117431640625,-1.00714111328125,0.00726318359375
1759596455911,697975214,13371,27,0.11572265625,-1.01324462890625,0.01580810546875
1759596455911,697975214,13371,28,0.1142578125,-1.01519775390625,0.01190185546875
1759596455911,697975214,13371,29,0.11474609375,-1.00665283203125,0.01458740234375
1759596455911,697975214,13371,30,0.121826171875,-1.01275634765625,0.00848388671875
1759596455911,697975214,13371,31,0.12109375,-1.00958251953125,0.01043701171875
1759596458428,697977781,13372,0,0.117919921875,-1.00762939453125,0.01165771484375
1759596458428,697977781,13372,1,0.118408203125,-1.01324462890625,0.00994873046875
1759596458428,697977781,13372,2,0.1142578125,-1.01177978515625,0.01239013671875
1759596458428,697977781,13372,3,0.121337890625,-1.01031494140625,0.01287841796875
1759596458428,697977781,13372,4,0.1201171875,-1.01275634765625,0.00994873046875
1759596458428,697977781,13372,5,0.125,-1.00909423828125,0.01263427734375
1759596458428,697977781,13372,6,0.126953125,-1.00836181640625,0.00799560546875
1759596458428,697977781,13372,7,0.123291015625,-1.00762939453125,0.00970458984375
1759596458428,697977781,13372,8,0.131103515625,-1.01422119140625,0.00384521484375
1759596458428,697977781,13372,9,0.117431640625,-1.00787353515625,0.01019287109375
1759596458428,697977781,13372,10,0.135009765625,-1.01300048828125,0.00360107421875
1759596458428,697977781,13372,11,0.130126953125,-1.00738525390625,0.00457763671875
1759596458428,697977781,13372,12,0.133544921875,-1.01055908203125,0.00848388671875
1759596458428,697977781,13372,13,0.127685546875,-1.00860595703125,0.00897216796875
1759596458428,697977781,13372,14,0.128173828125,-1.01593017578125,0.00701904296875
1759596458428,697977781,13372,15,0.129150390625,-1.00299072265625,0.01409912109375
1759596458428,697977781,13372,16,0.13427734375,-1.01348876953125,0.00677490234375
1759596458428,697977781,13372,17,0.129638671875,-1.01055908203125,0.01287841796875
1759596458428,697977781,13372,18,0.144287109375,-1.00152587890625,0.01483154296875
1759596458428,697977781,13372,19,0.124755859375,-1.01422119140625,0.00994873046875
1759596458428,697977781,13372,20,0.14111328125,-1.00738525390625,0.01873779296875
1759596458428,697977781,13372,21,0.127197265625,-1.00762939453125,0.02166748046875
1759596458428,697977781,13372,22,0.142578125,-1.00885009765625,0.02557373046875
1759596458428,697977781,13372,23,0.1240234375,-1.00714111328125,0.02093505859375
1759596458428,697977781,13372,24,0.1328125,-1.00787353515625,0.02166748046875
1759596458428,697977781,13372,25,0.12744140625,-1.00909423828125,0.01654052734375
1759596458428,697977781,13372,26,0.121337890625,-1.01129150390625,0.01556396484375
1759596458428,697977781,13372,27,0.121337890625,-1.00640869140625,0.01751708984375
1759596458428,697977781,13372,28,0.116455078125,-1.01129150390625,0.01605224609375
1759596458428,697977781,13372,29,0.1201171875,-1.01373291015625,0.01239013671875
1759596458428,697977781,13372,30,0.10986328125,-1.00787353515625,0.01507568359375
1759596458428,697977781,13372,31,0.114013671875,-1.00811767578125,0.01800537109375
1759596460949,697980348,13373,0,0.103271484375,-1.01275634765625,0.01239013671875
1759596460949,697980348,13373,1,0.11181640625,-1.00445556640625,0.01971435546875
1759596460949,697980348,13373,2,0.11083984375,-1.01031494140625,0.01458740234375
1759596460949,697980348,13373,3,0.11572265625,-1.01470947265625,0.01385498046875
1759596460949,697980348,13373,4,0.105224609375,-1.00714111328125,0.01531982421875
1759596460949,697980348,13373,5,0.1162109375,-1.00762939453125,0.01214599609375
1759596460949,697980348,13373,6,0.108642578125,-1.01544189453125,0.01507568359375
1759596460949,697980348,13373,7,0.113525390625,-1.01031494140625,0.01849365234375
1759596460949,697980348,13373,8,0.118896484375,-1.01275634765625,0.01165771484375
1759596460949,697980348,13373,9,0.11572265625,-1.01275634765625,0.01483154296875
1759596460949,697980348,13373,10,0.1171875,-1.00665283203125,0.01141357421875
1759596460949,697980348,13373,11,0.119873046875,-1.00909423828125,0.01312255859375
1759596460949,697980348,13373,12,0.119384765625,-1.01373291015625,0.00946044921875
1759596460949,697980348,13373,13,0.117919921875,-1.01177978515625,0.01336669921875
1759596460949,697980348,13373,14,0.124267578125,-1.00689697265625,0.01507568359375
