receivedPhoneTimestamp,respeckTimestamp,packetSeqNum,sampleSeqNum,accelX,accelY,accelZ
1760044739553,1175637377,15118,31,0.234375,-0.21759033203125,-0.95977783203125
1760044742088,1175639932,15119,0,0.2353515625,-0.23052978515625,-0.96417236328125
1760044742088,1175639932,15119,1,0.22509765625,-0.22784423828125,-0.96466064453125
1760044742088,1175639932,15119,2,0.212646484375,-0.23785400390625,-0.99127197265625
1760044742088,1175639932,15119,3,0.2119140625,-0.22808837890625,-0.98028564453125
1760044742088,1175639932,15119,4,0.20556640625,-0.22589111328125,-0.96905517578125
1760044742088,1175639932,15119,5,0.201904296875,-0.22662353515625,-1.01934814453125
1760044742088,1175639932,15119,6,0.232177734375,-0.24517822265625,-1.02984619140625
1760044742088,1175639932,15119,7,0.2587890625,-0.24395751953125,-0.94610595703125
1760044742088,1175639932,15119,8,0.25244140625,-0.21954345703125,-0.93170166015625
1760044742088,1175639932,15119,9,0.270751953125,-0.22613525390625,-0.95709228515625
1760044742088,1175639932,15119,10,0.26416015625,-0.22930908203125,-0.94805908203125
1760044742088,1175639932,15119,11,0.26611328125,-0.24224853515625,-0.97100830078125
1760044742088,1175639932,15119,12,0.255615234375,-0.23565673828125,-0.97735595703125
1760044742088,1175639932,15119,13,0.231201171875,-0.22418212890625,-0.96319580078125
1760044742088,1175639932,15119,14,0.226806640625,-0.22198486328125,-0.97174072265625
1760044742088,1175639932,15119,15,0.224853515625,-0.21490478515625,-1.01861572265625
1760044742088,1175639932,15119,16,0.242431640625,-0.21710205078125,-0.99200439453125
1760044742088,1175639932,15119,17,0.2216796875,-0.21636962890625,-0.96148681640625
1760044742088,1175639932,15119,18,0.224609375,-0.20343017578125,-0.98419189453125
1760044742088,1175639932,15119,19,0.223876953125,-0.20904541015625,-0.99420166015625
1760044742088,1175639932,15119,20,0.21337890625,-0.21246337890625,-1.00469970703125
1760044742088,1175639932,15119,21,0.239013671875,-0.22344970703125,-0.98760986328125
1760044742088,1175639932,15119,22,0.22802734375,-0.21124267578125,-0.92095947265625
1760044742088,1175639932,15119,23,0.223876953125,-0.20709228515625,-1.00152587890625
1760044742088,1175639932,15119,24,0.223388671875,-0.22662353515625,-0.98760986328125
1760044742088,1175639932,15119,25,0.21337890625,-0.21539306640625,-0.96490478515625
1760044742088,1175639932,15119,26,0.19921875,-0.20880126953125,-1.02471923828125
1760044742088,1175639932,15119,27,0.206298828125,-0.20977783203125,-0.95318603515625
1760044742088,1175639932,15119,28,0.202392578125,-0.20098876953125,-0.94537353515625
1760044742088,1175639932,15119,29,0.1904296875,-0.19781494140625,-1.03546142578125
1760044742088,1175639932,15119,30,0.17919921875,-0.20269775390625,-1.01300048828125
1760044742088,1175639932,15119,31,0.17919921875,-0.20147705078125,-1.00396728515625
1760044744629,1175642487,15120,0,0.1904296875,-0.21295166015625,-1.03448486328125
1760044744629,1175642487,15120,1,0.20703125,-0.20465087890625,-0.98956298828125
1760044744629,1175642487,15120,2,0.2119140625,-0.20220947265625,-0.94732666015625
1760044744629,1175642487,15120,3,0.2216796875,-0.20147705078125,-1.00909423828125
1760044744629,1175642487,15120,4,0.21630859375,-0.19781494140625,-0.96588134765625
1760044744629,1175642487,15120,5,0.2314453125,-0.20098876953125,-0.98883056640625
1760044744629,1175642487,15120,6,0.22412109375,-0.20343017578125,-0.95635986328125
1760044744629,1175642487,15120,7,0.203369140625,-0.19464111328125,-0.97760009765625
1760044744629,1175642487,15120,8,0.208251953125,-0.20050048828125,-0.99932861328125
1760044744629,1175642487,15120,9,0.193115234375,-0.19122314453125,-0.98907470703125
1760044744629,1175642487,15120,10,0.190673828125,-0.17486572265625,-1.01983642578125
1760044744629,1175642487,15120,11,0.21484375,-0.18487548828125,-1.07525634765625
1760044744629,1175642487,15120,12,0.211181640625,-0.19537353515625,-0.92803955078125
1760044744629,1175642487,15120,13,0.207763671875,-0.18951416015625,-0.94927978515625
1760044744629,1175642487,15120,14,0.195068359375,-0.18365478515625,-0.98370361328125
1760044744629,1175642487,15120,15,0.211181640625,-0.20001220703125,-1.02178955078125
1760044744629,1175642487,15120,16,0.19384765625,-0.19561767578125,-1.01519775390625
1760044744629,1175642487,15120,17,0.203125,-0.19830322265625,-1.07135009765625
1760044744629,1175642487,15120,18,0.202880859375,-0.20660400390625,-0.90069580078125
1760044744629,1175642487,15120,19,0.1904296875,-0.19512939453125,-0.93560791015625
1760044744629,1175642487,15120,20,0.231689453125,-0.20928955078125,-1.02618408203125
1760044744629,1175642487,15120,21,0.22412109375,-0.20391845703125,-0.98638916015625
1760044744629,1175642487,15120,22,0.226318359375,-0.19830322265625,-1.01519775390625
1760044744629,1175642487,15120,23,0.22607421875,-0.20391845703125,-0.96490478515625
1760044744629,1175642487,15120,24,0.209716796875,-0.19537353515625,-0.95050048828125
1760044744629,1175642487,15120,25,0.21240234375,-0.20245361328125,-1.01910400390625
1760044744629,1175642487,15120,26,0.22314453125,-0.20684814453125,-1.03594970703125
1760044744629,1175642487,15120,27,0.2080078125,-0.19512939453125,-0.96270751953125
1760044744629,1175642487,15120,28,0.210205078125,-0.18853759765625,-0.95050048828125
1760044744629,1175642487,15120,29,0.20166015625,-0.18682861328125,-0.98223876953125
1760044744629,1175642487,15120,30,0.24169921875,-0.21319580078125,-1.05963134765625
1760044744629,1175642487,15120,31,0.217041015625,-0.21832275390625,-0.96099853515625
1760044747163,1175645042,15121,0,0.212890625,-0.19073486328125,-0.97271728515625
1760044747163,1175645042,15121,1,0.219970703125,-0.20123291015625,-0.93487548828125
1760044747163,1175645042,15121,2,0.215087890625,-0.20562744140625,-0.95855712890625
1760044747163,1175645042,15121,3,0.19140625,-0.21099853515625,-1.07476806640625
1760044747163,1175645042,15121,4,0.176513671875,-0.21539306640625,-0.98443603515625
1760044747163,1175645042,15121,5,0.17236328125,-0.19342041015625,-1.00836181640625
1760044747163,1175645042,15121,6,0.17822265625,-0.21124267578125,-0.98980712890625
1760044747163,1175645042,15121,7,0.18994140625,-0.20635986328125,-0.97467041015625
1760044747163,1175645042,15121,8,0.206298828125,-0.20391845703125,-1.01763916015625
1760044747163,1175645042,15121,9,0.209228515625,-0.20269775390625,-1.04058837890625
1760044747163,1175645042,15121,10,0.21337890625,-0.18927001953125,-0.97613525390625
1760044747163,1175645042,15121,11,0.230712890625,-0.20880126953125,-0.93927001953125
1760044747163,1175645042,15121,12,0.22119140625,-0.20904541015625,-0.96759033203125
1760044747163,1175645042,15121,13,0.21240234375,-0.21124267578125,-0.99249267578125
1760044747163,1175645042,15121,14,0.20458984375,-0.22198486328125,-1.02178955078125
1760044747163,1175645042,15121,15,0.18798828125,-0.21173095703125,-0.97418212890625
1760044747163,1175645042,15121,16,0.197265625,-0.21514892578125,-1.02593994140625
1760044747163,1175645042,15121,17,0.19140625,-0.21392822265625,-0.96221923828125
1760044747163,1175645042,15121,18,0.182861328125,-0.21173095703125,-0.93072509765625
1760044747163,1175645042,15121,19,0.1865234375,-0.21905517578125,-0.97540283203125
1760044747163,1175645042,15121,20,0.185791015625,-0.20782470703125,-1.01593017578125
1760044747163,1175645042,15121,21,0.18994140625,-0.20709228515625,-1.02813720703125
1760044747163,1175645042,15121,22,0.198974609375,-0.21832275390625,-1.04864501953125
1760044747163,1175645042,15121,23,0.21337890625,-0.20611572265625,-0.95660400390625
1760044747163,1175645042,15121,24,0.20703125,-0.19952392578125,-0.94488525390625
1760044747163,1175645042,15121,25,0.21484375,-0.19635009765625,-0.99053955078125
1760044747163,1175645042,15121,26,0.221923828125,-0.20953369140625,-1.03302001953125
1760044747163,1175645042,15121,27,0.2041015625,-0.20245361328125,-0.98663330078125
1760044747163,1175645042,15121,28,0.202880859375,-0.19708251953125,-0.96319580078125
1760044747163,1175645042,15121,29,0.185302734375,-0.19000244140625,-0.97076416015625
1760044747163,1175645042,15121,30,0.176513671875,-0.20147705078125,-0.99322509765625
1760044747163,1175645042,15121,31,0.1875,-0.21148681640625,-1.03472900390625
1760044749659,1175647597,15122,0,0.197509765625,-0.20465087890625,-1.01788330078125
1760044749659,1175647597,15122,1,0.17626953125,-0.21148681640625,-0.97125244140625
1760044749659,1175647597,15122,2,0.18603515625,-0.20806884765625,-0.95538330078125
1760044749659,1175647597,15122,3,0.18701171875,-0.20025634765625,-1.01837158203125
1760044749659,1175647597,15122,4,0.177490234375,-0.20245361328125,-1.00689697265625
1760044749659,1175647597,15122,5,0.16845703125,-0.19659423828125,-0.98687744140625
1760044749659,1175647597,15122,6,0.167236328125,-0.20172119140625,-0.97296142578125
1760044749659,1175647597,15122,7,0.172607421875,-0.20562744140625,-0.99224853515625
1760044749659,1175647597,15122,8,0.174072265625,-0.20343017578125,-1.01177978515625
1760044749659,1175647597,15122,9,0.1640625,-0.18804931640625,-1.02740478515625
1760044749659,1175647597,15122,10,0.147216796875,-0.17852783203125,-1.00616455078125
1760044749659,1175647597,15122,11,0.151611328125,-0.18048095703125,-1.00250244140625
1760044749659,1175647597,15122,12,0.157958984375,-0.18170166015625,-1.01544189453125
1760044749659,1175647597,15122,13,0.171875,-0.18267822265625,-0.99298095703125
1760044749659,1175647597,15122,14,0.173095703125,-0.18096923828125,-1.00885009765625
1760044749659,1175647597,15122,15,0.18505859375,-0.17974853515625,-1.00469970703125
1760044749659,1175647597,15122,16,0.189697265625,-0.18511962890625,-1.00128173828125
1760044749659,1175647597,15122,17,0.19921875,-0.18438720703125,-1.00201416015625
1760044749659,1175647597,15122,18,0.199462890625,-0.18292236328125,-0.96417236328125
1760044749659,1175647597,15122,19,0.19287109375,-0.18438720703125,-1.00372314453125
1760044749659,1175647597,15122,20,0.218017578125,-0.20098876953125,-1.02178955078125
1760044749659,1175647597,15122,21,0.2109375,-0.19097900390625,-0.98907470703125
1760044749659,1175647597,15122,22,0.21728515625,-0.19317626953125,-0.92926025390625
1760044749659,1175647597,15122,23,0.191650390625,-0.17755126953125,-0.97027587890625
1760044749659,1175647597,15122,24,0.193115234375,-0.19488525390625,-1.01641845703125
1760044749659,1175647597,15122,25,0.192138671875,-0.20489501953125,-1.03839111328125
1760044749659,1175647597,15122,26,0.179931640625,-0.19342041015625,-0.99005126953125
1760044749659,1175647597,15122,27,0.18408203125,-0.18292236328125,-1.01470947265625
1760044749659,1175647597,15122,28,0.18310546875,-0.19317626953125,-1.08135986328125
1760044749659,1175647597,15122,29,0.217529296875,-0.21783447265625,-0.86676025390625
1760044749659,1175647597,15122,30,0.1953125,-0.19708251953125,-0.91412353515625
1760044749659,1175647597,15122,31,0.19287109375,-0.19244384765625,-1.02764892578125
1760044752431,1175650152,15123,0,0.216796875,-0.22564697265625,-0.99322509765625
1760044752431,1175650152,15123,1,0.2001953125,-0.21051025390625,-1.05035400390625
1760044752431,1175650152,15123,2,0.19921875,-0.21197509765625,-1.02691650390625
1760044752431,1175650152,15123,3,0.19091796875,-0.19024658203125,-0.89898681640625
1760044752431,1175650152,15123,4,0.199462890625,-0.19512939453125,-0.94366455078125
1760044752431,1175650152,15123,5,0.208251953125,-0.21783447265625,-1.04962158203125
1760044752431,1175650152,15123,6,0.2109375,-0.20855712890625,-1.02911376953125
1760044752431,1175650152,15123,7,0.203369140625,-0.20318603515625,-0.98223876953125
1760044752431,1175650152,15123,8,0.216552734375,-0.20074462890625,-1.05694580078125
1760044752431,1175650152,15123,9,0.280029296875,-0.21466064453125,-0.95904541015625
1760044752431,1175650152,15123,10,0.2646484375,-0.20025634765625,-0.88262939453125
1760044752431,1175650152,15123,11,0.2626953125,-0.20953369140625,-0.98394775390625
1760044752431,1175650152,15123,12,0.261962890625,-0.20782470703125,-0.91070556640625
1760044752431,1175650152,15123,13,0.240234375,-0.20538330078125,-0.97760009765625
1760044752431,1175650152,15123,14,0.22509765625,-0.21588134765625,-1.05108642578125
1760044752431,1175650152,15123,15,0.217529296875,-0.20709228515625,-1.02105712890625
1760044752431,1175650152,15123,16,0.207763671875,-0.20074462890625,-1.00494384765625
1760044752431,1175650152,15123,17,0.23876953125,-0.22662353515625,-0.93023681640625
1760044752431,1175650152,15123,18,0.21826171875,-0.21026611328125,-0.91925048828125
1760044752431,1175650152,15123,19,0.190185546875,-0.19537353515625,-1.01593017578125
1760044752431,1175650152,15123,20,0.16015625,-0.19805908203125,-1.03839111328125
1760044752431,1175650152,15123,21,0.160400390625,-0.20343017578125,-0.99420166015625
1760044752431,1175650152,15123,22,0.166259765625,-0.20318603515625,-1.00909423828125
1760044752431,1175650152,15123,23,0.195556640625,-0.20343017578125,-1.08843994140625
1760044752431,1175650152,15123,24,0.269287109375,-0.22955322265625,-0.93853759765625
1760044752431,1175650152,15123,25,0.25,-0.20001220703125,-0.91583251953125
1760044752431,1175650152,15123,26,0.260986328125,-0.18853759765625,-0.91607666015625
1760044752431,1175650152,15123,27,0.264404296875,-0.20953369140625,-0.95318603515625
1760044752431,1175650152,15123,28,0.248291015625,-0.23028564453125,-1.03961181640625
1760044752431,1175650152,15123,29,0.228271484375,-0.22076416015625,-1.02056884765625
1760044752431,1175650152,15123,30,0.214111328125,-0.19927978515625,-0.95440673828125
1760044752431,1175650152,15123,31,0.229248046875,-0.19903564453125,-0.97247314453125
1760044754961,1175652707,15124,0,0.224365234375,-0.19854736328125,-0.96539306640625
1760044754961,1175652707,15124,1,0.212890625,-0.20709228515625,-1.01055908203125
1760044754961,1175652707,15124,2,0.21337890625,-0.21441650390625,-1.00177001953125
1760044754961,1175652707,15124,3,0.212158203125,-0.20904541015625,-0.99005126953125
1760044754961,1175652707,15124,4,0.2529296875,-0.21026611328125,-1.00592041015625
1760044754961,1175652707,15124,5,0.24365234375,-0.19805908203125,-0.92218017578125
1760044754961,1175652707,15124,6,0.22705078125,-0.20684814453125,-0.97100830078125
1760044754961,1175652707,15124,7,0.235595703125,-0.21295166015625,-1.00079345703125
1760044754961,1175652707,15124,8,0.23876953125,-0.21661376953125,-1.02911376953125
1760044754961,1175652707,15124,9,0.27099609375,-0.21368408203125,-0.96881103515625
1760044754961,1175652707,15124,10,0.261474609375,-0.19830322265625,-0.94512939453125
1760044754961,1175652707,15124,11,0.251953125,-0.20123291015625,-0.96466064453125
1760044754961,1175652707,15124,12,0.2509765625,-0.20928955078125,-0.99053955078125
1760044754961,1175652707,15124,13,0.27880859375,-0.21954345703125,-0.99127197265625
1760044754961,1175652707,15124,14,0.26025390625,-0.19659423828125,-0.92437744140625
1760044754961,1175652707,15124,15,0.238037109375,-0.18829345703125,-0.91143798828125
1760044754961,1175652707,15124,16,0.2021484375,-0.18170166015625,-1.02960205078125
1760044754961,1175652707,15124,17,0.270263671875,-0.20294189453125,-1.14508056640625
1760044754961,1175652707,15124,18,0.218505859375,-0.19293212890625,-0.92901611328125
1760044754961,1175652707,15124,19,0.214599609375,-0.16510009765625,-0.98443603515625
1760044754961,1175652707,15124,20,0.244140625,-0.17022705078125,-0.91973876953125
1760044754961,1175652707,15124,21,0.250244140625,-0.17364501953125,-1.05841064453125
1760044754961,1175652707,15124,22,0.2568359375,-0.20440673828125,-0.99102783203125
1760044754961,1175652707,15124,23,0.23388671875,-0.19610595703125,-0.97344970703125
1760044754961,1175652707,15124,24,0.261474609375,-0.19342041015625,-0.86553955078125
1760044754961,1175652707,15124,25,0.21533203125,-0.19219970703125,-0.95782470703125
1760044754961,1175652707,15124,26,0.250244140625,-0.20513916015625,-1.03741455078125
1760044754961,1175652707,15124,27,0.212890625,-0.21075439453125,-1.03570556640625
1760044754961,1175652707,15124,28,0.201416015625,-0.19366455078125,-0.97760009765625
1760044754961,1175652707,15124,29,0.22021484375,-0.19415283203125,-0.96441650390625
1760044754961,1175652707,15124,30,0.212890625,-0.18927001953125,-0.95001220703125
1760044754961,1175652707,15124,31,0.204833984375,-0.20635986328125,-1.04718017578125
1760044757493,1175655262,15125,0,0.2119140625,-0.19830322265625,-0.97589111328125
1760044757493,1175655262,15125,1,0.182861328125,-0.18170166015625,-0.92364501953125
1760044757493,1175655262,15125,2,0.17626953125,-0.18585205078125,-1.05670166015625
1760044757493,1175655262,15125,3,0.210693359375,-0.20416259765625,-1.02667236328125
1760044757493,1175655262,15125,4,0.18310546875,-0.18707275390625,-1.00030517578125
1760044757493,1175655262,15125,5,0.1796875,-0.19049072265625,-0.99249267578125
1760044757493,1175655262,15125,6,0.179931640625,-0.18316650390625,-0.98101806640625
1760044757493,1175655262,15125,7,0.16015625,-0.18560791015625,-0.97442626953125
1760044757493,1175655262,15125,8,0.133056640625,-0.18829345703125,-1.04693603515625
1760044757493,1175655262,15125,9,0.133056640625,-0.18389892578125,-1.01641845703125
1760044757493,1175655262,15125,10,0.14208984375,-0.18414306640625,-0.98468017578125
1760044757493,1175655262,15125,11,0.17724609375,-0.19293212890625,-1.09088134765625
1760044757493,1175655262,15125,12,0.1572265625,-0.18536376953125,-0.95343017578125
1760044757493,1175655262,15125,13,0.160400390625,-0.16827392578125,-0.94635009765625
1760044757493,1175655262,15125,14,0.1533203125,-0.16705322265625,-1.00616455078125
1760044757493,1175655262,15125,15,0.1591796875,-0.18341064453125,-1.02130126953125
1760044757493,1175655262,15125,16,0.15478515625,-0.18682861328125,-1.00762939453125
1760044757493,1175655262,15125,17,0.14794921875,-0.17852783203125,-1.02398681640625
1760044757493,1175655262,15125,18,0.14453125,-0.16802978515625,-1.01519775390625
1760044757493,1175655262,15125,19,0.189697265625,-0.19610595703125,-0.99639892578125
1760044757493,1175655262,15125,20,0.170654296875,-0.17681884765625,-0.99566650390625
1760044757493,1175655262,15125,21,0.16845703125,-0.16387939453125,-1.00860595703125
1760044757493,1175655262,15125,22,0.19775390625,-0.17657470703125,-0.99249267578125
1760044757493,1175655262,15125,23,0.172607421875,-0.18902587890625,-0.99371337890625
1760044757493,1175655262,15125,24,0.16162109375,-0.18682861328125,-0.98077392578125
1760044757493,1175655262,15125,25,0.1630859375,-0.17462158203125,-1.01226806640625
1760044757493,1175655262,15125,26,0.164794921875,-0.18316650390625,-1.00689697265625
1760044757493,1175655262,15125,27,0.168701171875,-0.18341064453125,-1.05181884765625
1760044757493,1175655262,15125,28,0.21484375,-0.19171142578125,-1.07745361328125
1760044757493,1175655262,15125,29,0.175537109375,-0.18585205078125,-0.89019775390625
1760044757493,1175655262,15125,30,0.144287109375,-0.19097900390625,-0.90118408203125
1760044757493,1175655262,15125,31,0.152587890625,-0.19122314453125,-1.01959228515625
1760044760036,1175657818,15126,0,0.1826171875,-0.21466064453125,-1.03863525390625
1760044760036,1175657818,15126,1,0.154052734375,-0.19415283203125,-1.05352783203125
1760044760036,1175657818,15126,2,0.1494140625,-0.20587158203125,-0.99761962890625
1760044760036,1175657818,15126,3,0.158203125,-0.18194580078125,-0.94415283203125
1760044760036,1175657818,15126,4,0.13720703125,-0.19561767578125,-0.99029541015625
1760044760036,1175657818,15126,5,0.13623046875,-0.23516845703125,-1.05279541015625
1760044760036,1175657818,15126,6,0.126220703125,-0.19781494140625,-0.99322509765625
1760044760036,1175657818,15126,7,0.126953125,-0.18463134765625,-0.98321533203125
1760044760036,1175657818,15126,8,0.13232421875,-0.18658447265625,-0.98809814453125
1760044760036,1175657818,15126,9,0.13623046875,-0.19439697265625,-1.02764892578125
1760044760036,1175657818,15126,10,0.16455078125,-0.20172119140625,-1.08477783203125
1760044760036,1175657818,15126,11,0.144775390625,-0.18682861328125,-0.97320556640625
1760044760036,1175657818,15126,12,0.14208984375,-0.17266845703125,-0.97052001953125
1760044760036,1175657818,15126,13,0.150146484375,-0.17242431640625,-0.99859619140625
1760044760036,1175657818,15126,14,0.1630859375,-0.19439697265625,-1.02081298828125
1760044760036,1175657818,15126,15,0.150390625,-0.20709228515625,-1.01129150390625
1760044760036,1175657818,15126,16,0.129638671875,-0.19561767578125,-0.98956298828125
1760044760036,1175657818,15126,17,0.127685546875,-0.20074462890625,-0.98468017578125
1760044760036,1175657818,15126,18,0.135986328125,-0.19488525390625,-1.01495361328125
1760044760036,1175657818,15126,19,0.119873046875,-0.18438720703125,-1.01251220703125
1760044760036,1175657818,15126,20,0.109130859375,-0.17584228515625,-0.99395751953125
1760044760036,1175657818,15126,21,0.115478515625,-0.17193603515625,-1.01715087890625
1760044760036,1175657818,15126,22,0.125732421875,-0.17510986328125,-1.04327392578125
1760044760036,1175657818,15126,23,0.133056640625,-0.18096923828125,-1.03302001953125
1760044760036,1175657818,15126,24,0.126708984375,-0.17755126953125,-0.98126220703125
1760044760036,1175657818,15126,25,0.121826171875,-0.16754150390625,-0.99224853515625
1760044760036,1175657818,15126,26,0.1298828125,-0.16925048828125,-1.02569580078125
1760044760036,1175657818,15126,27,0.16455078125,-0.18048095703125,-1.07330322265625
1760044760036,1175657818,15126,28,0.129150390625,-0.17535400390625,-0.96832275390625
1760044760036,1175657818,15126,29,0.116455078125,-0.15753173828125,-0.95220947265625
1760044760036,1175657818,15126,30,0.1357421875,-0.15411376953125,-1.00787353515625
1760044760036,1175657818,15126,31,0.152587890625,-0.16241455078125,-1.06646728515625
1760044762572,1175660373,15127,0,0.12841796875,-0.16778564453125,-1.03106689453125
1760044762572,1175660373,15127,1,0.11474609375,-0.16119384765625,-0.98785400390625
1760044762572,1175660373,15127,2,0.1201171875,-0.15948486328125,-0.96807861328125
1760044762572,1175660373,15127,3,0.119384765625,-0.15289306640625,-1.00958251953125
1760044762572,1175660373,15127,4,0.11865234375,-0.14923095703125,-1.05303955078125
1760044762572,1175660373,15127,5,0.12255859375,-0.15240478515625,-1.04254150390625
1760044762572,1175660373,15127,6,0.125244140625,-0.15850830078125,-1.00347900390625
1760044762572,1175660373,15127,7,0.135498046875,-0.15826416015625,-1.00958251953125
1760044762572,1175660373,15127,8,0.1357421875,-0.15557861328125,-1.01129150390625
1760044762572,1175660373,15127,9,0.123046875,-0.15362548828125,-1.00543212890625
1760044762572,1175660373,15127,10,0.13427734375,-0.14923095703125,-1.01885986328125
1760044762572,1175660373,15127,11,0.1201171875,-0.14337158203125,-0.98272705078125
1760044762572,1175660373,15127,12,0.13916015625,-0.15460205078125,-1.01397705078125
1760044762572,1175660373,15127,13,0.129638671875,-0.15093994140625,-1.00592041015625
1760044762572,1175660373,15127,14,0.14111328125,-0.16485595703125,-1.02325439453125
1760044762572,1175660373,15127,15,0.12353515625,-0.15313720703125,-1.00836181640625
1760044762572,1175660373,15127,16,0.1318359375,-0.15484619140625,-1.01422119140625
1760044762572,1175660373,15127,17,0.12451171875,-0.15972900390625,-1.02935791015625
1760044762572,1175660373,15127,18,0.1513671875,-0.16656494140625,-1.01544189453125
1760044762572,1175660373,15127,19,0.120849609375,-0.15899658203125,-0.98590087890625
1760044762572,1175660373,15127,20,0.111572265625,-0.16290283203125,-0.97955322265625
1760044762572,1175660373,15127,21,0.14111328125,-0.17047119140625,-1.03082275390625
1760044762572,1175660373,15127,22,0.1337890625,-0.16973876953125,-1.01788330078125
1760044762572,1175660373,15127,23,0.12109375,-0.16387939453125,-0.99908447265625
1760044762572,1175660373,15127,24,0.12548828125,-0.15875244140625,-0.99346923828125
1760044762572,1175660373,15127,25,0.122314453125,-0.15704345703125,-1.01763916015625
1760044762572,1175660373,15127,26,0.114990234375,-0.16436767578125,-1.03375244140625
1760044762572,1175660373,15127,27,0.1083984375,-0.15460205078125,-1.01885986328125
1760044762572,1175660373,15127,28,0.10546875,-0.16217041015625,-1.00250244140625
1760044762572,1175660373,15127,29,0.150634765625,-0.16705322265625,-1.06524658203125
1760044762572,1175660373,15127,30,0.158203125,-0.17535400390625,-1.00201416015625
1760044762572,1175660373,15127,31,0.14111328125,-0.15899658203125,-0.99127197265625
1760044765105,1175662928,15128,0,0.15234375,-0.15802001953125,-0.95245361328125
1760044765105,1175662928,15128,1,0.144287109375,-0.16021728515625,-1.00030517578125
1760044765105,1175662928,15128,2,0.152099609375,-0.17803955078125,-1.04766845703125
1760044765105,1175662928,15128,3,0.141357421875,-0.17535400390625,-1.02447509765625
1760044765105,1175662928,15128,4,0.155029296875,-0.16021728515625,-1.01129150390625
1760044765105,1175662928,15128,5,0.151611328125,-0.15826416015625,-0.97174072265625
1760044765105,1175662928,15128,6,0.150146484375,-0.16192626953125,-0.99957275390625
1760044765105,1175662928,15128,7,0.150634765625,-0.17535400390625,-1.03594970703125
1760044765105,1175662928,15128,8,0.166748046875,-0.17999267578125,-1.08673095703125
1760044765105,1175662928,15128,9,0.170166015625,-0.17803955078125,-0.93707275390625
1760044765105,1175662928,15128,10,0.153076171875,-0.15533447265625,-0.94439697265625
1760044765105,1175662928,15128,11,0.149658203125,-0.17095947265625,-0.98321533203125
1760044765105,1175662928,15128,12,0.1552734375,-0.18072509765625,-1.04937744140625
1760044765105,1175662928,15128,13,0.146240234375,-0.18170166015625,-1.05548095703125
1760044765105,1175662928,15128,14,0.144287109375,-0.17608642578125,-1.02886962890625
1760044765105,1175662928,15128,15,0.149658203125,-0.16778564453125,-0.93731689453125
1760044765105,1175662928,15128,16,0.149169921875,-0.16363525390625,-0.98492431640625
1760044765105,1175662928,15128,17,0.132568359375,-0.17071533203125,-1.04815673828125
1760044765105,1175662928,15128,18,0.123291015625,-0.16461181640625,-1.02960205078125
1760044765105,1175662928,15128,19,0.120361328125,-0.16436767578125,-1.00982666015625
1760044765105,1175662928,15128,20,0.130859375,-0.16094970703125,-1.00054931640625
1760044765105,1175662928,15128,21,0.17724609375,-0.16827392578125,-1.02178955078125
1760044765105,1175662928,15128,22,0.179443359375,-0.17974853515625,-1.00958251953125
1760044765105,1175662928,15128,23,0.165283203125,-0.16754150390625,-0.98345947265625
1760044765105,1175662928,15128,24,0.166259765625,-0.16949462890625,-0.96807861328125
1760044765105,1175662928,15128,25,0.158447265625,-0.16290283203125,-0.98980712890625
1760044765105,1175662928,15128,26,0.155029296875,-0.16998291015625,-1.02203369140625
1760044765105,1175662928,15128,27,0.15283203125,-0.17633056640625,-1.04351806640625
1760044765105,1175662928,15128,28,0.144775390625,-0.16802978515625,-0.99542236328125
1760044765105,1175662928,15128,29,0.148681640625,-0.16729736328125,-0.98394775390625
1760044765105,1175662928,15128,30,0.1328125,-0.16558837890625,-0.97393798828125
1760044765105,1175662928,15128,31,0.12744140625,-0.15972900390625,-1.04156494140625
1760044767640,1175665477,15129,0,0.131103515625,-0.16876220703125,-1.03985595703125
1760044767640,1175665477,15129,1,0.132568359375,-0.16729736328125,-1.02520751953125
1760044767640,1175665477,15129,2,0.1435546875,-0.15020751953125,-1.05230712890625
1760044767640,1175665477,15129,3,0.150146484375,-0.15655517578125,-0.95635986328125
1760044767640,1175665477,15129,4,0.157958984375,-0.16290283203125,-0.95440673828125
1760044767640,1175665477,15129,5,0.146240234375,-0.17803955078125,-0.99713134765625
1760044767640,1175665477,15129,6,0.130126953125,-0.17315673828125,-1.02496337890625
1760044767640,1175665477,15129,7,0.12060546875,-0.16949462890625,-1.02960205078125
1760044767640,1175665477,15129,8,0.129638671875,-0.16607666015625,-1.03326416015625
1760044767640,1175665477,15129,9,0.126708984375,-0.14874267578125,-0.99517822265625
1760044767640,1175665477,15129,10,0.133056640625,-0.14898681640625,-0.99737548828125
1760044767640,1175665477,15129,11,0.15234375,-0.15582275390625,-1.04669189453125
1760044767640,1175665477,15129,12,0.147705078125,-0.16754150390625,-1.01934814453125
1760044767640,1175665477,15129,13,0.154052734375,-0.16607666015625,-1.01007080078125
1760044767640,1175665477,15129,14,0.145263671875,-0.16314697265625,-0.99127197265625
1760044767640,1175665477,15129,15,0.145263671875,-0.15728759765625,-1.00469970703125
1760044767640,1175665477,15129,16,0.142578125,-0.15704345703125,-1.02301025390625
1760044767640,1175665477,15129,17,0.13525390625,-0.15924072265625,-1.01690673828125
1760044767640,1175665477,15129,18,0.15234375,-0.15704345703125,-1.00616455078125
1760044767640,1175665477,15129,19,0.133544921875,-0.14898681640625,-0.98907470703125
1760044767640,1175665477,15129,20,0.132080078125,-0.15167236328125,-1.00836181640625
1760044767640,1175665477,15129,21,0.1337890625,-0.15679931640625,-1.02862548828125
1760044767640,1175665477,15129,22,0.136474609375,-0.16265869140625,-1.02789306640625
1760044767640,1175665477,15129,23,0.13623046875,-0.15533447265625,-1.00665283203125
1760044767640,1175665477,15129,24,0.128173828125,-0.15264892578125,-0.98883056640625
1760044767640,1175665477,15129,25,0.138427734375,-0.15460205078125,-1.01104736328125
1760044767640,1175665477,15129,26,0.135498046875,-0.15997314453125,-1.01885986328125
1760044767640,1175665477,15129,27,0.138427734375,-0.15948486328125,-1.01959228515625
1760044767640,1175665477,15129,28,0.13330078125,-0.16217041015625,-0.99664306640625
1760044767640,1175665477,15129,29,0.1298828125,-0.15679931640625,-0.99224853515625
1760044767640,1175665477,15129,30,0.138916015625,-0.15216064453125,-1.03741455078125
1760044767640,1175665477,15129,31,0.137939453125,-0.15533447265625,-1.03668212890625
1760044770371,1175668032,15130,0,0.141845703125,-0.15289306640625,-1.02056884765625
1760044770371,1175668032,15130,1,0.13427734375,-0.14849853515625,-0.98468017578125
1760044770371,1175668032,15130,2,0.145751953125,-0.14483642578125,-0.98907470703125
1760044770371,1175668032,15130,3,0.142822265625,-0.15142822265625,-1.02008056640625
1760044770371,1175668032,15130,4,0.134765625,-0.15362548828125,-1.02984619140625
1760044770371,1175668032,15130,5,0.126708984375,-0.14947509765625,-1.01031494140625
1760044770371,1175668032,15130,6,0.12548828125,-0.14825439453125,-1.00860595703125
