receivedPhoneTimestamp,respeckTimestamp,packetSeqNum,sampleSeqNum,accelX,accelY,accelZ
1759330793798,426216527,7516,0,0.21337890625,-0.04864501953125,-0.96636962890625
1759330793798,426216527,7516,1,0.21142578125,-0.04693603515625,-0.96221923828125
1759330793798,426216527,7516,2,0.2109375,-0.04913330078125,-0.96978759765625
1759330793798,426216527,7516,3,0.209228515625,-0.04986572265625,-0.96759033203125
1759330793798,426216527,7516,4,0.212646484375,-0.04986572265625,-0.96685791015625
1759330793798,426216527,7516,5,0.213134765625,-0.04864501953125,-0.96343994140625
1759330793798,426216527,7516,6,0.213134765625,-0.04986572265625,-0.96759033203125
1759330793798,426216527,7516,7,0.2099609375,-0.04815673828125,-0.96759033203125
1759330793798,426216527,7516,8,0.2099609375,-0.04791259765625,-0.96710205078125
1759330793798,426216527,7516,9,0.21142578125,-0.04669189453125,-0.96295166015625
1759330793798,426216527,7516,10,0.21142578125,-0.04693603515625,-0.97247314453125
1759330793798,426216527,7516,11,0.21435546875,-0.04791259765625,-0.96807861328125
1759330793798,426216527,7516,12,0.21435546875,-0.04669189453125,-0.96514892578125
1759330793798,426216527,7516,13,0.21533203125,-0.04864501953125,-0.97052001953125
1759330793798,426216527,7516,14,0.212890625,-0.04742431640625,-0.96685791015625
1759330793798,426216527,7516,15,0.215576171875,-0.04815673828125,-0.96490478515625
1759330793798,426216527,7516,16,0.216796875,-0.04742431640625,-0.96246337890625
1759330793798,426216527,7516,17,0.21484375,-0.04766845703125,-0.96392822265625
1759330793798,426216527,7516,18,0.21142578125,-0.04498291015625,-0.96636962890625
1759330793798,426216527,7516,19,0.2109375,-0.04425048828125,-0.97100830078125
1759330793798,426216527,7516,20,0.210205078125,-0.04644775390625,-0.96563720703125
1759330793798,426216527,7516,21,0.21142578125,-0.04473876953125,-0.96661376953125
1759330793798,426216527,7516,22,0.214599609375,-0.04498291015625,-0.96417236328125
1759330793798,426216527,7516,23,0.212646484375,-0.04669189453125,-0.96441650390625
1759330793798,426216527,7516,24,0.20947265625,-0.04547119140625,-0.97320556640625
1759330793798,426216527,7516,25,0.2109375,-0.04278564453125,-0.97003173828125
1759330793798,426216527,7516,26,0.208740234375,-0.04644775390625,-0.96734619140625
1759330793798,426216527,7516,27,0.21240234375,-0.04400634765625,-0.96417236328125
1759330793798,426216527,7516,28,0.211669921875,-0.04302978515625,-0.96368408203125
1759330793798,426216527,7516,29,0.211669921875,-0.04302978515625,-0.96881103515625
1759330793798,426216527,7516,30,0.21240234375,-0.04107666015625,-0.97052001953125
1759330793798,426216527,7516,31,0.21142578125,-0.04669189453125,-0.96929931640625
1759330796345,426219071,7517,0,0.2099609375,-0.04425048828125,-0.96807861328125
1759330796345,426219071,7517,1,0.21240234375,-0.04791259765625,-0.96392822265625
1759330796345,426219071,7517,2,0.212890625,-0.04522705078125,-0.96710205078125
1759330796345,426219071,7517,3,0.216796875,-0.04205322265625,-0.96563720703125
1759330796345,426219071,7517,4,0.22119140625,-0.04571533203125,-0.96539306640625
1759330796345,426219071,7517,5,0.2216796875,-0.04888916015625,-0.96490478515625
1759330796345,426219071,7517,6,0.224609375,-0.04888916015625,-0.96295166015625
1759330796345,426219071,7517,7,0.231201171875,-0.04620361328125,-0.96539306640625
1759330796345,426219071,7517,8,0.242431640625,-0.04644775390625,-0.93975830078125
1759330796345,426219071,7517,9,0.2333984375,-0.04864501953125,-0.95977783203125
1759330796345,426219071,7517,10,0.22607421875,-0.04840087890625,-0.97100830078125
1759330796345,426219071,7517,11,0.219970703125,-0.04986572265625,-0.96392822265625
1759330796345,426219071,7517,12,0.2197265625,-0.04449462890625,-0.96612548828125
1759330796345,426219071,7517,13,0.21875,-0.04791259765625,-0.96173095703125
1759330796345,426219071,7517,14,0.218017578125,-0.04815673828125,-0.96002197265625
1759330796345,426219071,7517,15,0.21484375,-0.04083251953125,-0.96588134765625
1759330796345,426219071,7517,16,0.212646484375,-0.03936767578125,-0.96710205078125
1759330796345,426219071,7517,17,0.206787109375,-0.04083251953125,-0.97271728515625
1759330796345,426219071,7517,18,0.20263671875,-0.04034423828125,-0.97076416015625
1759330796345,426219071,7517,19,0.205810546875,-0.04132080078125,-0.97100830078125
1759330796345,426219071,7517,20,0.207275390625,-0.03643798828125,-0.97052001953125
1759330796345,426219071,7517,21,0.210693359375,-0.03863525390625,-0.96710205078125
1759330796345,426219071,7517,22,0.209228515625,-0.03839111328125,-0.96929931640625
1759330796345,426219071,7517,23,0.20654296875,-0.03814697265625,-0.97076416015625
1759330796345,426219071,7517,24,0.20849609375,-0.04302978515625,-0.96954345703125
1759330796345,426219071,7517,25,0.2138671875,-0.03814697265625,-0.96514892578125
1759330796345,426219071,7517,26,0.216064453125,-0.04132080078125,-0.96441650390625
1759330796345,426219071,7517,27,0.212890625,-0.03863525390625,-0.96417236328125
1759330796345,426219071,7517,28,0.2158203125,-0.03594970703125,-0.97418212890625
1759330796345,426219071,7517,29,0.21923828125,-0.03717041015625,-0.96734619140625
1759330796345,426219071,7517,30,0.225830078125,-0.03472900390625,-0.96392822265625
1759330796345,426219071,7517,31,0.232421875,-0.03839111328125,-0.96246337890625
1759330798897,426221614,7518,0,0.241943359375,-0.03570556640625,-0.95001220703125
1759330798897,426221614,7518,1,0.24365234375,-0.03961181640625,-0.94757080078125
1759330798897,426221614,7518,2,0.241943359375,-0.03643798828125,-0.95782470703125
1759330798897,426221614,7518,3,0.23876953125,-0.03570556640625,-0.95953369140625
1759330798897,426221614,7518,4,0.24267578125,-0.03521728515625,-0.94610595703125
1759330798897,426221614,7518,5,0.23974609375,-0.03619384765625,-0.95074462890625
1759330798897,426221614,7518,6,0.23583984375,-0.03228759765625,-0.97003173828125
1759330798897,426221614,7518,7,0.238037109375,-0.03375244140625,-0.97320556640625
1759330798897,426221614,7518,8,0.2548828125,-0.03594970703125,-0.93829345703125
1759330798897,426221614,7518,9,0.251220703125,-0.03936767578125,-0.93560791015625
1759330798897,426221614,7518,10,0.2392578125,-0.03424072265625,-0.97003173828125
1759330798897,426221614,7518,11,0.24169921875,-0.03253173828125,-0.96490478515625
1759330798897,426221614,7518,12,0.247314453125,-0.03375244140625,-0.95782470703125
1759330798897,426221614,7518,13,0.255859375,-0.03277587890625,-0.94879150390625
1759330798897,426221614,7518,14,0.260498046875,-0.02886962890625,-0.94683837890625
1759330798897,426221614,7518,15,0.245361328125,-0.02813720703125,-0.95025634765625
1759330798897,426221614,7518,16,0.2392578125,-0.02911376953125,-0.96124267578125
1759330798897,426221614,7518,17,0.239990234375,-0.02740478515625,-0.96978759765625
1759330798897,426221614,7518,18,0.24658203125,-0.03082275390625,-0.94512939453125
1759330798897,426221614,7518,19,0.248779296875,-0.03082275390625,-0.94586181640625
1759330798897,426221614,7518,20,0.2470703125,-0.02813720703125,-0.96783447265625
1759330798897,426221614,7518,21,0.2470703125,-0.02618408203125,-0.96441650390625
1759330798897,426221614,7518,22,0.259521484375,-0.03009033203125,-0.93731689453125
1759330798897,426221614,7518,23,0.2587890625,-0.03228759765625,-0.94073486328125
1759330798897,426221614,7518,24,0.2470703125,-0.03033447265625,-0.96173095703125
1759330798897,426221614,7518,25,0.244384765625,-0.02935791015625,-0.96661376953125
1759330798897,426221614,7518,26,0.247802734375,-0.03009033203125,-0.95074462890625
1759330798897,426221614,7518,27,0.254150390625,-0.03009033203125,-0.94757080078125
1759330798897,426221614,7518,28,0.248779296875,-0.03277587890625,-0.93902587890625
1759330798897,426221614,7518,29,0.24072265625,-0.03106689453125,-0.96905517578125
1759330798897,426221614,7518,30,0.23681640625,-0.02862548828125,-0.96856689453125
1759330798897,426221614,7518,31,0.241943359375,-0.02716064453125,-0.96246337890625
1759330801897,426224157,7519,0,0.245361328125,-0.02984619140625,-0.95440673828125
1759330801897,426224157,7519,1,0.2490234375,-0.02789306640625,-0.94439697265625
1759330801897,426224157,7519,2,0.242919921875,-0.03106689453125,-0.95147705078125
1759330801897,426224157,7519,3,0.239013671875,-0.02935791015625,-0.96319580078125
1759330801897,426224157,7519,4,0.2412109375,-0.02862548828125,-0.96417236328125
1759330801897,426224157,7519,5,0.2421875,-0.02862548828125,-0.96051025390625
1759330801897,426224157,7519,6,0.248046875,-0.02838134765625,-0.95196533203125
1759330801897,426224157,7519,7,0.25,-0.02862548828125,-0.95269775390625
1759330801897,426224157,7519,8,0.244140625,-0.02764892578125,-0.95782470703125
1759330801897,426224157,7519,9,0.247314453125,-0.03179931640625,-0.95074462890625
1759330801897,426224157,7519,10,0.247802734375,-0.02838134765625,-0.95513916015625
1759330801897,426224157,7519,11,0.24853515625,-0.03057861328125,-0.96075439453125
1759330801897,426224157,7519,12,0.249267578125,-0.03009033203125,-0.95928955078125
1759330801897,426224157,7519,13,0.2509765625,-0.03277587890625,-0.94903564453125
1759330801897,426224157,7519,14,0.25341796875,-0.03082275390625,-0.94732666015625
1759330801897,426224157,7519,15,0.248779296875,-0.03106689453125,-0.95904541015625
1759330801897,426224157,7519,16,0.251953125,-0.03155517578125,-0.96368408203125
1759330801897,426224157,7519,17,0.26025390625,-0.03326416015625,-0.94561767578125
1759330801897,426224157,7519,18,0.264892578125,-0.03253173828125,-0.94732666015625
1759330801897,426224157,7519,19,0.259033203125,-0.03570556640625,-0.94146728515625
1759330801897,426224157,7519,20,0.25048828125,-0.03839111328125,-0.94342041015625
1759330801897,426224157,7519,21,0.230224609375,-0.03961181640625,-0.97393798828125
1759330801897,426224157,7519,22,0.21923828125,-0.03961181640625,-0.96612548828125
1759330801897,426224157,7519,23,0.21533203125,-0.04083251953125,-0.96685791015625
1759330801897,426224157,7519,24,0.211181640625,-0.04278564453125,-0.96026611328125
1759330801897,426224157,7519,25,0.20361328125,-0.04351806640625,-0.96856689453125
1759330801897,426224157,7519,26,0.193115234375,-0.03912353515625,-0.97589111328125
1759330801897,426224157,7519,27,0.1962890625,-0.03668212890625,-0.97930908203125
1759330801897,426224157,7519,28,0.20458984375,-0.04571533203125,-0.97149658203125
1759330801897,426224157,7519,29,0.211181640625,-0.04278564453125,-0.95684814453125
1759330801897,426224157,7519,30,0.208251953125,-0.05133056640625,-0.96099853515625
1759330801897,426224157,7519,31,0.2021484375,-0.04376220703125,-0.97320556640625
1759330803997,426226700,7520,0,0.202880859375,-0.03985595703125,-0.98126220703125
1759330803997,426226700,7520,1,0.2099609375,-0.04595947265625,-0.96636962890625
1759330803997,426226700,7520,2,0.212890625,-0.04718017578125,-0.96148681640625
1759330803997,426226700,7520,3,0.21337890625,-0.04888916015625,-0.95611572265625
1759330803997,426226700,7520,4,0.205810546875,-0.04693603515625,-0.97613525390625
1759330803997,426226700,7520,5,0.201416015625,-0.04547119140625,-0.97686767578125
1759330803997,426226700,7520,6,0.2041015625,-0.04449462890625,-0.97271728515625
1759330803997,426226700,7520,7,0.209716796875,-0.04376220703125,-0.96417236328125
1759330803997,426226700,7520,8,0.20849609375,-0.04718017578125,-0.95928955078125
1759330803997,426226700,7520,9,0.206787109375,-0.04620361328125,-0.97442626953125
1759330803997,426226700,7520,10,0.203125,-0.04791259765625,-0.97222900390625
1759330803997,426226700,7520,11,0.203125,-0.04791259765625,-0.96905517578125
1759330803997,426226700,7520,12,0.2041015625,-0.04742431640625,-0.96954345703125
1759330803997,426226700,7520,13,0.204833984375,-0.04888916015625,-0.96783447265625
1759330803997,426226700,7520,14,0.20068359375,-0.04669189453125,-0.96929931640625
1759330803997,426226700,7520,15,0.19970703125,-0.04522705078125,-0.97369384765625
1759330803997,426226700,7520,16,0.19921875,-0.04595947265625,-0.97174072265625
1759330803997,426226700,7520,17,0.20263671875,-0.04425048828125,-0.96881103515625
1759330803997,426226700,7520,18,0.198974609375,-0.04571533203125,-0.97174072265625
1759330803997,426226700,7520,19,0.197021484375,-0.03961181640625,-0.96905517578125
1759330803997,426226700,7520,20,0.19580078125,-0.03985595703125,-0.97467041015625
1759330803997,426226700,7520,21,0.201904296875,-0.03887939453125,-0.97125244140625
1759330803997,426226700,7520,22,0.201904296875,-0.03985595703125,-0.97027587890625
1759330803997,426226700,7520,23,0.203369140625,-0.04351806640625,-0.96734619140625
1759330803997,426226700,7520,24,0.202392578125,-0.04010009765625,-0.97149658203125
1759330803997,426226700,7520,25,0.202392578125,-0.03863525390625,-0.97027587890625
1759330803997,426226700,7520,26,0.203369140625,-0.04010009765625,-0.96832275390625
1759330803997,426226700,7520,27,0.20458984375,-0.03717041015625,-0.96661376953125
1759330803997,426226700,7520,28,0.20751953125,-0.03399658203125,-0.97222900390625
1759330803997,426226700,7520,29,0.206787109375,-0.03082275390625,-0.96734619140625
1759330803997,426226700,7520,30,0.206787109375,-0.03546142578125,-0.96783447265625
1759330803997,426226700,7520,31,0.20654296875,-0.03179931640625,-0.96856689453125
1759330806543,426229243,7521,0,0.20361328125,-0.03106689453125,-0.97467041015625
1759330806543,426229243,7521,1,0.205322265625,-0.03009033203125,-0.97174072265625
1759330806543,426229243,7521,2,0.209716796875,-0.03106689453125,-0.96343994140625
1759330806543,426229243,7521,3,0.2099609375,-0.02935791015625,-0.96807861328125
1759330806543,426229243,7521,4,0.2099609375,-0.02984619140625,-0.97198486328125
1759330806543,426229243,7521,5,0.206787109375,-0.03009033203125,-0.96759033203125
1759330806543,426229243,7521,6,0.21044921875,-0.03033447265625,-0.96807861328125
1759330806543,426229243,7521,7,0.216552734375,-0.03033447265625,-0.96685791015625
1759330806543,426229243,7521,8,0.217529296875,-0.02911376953125,-0.96392822265625
1759330806543,426229243,7521,9,0.219482421875,-0.03155517578125,-0.96588134765625
1759330806543,426229243,7521,10,0.21435546875,-0.02984619140625,-0.96612548828125
1759330806543,426229243,7521,11,0.21826171875,-0.02984619140625,-0.96514892578125
1759330806543,426229243,7521,12,0.2177734375,-0.03033447265625,-0.96221923828125
1759330806543,426229243,7521,13,0.21826171875,-0.03009033203125,-0.96441650390625
1759330806543,426229243,7521,14,0.2197265625,-0.02789306640625,-0.96490478515625
1759330806543,426229243,7521,15,0.217529296875,-0.02838134765625,-0.96392822265625
1759330806543,426229243,7521,16,0.218017578125,-0.02960205078125,-0.96881103515625
1759330806543,426229243,7521,17,0.21533203125,-0.02691650390625,-0.96514892578125
1759330806543,426229243,7521,18,0.216796875,-0.02691650390625,-0.97125244140625
1759330806543,426229243,7521,19,0.21923828125,-0.02984619140625,-0.96661376953125
1759330806543,426229243,7521,20,0.217041015625,-0.02838134765625,-0.96685791015625
1759330806543,426229243,7521,21,0.22216796875,-0.02789306640625,-0.95977783203125
1759330806543,426229243,7521,22,0.222412109375,-0.02813720703125,-0.96002197265625
1759330806543,426229243,7521,23,0.226806640625,-0.03009033203125,-0.96612548828125
1759330806543,426229243,7521,24,0.22998046875,-0.03106689453125,-0.95806884765625
1759330806543,426229243,7521,25,0.238525390625,-0.02789306640625,-0.95880126953125
1759330806543,426229243,7521,26,0.239501953125,-0.02642822265625,-0.95782470703125
1759330806543,426229243,7521,27,0.239013671875,-0.02911376953125,-0.95587158203125
1759330806543,426229243,7521,28,0.236572265625,-0.02862548828125,-0.96099853515625
1759330806543,426229243,7521,29,0.2333984375,-0.02593994140625,-0.95050048828125
1759330806543,426229243,7521,30,0.23193359375,-0.02545166015625,-0.95904541015625
1759330806543,426229243,7521,31,0.226318359375,-0.02667236328125,-0.95977783203125
1759330808947,426231780,7522,0,0.220703125,-0.02838134765625,-0.96295166015625
1759330808947,426231780,7522,1,0.2216796875,-0.02691650390625,-0.96636962890625
1759330808947,426231780,7522,2,0.22216796875,-0.02276611328125,-0.96392822265625
1759330808947,426231780,7522,3,0.21826171875,-0.02545166015625,-0.96392822265625
1759330808947,426231780,7522,4,0.220458984375,-0.02349853515625,-0.96710205078125
1759330808947,426231780,7522,5,0.22119140625,-0.02545166015625,-0.96270751953125
1759330808947,426231780,7522,6,0.220947265625,-0.02252197265625,-0.96588134765625
1759330808947,426231780,7522,7,0.224609375,-0.02496337890625,-0.95831298828125
1759330808947,426231780,7522,8,0.224365234375,-0.02764892578125,-0.96466064453125
1759330808947,426231780,7522,9,0.2255859375,-0.02764892578125,-0.96539306640625
1759330808947,426231780,7522,10,0.22314453125,-0.02545166015625,-0.96588134765625
1759330808947,426231780,7522,11,0.22265625,-0.02691650390625,-0.96343994140625
1759330808947,426231780,7522,12,0.2236328125,-0.02667236328125,-0.96710205078125
1759330808947,426231780,7522,13,0.22509765625,-0.02813720703125,-0.96466064453125
1759330808947,426231780,7522,14,0.22705078125,-0.02496337890625,-0.96173095703125
1759330808947,426231780,7522,15,0.22412109375,-0.02691650390625,-0.96466064453125
1759330808947,426231780,7522,16,0.22900390625,-0.02374267578125,-0.96173095703125
1759330808947,426231780,7522,17,0.228515625,-0.02716064453125,-0.96148681640625
1759330808947,426231780,7522,18,0.228271484375,-0.02447509765625,-0.96661376953125
1759330808947,426231780,7522,19,0.22265625,-0.02813720703125,-0.95709228515625
1759330808947,426231780,7522,20,0.21875,-0.03033447265625,-0.96636962890625
1759330808947,426231780,7522,21,0.2119140625,-0.03277587890625,-0.97052001953125
1759330808947,426231780,7522,22,0.2080078125,-0.03204345703125,-0.96734619140625
1759330808947,426231780,7522,23,0.201904296875,-0.03277587890625,-0.96881103515625
1759330808947,426231780,7522,24,0.199951171875,-0.03033447265625,-0.96929931640625
1759330808947,426231780,7522,25,0.198486328125,-0.03033447265625,-0.97369384765625
1759330808947,426231780,7522,26,0.191650390625,-0.03448486328125,-0.97271728515625
1759330808947,426231780,7522,27,0.19677734375,-0.03570556640625,-0.97076416015625
1759330808947,426231780,7522,28,0.199462890625,-0.03814697265625,-0.96856689453125
1759330808947,426231780,7522,29,0.200439453125,-0.03961181640625,-0.96514892578125
1759330808947,426231780,7522,30,0.200439453125,-0.03619384765625,-0.97003173828125
1759330808947,426231780,7522,31,0.201416015625,-0.03765869140625,-0.96954345703125
1759330811497,426234323,7523,0,0.1982421875,-0.03839111328125,-0.97222900390625
1759330811497,426234323,7523,1,0.2021484375,-0.04010009765625,-0.96978759765625
1759330811497,426234323,7523,2,0.201171875,-0.03814697265625,-0.96832275390625
1759330811497,426234323,7523,3,0.20166015625,-0.03961181640625,-0.97467041015625
1759330811497,426234323,7523,4,0.20166015625,-0.03839111328125,-0.97247314453125
1759330811497,426234323,7523,5,0.198974609375,-0.03936767578125,-0.96954345703125
1759330811497,426234323,7523,6,0.19873046875,-0.03863525390625,-0.96832275390625
1759330811497,426234323,7523,7,0.194580078125,-0.03961181640625,-0.97320556640625
1759330811497,426234323,7523,8,0.2001953125,-0.03765869140625,-0.96954345703125
1759330811497,426234323,7523,9,0.2021484375,-0.03839111328125,-0.96954345703125
1759330811497,426234323,7523,10,0.19921875,-0.03619384765625,-0.96807861328125
1759330811497,426234323,7523,11,0.195068359375,-0.03814697265625,-0.97247314453125
1759330811497,426234323,7523,12,0.2001953125,-0.03936767578125,-0.97174072265625
1759330811497,426234323,7523,13,0.19775390625,-0.03692626953125,-0.97149658203125
1759330811497,426234323,7523,14,0.1962890625,-0.03497314453125,-0.97247314453125
1759330811497,426234323,7523,15,0.198486328125,-0.03717041015625,-0.97174072265625
1759330811497,426234323,7523,16,0.197998046875,-0.03497314453125,-0.97271728515625
1759330811497,426234323,7523,17,0.200439453125,-0.03399658203125,-0.97222900390625
1759330811497,426234323,7523,18,0.19677734375,-0.03570556640625,-0.96954345703125
1759330811497,426234323,7523,19,0.1982421875,-0.03643798828125,-0.97271728515625
1759330811497,426234323,7523,20,0.19921875,-0.03912353515625,-0.96881103515625
1759330811497,426234323,7523,21,0.199462890625,-0.03521728515625,-0.96807861328125
1759330811497,426234323,7523,22,0.19873046875,-0.03521728515625,-0.97174072265625
1759330811497,426234323,7523,23,0.19970703125,-0.03765869140625,-0.96881103515625
1759330811497,426234323,7523,24,0.201904296875,-0.03570556640625,-0.97174072265625
1759330811497,426234323,7523,25,0.203857421875,-0.03497314453125,-0.96783447265625
1759330811497,426234323,7523,26,0.2041015625,-0.03424072265625,-0.96685791015625
1759330811497,426234323,7523,27,0.20458984375,-0.03424072265625,-0.97247314453125
1759330811497,426234323,7523,28,0.201416015625,-0.03204345703125,-0.96783447265625
1759330811497,426234323,7523,29,0.200439453125,-0.03424072265625,-0.97320556640625
1759330811497,426234323,7523,30,0.203369140625,-0.03424072265625,-0.96881103515625
1759330811497,426234323,7523,31,0.20068359375,-0.03179931640625,-0.97467041015625
1759330814047,426236866,7524,0,0.202880859375,-0.03302001953125,-0.97320556640625
1759330814047,426236866,7524,1,0.20751953125,-0.03350830078125,-0.96588134765625
1759330814047,426236866,7524,2,0.209228515625,-0.03521728515625,-0.96392822265625
1759330814047,426236866,7524,3,0.207763671875,-0.03472900390625,-0.97076416015625
1759330814047,426236866,7524,4,0.2060546875,-0.03253173828125,-0.96929931640625
1759330814047,426236866,7524,5,0.2099609375,-0.03472900390625,-0.96685791015625
1759330814047,426236866,7524,6,0.210693359375,-0.03228759765625,-0.97052001953125
1759330814047,426236866,7524,7,0.212890625,-0.03179931640625,-0.96246337890625
1759330814047,426236866,7524,8,0.210693359375,-0.03619384765625,-0.96490478515625
1759330814047,426236866,7524,9,0.208251953125,-0.03521728515625,-0.97271728515625
1759330814047,426236866,7524,10,0.208251953125,-0.03228759765625,-0.96636962890625
1759330814047,426236866,7524,11,0.212646484375,-0.03131103515625,-0.96466064453125
1759330814047,426236866,7524,12,0.212646484375,-0.03082275390625,-0.96563720703125
1759330814047,426236866,7524,13,0.212158203125,-0.03131103515625,-0.96856689453125
1759330814047,426236866,7524,14,0.21142578125,-0.03179931640625,-0.96905517578125
1759330814047,426236866,7524,15,0.2138671875,-0.03033447265625,-0.96685791015625
1759330814047,426236866,7524,16,0.214599609375,-0.03253173828125,-0.96490478515625
1759330814047,426236866,7524,17,0.212646484375,-0.03082275390625,-0.96783447265625
1759330814047,426236866,7524,18,0.214599609375,-0.03131103515625,-0.96612548828125
1759330814047,426236866,7524,19,0.214599609375,-0.02984619140625,-0.96270751953125
1759330814047,426236866,7524,20,0.217041015625,-0.03082275390625,-0.96954345703125
1759330814047,426236866,7524,21,0.21533203125,-0.02691650390625,-0.96563720703125
1759330814047,426236866,7524,22,0.212890625,-0.02618408203125,-0.96612548828125
1759330814047,426236866,7524,23,0.216552734375,-0.02716064453125,-0.96807861328125
1759330814047,426236866,7524,24,0.2158203125,-0.02838134765625,-0.96588134765625
1759330814047,426236866,7524,25,0.218017578125,-0.02642822265625,-0.96759033203125
1759330814047,426236866,7524,26,0.22119140625,-0.02301025390625,-0.96295166015625
1759330814047,426236866,7524,27,0.22265625,-0.02471923828125,-0.96685791015625
1759330814047,426236866,7524,28,0.2216796875,-0.02301025390625,-0.96661376953125
1759330814047,426236866,7524,29,0.2216796875,-0.02374267578125,-0.96588134765625
1759330814047,426236866,7524,30,0.21875,-0.02593994140625,-0.96710205078125
1759330814047,426236866,7524,31,0.21923828125,-0.02447509765625,-0.96710205078125
1759330816598,426239409,7525,0,0.221435546875,-0.02374267578125,-0.95953369140625
1759330816598,426239409,7525,1,0.217041015625,-0.02130126953125,-0.96466064453125
1759330816598,426239409,7525,2,0.21875,-0.02178955078125,-0.96807861328125
1759330816598,426239409,7525,3,0.217041015625,-0.02105712890625,-0.96710205078125
1759330816598,426239409,7525,4,0.22021484375,-0.02056884765625,-0.96905517578125
1759330816598,426239409,7525,5,0.2216796875,-0.02081298828125,-0.96417236328125
1759330816598,426239409,7525,6,0.221435546875,-0.02252197265625,-0.96636962890625
1759330816598,426239409,7525,7,0.21923828125,-0.02008056640625,-0.96026611328125
1759330816598,426239409,7525,8,0.217529296875,-0.02178955078125,-0.96051025390625
1759330816598,426239409,7525,9,0.22021484375,-0.02081298828125,-0.96856689453125
1759330816598,426239409,7525,10,0.21435546875,-0.02301025390625,-0.96685791015625
1759330816598,426239409,7525,11,0.21533203125,-0.02008056640625,-0.96295166015625
1759330816598,426239409,7525,12,0.217041015625,-0.01715087890625,-0.96051025390625
1759330816598,426239409,7525,13,0.221923828125,-0.01788330078125,-0.96392822265625
1759330816598,426239409,7525,14,0.22265625,-0.01959228515625,-0.95904541015625
1759330816598,426239409,7525,15,0.222412109375,-0.02105712890625,-0.96099853515625
1759330816598,426239409,7525,16,0.211669921875,-0.02398681640625,-0.96929931640625
1759330816598,426239409,7525,17,0.21240234375,-0.02642822265625,-0.96783447265625
1759330816598,426239409,7525,18,0.208984375,-0.03179931640625,-0.96661376953125
1759330816598,426239409,7525,19,0.209716796875,-0.02984619140625,-0.96807861328125
1759330816598,426239409,7525,20,0.208251953125,-0.03082275390625,-0.97296142578125
1759330816598,426239409,7525,21,0.2060546875,-0.02667236328125,-0.98394775390625
1759330816598,426239409,7525,22,0.25634765625,-0.01422119140625,-0.96490478515625
1759330816598,426239409,7525,23,0.3037109375,-0.03131103515625,-0.89678955078125
1759330816598,426239409,7525,24,0.3134765625,-0.03204345703125,-0.91119384765625
1759330816598,426239409,7525,25,0.287841796875,-0.04107666015625,-0.91387939453125
1759330816598,426239409,7525,26,0.27197265625,-0.03643798828125,-0.95660400390625
1759330816598,426239409,7525,27,0.245361328125,-0.04156494140625,-0.96343994140625
1759330816598,426239409,7525,28,0.232177734375,-0.03521728515625,-0.96221923828125
1759330816598,426239409,7525,29,0.222412109375,-0.03521728515625,-0.96368408203125
1759330816598,426239409,7525,30,0.2158203125,-0.03570556640625,-0.96807861328125
1759330816598,426239409,7525,31,0.208251953125,-0.03302001953125,-0.96929931640625
1759330819297,426241952,7526,0,0.201416015625,-0.03082275390625,-0.96832275390625
1759330819297,426241952,7526,1,0.197509765625,-0.03057861328125,-0.97125244140625
1759330819297,426241952,7526,2,0.20068359375,-0.03472900390625,-0.97393798828125
1759330819297,426241952,7526,3,0.2021484375,-0.03790283203125,-0.96929931640625
1759330819297,426241952,7526,4,0.2080078125,-0.03985595703125,-0.96636962890625
1759330819297,426241952,7526,5,0.210205078125,-0.03887939453125,-0.96856689453125
1759330819297,426241952,7526,6,0.214111328125,-0.03741455078125,-0.96612548828125
1759330819297,426241952,7526,7,0.207763671875,-0.04058837890625,-0.96392822265625
1759330819297,426241952,7526,8,0.211181640625,-0.04205322265625,-0.97027587890625
1759330819297,426241952,7526,9,0.208984375,-0.03936767578125,-0.96807861328125
1759330819297,426241952,7526,10,0.20654296875,-0.03570556640625,-0.96929931640625
1759330819297,426241952,7526,11,0.2099609375,-0.04058837890625,-0.97149658203125
1759330819297,426241952,7526,12,0.209228515625,-0.04498291015625,-0.96807861328125
1759330819297,426241952,7526,13,0.218505859375,-0.04522705078125,-0.96856689453125
1759330819297,426241952,7526,14,0.220703125,-0.04864501953125,-0.95904541015625
1759330819297,426241952,7526,15,0.215576171875,-0.04034423828125,-0.96661376953125
1759330819297,426241952,7526,16,0.21337890625,-0.03985595703125,-0.96539306640625
1759330819297,426241952,7526,17,0.21337890625,-0.04302978515625,-0.96807861328125
1759330819297,426241952,7526,18,0.216064453125,-0.04156494140625,-0.96807861328125
1759330819297,426241952,7526,19,0.214111328125,-0.03961181640625,-0.96148681640625
1759330819297,426241952,7526,20,0.21435546875,-0.04010009765625,-0.96539306640625
1759330819297,426241952,7526,21,0.215087890625,-0.03839111328125,-0.96417236328125
1759330819297,426241952,7526,22,0.213134765625,-0.03985595703125,-0.96807861328125
1759330819297,426241952,7526,23,0.213134765625,-0.03668212890625,-0.96954345703125
1759330819297,426241952,7526,24,0.21337890625,-0.03863525390625,-0.96734619140625
1759330819297,426241952,7526,25,0.2138671875,-0.03765869140625,-0.96978759765625
1759330819297,426241952,7526,26,0.210205078125,-0.03863525390625,-0.96856689453125
1759330819297,426241952,7526,27,0.21142578125,-0.03521728515625,-0.96832275390625
1759330819297,426241952,7526,28,0.2158203125,-0.03814697265625,-0.96563720703125
1759330819297,426241952,7526,29,0.214111328125,-0.03717041015625,-0.96490478515625
1759330819297,426241952,7526,30,0.215576171875,-0.03570556640625,-0.96392822265625
1759330819297,426241952,7526,31,0.21337890625,-0.03350830078125,-0.96734619140625
1759330821697,426244495,7527,0,0.21484375,-0.03594970703125,-0.96636962890625
1759330821697,426244495,7527,1,0.21337890625,-0.03155517578125,-0.96612548828125
1759330821697,426244495,7527,2,0.2109375,-0.03717041015625,-0.96197509765625
1759330821697,426244495,7527,3,0.209716796875,-0.03497314453125,-0.96905517578125
1759330821697,426244495,7527,4,0.2119140625,-0.03692626953125,-0.96881103515625
1759330821697,426244495,7527,5,0.212646484375,-0.03692626953125,-0.96197509765625
1759330821697,426244495,7527,6,0.216064453125,-0.03399658203125,-0.97174072265625
1759330821697,426244495,7527,7,0.219482421875,-0.03887939453125,-0.96051025390625
1759330821697,426244495,7527,8,0.216552734375,-0.04132080078125,-0.95733642578125
1759330821697,426244495,7527,9,0.217041015625,-0.03692626953125,-0.97198486328125
1759330821697,426244495,7527,10,0.215576171875,-0.03692626953125,-0.95855712890625
1759330821697,426244495,7527,11,0.215087890625,-0.03765869140625,-0.97052001953125
1759330821697,426244495,7527,12,0.215087890625,-0.03692626953125,-0.96905517578125
1759330821697,426244495,7527,13,0.2119140625,-0.03814697265625,-0.96514892578125
1759330821697,426244495,7527,14,0.209228515625,-0.03814697265625,-0.96710205078125
1759330821697,426244495,7527,15,0.209228515625,-0.03912353515625,-0.96636962890625
1759330821697,426244495,7527,16,0.20849609375,-0.03497314453125,-0.96759033203125
1759330821697,426244495,7527,17,0.20751953125,-0.03790283203125,-0.96978759765625
1759330821697,426244495,7527,18,0.2099609375,-0.03619384765625,-0.96881103515625
1759330821697,426244495,7527,19,0.210693359375,-0.03814697265625,-0.96954345703125
1759330821697,426244495,7527,20,0.20751953125,-0.03399658203125,-0.96539306640625
1759330821697,426244495,7527,21,0.209716796875,-0.03668212890625,-0.96881103515625
1759330821697,426244495,7527,22,0.209716796875,-0.03497314453125,-0.96710205078125
1759330821697,426244495,7527,23,0.207763671875,-0.03619384765625,-0.96685791015625
1759330821697,426244495,7527,24,0.20654296875,-0.03375244140625,-0.96759033203125
1759330821697,426244495,7527,25,0.202880859375,-0.03594970703125,-0.96832275390625
1759330821697,426244495,7527,26,0.205322265625,-0.03448486328125,-0.96881103515625
1759330821697,426244495,7527,27,0.20556640625,-0.03472900390625,-0.96685791015625
1759330821697,426244495,7527,28,0.20556640625,-0.03521728515625,-0.96954345703125
1759330821697,426244495,7527,29,0.20458984375,-0.03472900390625,-0.97027587890625
1759330821697,426244495,7527,30,0.20361328125,-0.03619384765625,-0.97003173828125
1759330821697,426244495,7527,31,0.205322265625,-0.03546142578125,-0.97076416015625
1759330824247,426247038,7528,0,0.204833984375,-0.03277587890625,-0.96929931640625
1759330824247,426247038,7528,1,0.203857421875,-0.03131103515625,-0.97052001953125
1759330824247,426247038,7528,2,0.204833984375,-0.03179931640625,-0.96807861328125
1759330824247,426247038,7528,3,0.20361328125,-0.03302001953125,-0.96832275390625
1759330824247,426247038,7528,4,0.204833984375,-0.03179931640625,-0.97003173828125
1759330824247,426247038,7528,5,0.202880859375,-0.03497314453125,-0.96832275390625
1759330824247,426247038,7528,6,0.206298828125,-0.03033447265625,-0.96759033203125
1759330824247,426247038,7528,7,0.205810546875,-0.03131103515625,-0.96881103515625
1759330824247,426247038,7528,8,0.206298828125,-0.03131103515625,-0.97003173828125
1759330824247,426247038,7528,9,0.201416015625,-0.03204345703125,-0.96929931640625
1759330824247,426247038,7528,10,0.200439453125,-0.03106689453125,-0.97100830078125
1759330824247,426247038,7528,11,0.2001953125,-0.03155517578125,-0.97174072265625
1759330824247,426247038,7528,12,0.20166015625,-0.03057861328125,-0.97271728515625
1759330824247,426247038,7528,13,0.202880859375,-0.02911376953125,-0.97222900390625
1759330824247,426247038,7528,14,0.202392578125,-0.03106689453125,-0.96636962890625
1759330824247,426247038,7528,15,0.206298828125,-0.03131103515625,-0.96685791015625
