receivedPhoneTimestamp,respeckTimestamp,packetSeqNum,sampleSeqNum,accelX,accelY,accelZ
1759858238206,1045970526,16562,0,-0.18212890625,0.09539794921875,0.92083740234375
1759858238206,1045970526,16562,1,-0.152587890625,0.10980224609375,0.92181396484375
1759858238206,1045970526,16562,2,-0.151611328125,0.10247802734375,0.91644287109375
1759858238206,1045970526,16562,3,-0.16650390625,0.09246826171875,0.92108154296875
1759858238206,1045970526,16562,4,-0.16259765625,0.09442138671875,0.92498779296875
1759858238206,1045970526,16562,5,-0.16162109375,0.09320068359375,0.92327880859375
1759858238206,1045970526,16562,6,-0.148193359375,0.09246826171875,0.93670654296875
1759858238206,1045970526,16562,7,-0.138916015625,0.11834716796875,0.91790771484375
1759858238206,1045970526,16562,8,-0.1533203125,0.13885498046875,0.92132568359375
1759858238206,1045970526,16562,9,-0.162353515625,0.12689208984375,0.90936279296875
1759858238206,1045970526,16562,10,-0.150634765625,0.14471435546875,0.91766357421875
1759858238206,1045970526,16562,11,-0.133056640625,0.10784912109375,0.92620849609375
1759858238206,1045970526,16562,12,-0.122314453125,0.10931396484375,0.91986083984375
1759858238206,1045970526,16562,13,-0.1357421875,0.12640380859375,0.92059326171875
1759858238206,1045970526,16562,14,-0.1435546875,0.13470458984375,0.92791748046875
1759858238206,1045970526,16562,15,-0.156982421875,0.12371826171875,0.92889404296875
1759858238206,1045970526,16562,16,-0.168212890625,0.11566162109375,0.83099365234375
1759858238206,1045970526,16562,17,-0.189697265625,0.13201904296875,0.92010498046875
1759858238206,1045970526,16562,18,-0.17041015625,0.06170654296875,0.97576904296875
1759858238206,1045970526,16562,19,-0.16455078125,0.06463623046875,0.94891357421875
1759858238206,1045970526,16562,20,-0.159423828125,0.08197021484375,0.94989013671875
1759858238206,1045970526,16562,21,-0.16552734375,0.13616943359375,0.88958740234375
1759858238206,1045970526,16562,22,-0.182373046875,0.16571044921875,0.86077880859375
1759858238206,1045970526,16562,23,-0.17578125,0.11981201171875,0.90765380859375
1759858238206,1045970526,16562,24,-0.197021484375,0.11541748046875,0.92864990234375
1759858238206,1045970526,16562,25,-0.192138671875,0.09954833984375,0.90960693359375
1759858238206,1045970526,16562,26,-0.14599609375,0.09393310546875,0.95062255859375
1759858238206,1045970526,16562,27,-0.19921875,0.07733154296875,0.96990966796875
1759858238206,1045970526,16562,28,-0.18212890625,0.09100341796875,0.88665771484375
1759858238206,1045970526,16562,29,-0.197265625,0.12445068359375,0.86224365234375
1759858238206,1045970526,16562,30,-0.19921875,0.13861083984375,0.91668701171875
1759858238206,1045970526,16562,31,-0.20458984375,0.07757568359375,0.94769287109375
1759858240721,1045973045,16563,0,-0.18505859375,0.08294677734375,0.92181396484375
1759858240721,1045973045,16563,1,-0.185791015625,0.11663818359375,0.89227294921875
1759858240721,1045973045,16563,2,-0.1875,0.11981201171875,0.90789794921875
1759858240721,1045973045,16563,3,-0.18896484375,0.07830810546875,0.94183349609375
1759858240721,1045973045,16563,4,-0.17529296875,0.10809326171875,0.92596435546875
1759858240721,1045973045,16563,5,-0.16162109375,0.15057373046875,0.91693115234375
1759858240721,1045973045,16563,6,-0.164306640625,0.14959716796875,0.90155029296875
1759858240721,1045973045,16563,7,-0.191650390625,0.13909912109375,0.88299560546875
1759858240721,1045973045,16563,8,-0.154296875,0.14007568359375,0.83953857421875
1759858240721,1045973045,16563,9,-0.1787109375,0.09857177734375,1.00726318359375
1759858240721,1045973045,16563,10,-0.190185546875,0.00531005859375,1.00238037109375
1759858240721,1045973045,16563,11,-0.21630859375,0.10955810546875,0.84808349609375
1759858240721,1045973045,16563,12,-0.217529296875,0.18914794921875,0.82440185546875
1759858240721,1045973045,16563,13,-0.19482421875,0.11492919921875,0.96844482421875
1759858240721,1045973045,16563,14,-0.20166015625,0.03778076171875,0.96746826171875
1759858240721,1045973045,16563,15,-0.198486328125,0.06976318359375,0.90716552734375
1759858240721,1045973045,16563,16,-0.19189453125,0.11614990234375,0.84051513671875
1759858240721,1045973045,16563,17,-0.208251953125,0.15374755859375,0.93182373046875
1759858240721,1045973045,16563,18,-0.197509765625,0.03680419921875,0.95111083984375
1759858240721,1045973045,16563,19,-0.2001953125,0.05316162109375,0.89495849609375
1759858240721,1045973045,16563,20,-0.197265625,0.07635498046875,0.93304443359375
1759858240721,1045973045,16563,21,-0.168701171875,0.11322021484375,0.94476318359375
1759858240721,1045973045,16563,22,-0.078857421875,0.11614990234375,0.91497802734375
1759858240721,1045973045,16563,23,-0.1416015625,0.08416748046875,0.92083740234375
1759858240721,1045973045,16563,24,-0.27001953125,0.09735107421875,0.88031005859375
1759858240721,1045973045,16563,25,-0.32275390625,0.10882568359375,0.83538818359375
1759858240721,1045973045,16563,26,-0.2275390625,0.13592529296875,0.90496826171875
1759858240721,1045973045,16563,27,-0.156494140625,0.02239990234375,1.03753662109375
1759858240721,1045973045,16563,28,-0.176513671875,0.03265380859375,0.92034912109375
1759858240721,1045973045,16563,29,-0.216064453125,0.14764404296875,0.81390380859375
1759858240721,1045973045,16563,30,-0.2373046875,0.13909912109375,0.84344482421875
1759858240721,1045973045,16563,31,-0.250244140625,0.08758544921875,0.99237060546875
1759858243238,1045975564,16564,0,-0.2158203125,-0.00079345703125,0.97088623046875
1759858243238,1045975564,16564,1,-0.195068359375,0.06488037109375,0.87933349609375
1759858243238,1045975564,16564,2,-0.219970703125,0.13275146484375,0.89666748046875
1759858243238,1045975564,16564,3,-0.218994140625,0.07952880859375,0.91278076171875
1759858243238,1045975564,16564,4,-0.212646484375,0.07708740234375,0.89373779296875
1759858243238,1045975564,16564,5,-0.208251953125,0.08245849609375,0.94403076171875
1759858243238,1045975564,16564,6,-0.18408203125,0.05657958984375,0.90960693359375
1759858243238,1045975564,16564,7,-0.22509765625,0.06463623046875,0.91668701171875
1759858243238,1045975564,16564,8,-0.24072265625,0.05926513671875,0.94598388671875
1759858243238,1045975564,16564,9,-0.16650390625,0.05853271484375,0.95989990234375
1759858243238,1045975564,16564,10,-0.1484375,0.09344482421875,0.91986083984375
1759858243238,1045975564,16564,11,-0.18896484375,0.13470458984375,0.87908935546875
1759858243238,1045975564,16564,12,-0.191650390625,0.11419677734375,0.86297607421875
1759858243238,1045975564,16564,13,-0.19580078125,0.13714599609375,0.81951904296875
1759858243238,1045975564,16564,14,-0.225341796875,0.09002685546875,1.01849365234375
1759858243238,1045975564,16564,15,-0.166748046875,-0.03814697265625,0.98065185546875
1759858243238,1045975564,16564,16,-0.2275390625,0.07293701171875,0.89031982421875
1759858243238,1045975564,16564,17,-0.206298828125,0.17401123046875,0.80902099609375
1759858243238,1045975564,16564,18,-0.2138671875,0.08636474609375,0.99969482421875
1759858243238,1045975564,16564,19,-0.209716796875,0.00775146484375,0.91790771484375
1759858243238,1045975564,16564,20,-0.16064453125,0.10174560546875,0.88104248046875
1759858243238,1045975564,16564,21,-0.206298828125,0.07415771484375,0.94500732421875
1759858243238,1045975564,16564,22,-0.267333984375,0.06219482421875,0.91571044921875
1759858243238,1045975564,16564,23,-0.251220703125,0.07000732421875,0.90521240234375
1759858243238,1045975564,16564,24,-0.18603515625,0.05682373046875,0.95355224609375
1759858243238,1045975564,16564,25,-0.141357421875,0.05755615234375,0.95452880859375
1759858243238,1045975564,16564,26,-0.147216796875,0.14617919921875,0.88275146484375
1759858243238,1045975564,16564,27,-0.213134765625,0.15765380859375,0.89837646484375
1759858243238,1045975564,16564,28,-0.221435546875,0.13177490234375,0.89666748046875
1759858243238,1045975564,16564,29,-0.2041015625,0.10736083984375,0.87249755859375
1759858243238,1045975564,16564,30,-0.21728515625,0.11517333984375,0.91888427734375
1759858243238,1045975564,16564,31,-0.16796875,0.05975341796875,0.94500732421875
1759858245762,1045978083,16565,0,-0.216796875,0.10198974609375,0.92889404296875
1759858245762,1045978083,16565,1,-0.22802734375,0.10687255859375,0.89129638671875
1759858245762,1045978083,16565,2,-0.222412109375,0.12469482421875,0.89056396484375
1759858245762,1045978083,16565,3,-0.196533203125,0.08880615234375,0.91790771484375
1759858245762,1045978083,16565,4,-0.231689453125,0.08831787109375,0.89080810546875
1759858245762,1045978083,16565,5,-0.256591796875,0.09710693359375,0.90179443359375
1759858245762,1045978083,16565,6,-0.201904296875,0.06585693359375,0.93670654296875
1759858245762,1045978083,16565,7,-0.223876953125,0.06170654296875,0.96356201171875
1759858245762,1045978083,16565,8,-0.17529296875,0.01507568359375,0.93255615234375
1759858245762,1045978083,16565,9,-0.18994140625,0.08172607421875,0.84515380859375
1759858245762,1045978083,16565,10,-0.233154296875,0.12396240234375,0.93255615234375
1759858245762,1045978083,16565,11,-0.206787109375,0.04998779296875,0.92083740234375
1759858245762,1045978083,16565,12,-0.19384765625,0.08392333984375,0.88885498046875
1759858245762,1045978083,16565,13,-0.243896484375,0.07806396484375,0.92718505859375
1759858245762,1045978083,16565,14,-0.22314453125,0.02923583984375,0.94622802734375
1759858245762,1045978083,16565,15,-0.191162109375,0.06024169921875,0.95135498046875
1759858245762,1045978083,16565,16,-0.1923828125,0.09881591796875,0.90985107421875
1759858245762,1045978083,16565,17,-0.18212890625,0.12371826171875,0.91033935546875
1759858245762,1045978083,16565,18,-0.21435546875,0.13177490234375,0.88690185546875
1759858245762,1045978083,16565,19,-0.22998046875,0.11199951171875,0.89349365234375
1759858245762,1045978083,16565,20,-0.20068359375,0.14300537109375,0.86981201171875
1759858245762,1045978083,16565,21,-0.197998046875,0.06805419921875,0.98919677734375
1759858245762,1045978083,16565,22,-0.205810546875,0.05780029296875,0.91156005859375
1759858245762,1045978083,16565,23,-0.222412109375,0.15179443359375,0.84906005859375
1759858245762,1045978083,16565,24,-0.214599609375,0.14495849609375,0.87347412109375
1759858245762,1045978083,16565,25,-0.222412109375,0.06365966796875,0.98211669921875
1759858245762,1045978083,16565,26,-0.215576171875,0.05633544921875,0.92083740234375
1759858245762,1045978083,16565,27,-0.21435546875,0.11468505859375,0.88079833984375
1759858245762,1045978083,16565,28,-0.212890625,0.09881591796875,0.91888427734375
1759858245762,1045978083,16565,29,-0.211669921875,0.06439208984375,0.92181396484375
1759858245762,1045978083,16565,30,-0.23388671875,0.09881591796875,0.90960693359375
1759858245762,1045978083,16565,31,-0.22265625,0.10736083984375,0.92767333984375
1759858248286,1045980602,16566,0,-0.19677734375,0.07098388671875,0.94720458984375
1759858248286,1045980602,16566,1,-0.18896484375,0.12103271484375,0.89324951171875
1759858248286,1045980602,16566,2,-0.18505859375,0.12005615234375,0.87005615234375
1759858248286,1045980602,16566,3,-0.185546875,0.15594482421875,0.88006591796875
1759858248286,1045980602,16566,4,-0.2275390625,0.05560302734375,0.97454833984375
1759858248286,1045980602,16566,5,-0.21435546875,0.03875732421875,0.94207763671875
1759858248286,1045980602,16566,6,-0.186279296875,0.11859130859375,0.87713623046875
1759858248286,1045980602,16566,7,-0.18603515625,0.12347412109375,0.87542724609375
1759858248286,1045980602,16566,8,-0.217041015625,0.09442138671875,0.95159912109375
1759858248286,1045980602,16566,9,-0.20166015625,0.04705810546875,0.92987060546875
1759858248286,1045980602,16566,10,-0.216796875,0.10858154296875,0.89788818359375
1759858248286,1045980602,16566,11,-0.209716796875,0.09246826171875,0.93035888671875
1759858248286,1045980602,16566,12,-0.2470703125,0.07269287109375,0.93280029296875
1759858248286,1045980602,16566,13,-0.1748046875,0.06561279296875,0.91180419921875
1759858248286,1045980602,16566,14,-0.154541015625,0.09100341796875,0.88983154296875
1759858248286,1045980602,16566,15,-0.176513671875,0.12103271484375,0.91156005859375
1759858248286,1045980602,16566,16,-0.213623046875,0.05902099609375,0.93963623046875
1759858248286,1045980602,16566,17,-0.1650390625,0.11053466796875,0.88397216796875
1759858248286,1045980602,16566,18,-0.19873046875,0.09661865234375,0.96209716796875
1759858248286,1045980602,16566,19,-0.15966796875,0.05389404296875,0.94158935546875
1759858248286,1045980602,16566,20,-0.2060546875,0.09661865234375,0.89544677734375
1759858248286,1045980602,16566,21,-0.205322265625,0.13177490234375,0.87054443359375
1759858248286,1045980602,16566,22,-0.223388671875,0.10687255859375,0.93988037109375
1759858248286,1045980602,16566,23,-0.22412109375,0.07098388671875,0.93011474609375
1759858248286,1045980602,16566,24,-0.206298828125,0.12615966796875,0.86761474609375
1759858248286,1045980602,16566,25,-0.20556640625,0.10980224609375,0.93328857421875
1759858248286,1045980602,16566,26,-0.19189453125,0.08367919921875,0.90692138671875
1759858248286,1045980602,16566,27,-0.2099609375,0.12884521484375,0.91400146484375
1759858248286,1045980602,16566,28,-0.186767578125,0.11737060546875,0.92498779296875
1759858248286,1045980602,16566,29,-0.176513671875,0.11834716796875,0.93231201171875
1759858248286,1045980602,16566,30,-0.21240234375,0.10980224609375,0.93426513671875
1759858248286,1045980602,16566,31,-0.20556640625,0.13519287109375,0.90911865234375
1759858250802,1045983115,16567,0,-0.194091796875,0.14447021484375,0.80731201171875
1759858250802,1045983115,16567,1,-0.205810546875,0.19061279296875,0.87664794921875
1759858250802,1045983115,16567,2,-0.212158203125,0.03778076171875,1.03192138671875
1759858250802,1045983115,16567,3,-0.215087890625,0.06243896484375,0.92449951171875
1759858250802,1045983115,16567,4,-0.214111328125,0.16571044921875,0.83148193359375
1759858250802,1045983115,16567,5,-0.23583984375,0.13226318359375,0.93963623046875
1759858250802,1045983115,16567,6,-0.205078125,0.07049560546875,0.92132568359375
1759858250802,1045983115,16567,7,-0.22802734375,0.14251708984375,0.83734130859375
1759858250802,1045983115,16567,8,-0.2509765625,0.11956787109375,0.92327880859375
1759858250802,1045983115,16567,9,-0.205810546875,0.07049560546875,0.92254638671875
1759858250802,1045983115,16567,10,-0.24462890625,0.08050537109375,0.91693115234375
1759858250802,1045983115,16567,11,-0.21484375,0.07122802734375,0.93450927734375
1759858250802,1045983115,16567,12,-0.192138671875,0.10662841796875,0.93499755859375
1759858250802,1045983115,16567,13,-0.198974609375,0.11077880859375,0.92254638671875
1759858250802,1045983115,16567,14,-0.201416015625,0.12908935546875,0.90716552734375
1759858250802,1045983115,16567,15,-0.203369140625,0.15252685546875,0.89642333984375
1759858250802,1045983115,16567,16,-0.193603515625,0.13153076171875,0.81927490234375
1759858250802,1045983115,16567,17,-0.2294921875,0.14959716796875,0.90692138671875
1759858250802,1045983115,16567,18,-0.207275390625,0.02825927734375,0.98846435546875
1759858250802,1045983115,16567,19,-0.2353515625,0.07586669921875,0.92083740234375
1759858250802,1045983115,16567,20,-0.234375,0.11810302734375,0.86883544921875
1759858250802,1045983115,16567,21,-0.23046875,0.10980224609375,0.89324951171875
1759858250802,1045983115,16567,22,-0.221923828125,0.10125732421875,0.89154052734375
1759858250802,1045983115,16567,23,-0.22705078125,0.08123779296875,0.89739990234375
1759858250802,1045983115,16567,24,-0.221923828125,0.09295654296875,0.92303466796875
1759858250802,1045983115,16567,25,-0.22900390625,0.08758544921875,0.92596435546875
1759858250802,1045983115,16567,26,-0.2626953125,0.08807373046875,0.93621826171875
1759858250802,1045983115,16567,27,-0.23486328125,0.05633544921875,0.96722412109375
1759858250802,1045983115,16567,28,-0.166748046875,0.03582763671875,0.85736083984375
1759858250802,1045983115,16567,29,-0.18505859375,0.10662841796875,0.90203857421875
1759858250802,1045983115,16567,30,-0.252685546875,0.08294677734375,0.91424560546875
1759858250802,1045983115,16567,31,-0.19677734375,0.05975341796875,0.90252685546875
1759858253323,1045985628,16568,0,-0.216796875,0.07855224609375,0.99163818359375
1759858253323,1045985628,16568,1,-0.20361328125,0.06243896484375,0.87420654296875
1759858253323,1045985628,16568,2,-0.22509765625,0.07586669921875,0.87493896484375
1759858253323,1045985628,16568,3,-0.24609375,0.07366943359375,0.96990966796875
1759858253323,1045985628,16568,4,-0.1845703125,0.04632568359375,0.87030029296875
1759858253323,1045985628,16568,5,-0.25732421875,0.09320068359375,0.94671630859375
1759858253323,1045985628,16568,6,-0.205322265625,0.07049560546875,0.90765380859375
1759858253323,1045985628,16568,7,-0.189453125,0.07049560546875,0.86370849609375
1759858253323,1045985628,16568,8,-0.23193359375,0.11248779296875,0.92620849609375
1759858253323,1045985628,16568,9,-0.2314453125,0.03948974609375,0.97210693359375
1759858253323,1045985628,16568,10,-0.19677734375,0.03875732421875,0.94085693359375
1759858253323,1045985628,16568,11,-0.1806640625,0.11737060546875,0.89398193359375
1759858253323,1045985628,16568,12,-0.181884765625,0.09564208984375,0.90472412109375
1759858253323,1045985628,16568,13,-0.18603515625,0.09759521484375,0.92474365234375
1759858253323,1045985628,16568,14,-0.19580078125,0.11297607421875,0.89276123046875
1759858253323,1045985628,16568,15,-0.17626953125,0.07342529296875,0.79949951171875
1759858253323,1045985628,16568,16,-0.201171875,0.15838623046875,0.95599365234375
1759858253323,1045985628,16568,17,-0.176513671875,0.02069091796875,0.99285888671875
1759858253323,1045985628,16568,18,-0.24462890625,0.00921630859375,0.95037841796875
1759858253323,1045985628,16568,19,-0.22900390625,0.11053466796875,0.85614013671875
1759858253323,1045985628,16568,20,-0.210205078125,0.09564208984375,0.90667724609375
1759858253323,1045985628,16568,21,-0.194580078125,0.02996826171875,0.93353271484375
1759858253323,1045985628,16568,22,-0.22802734375,0.05291748046875,0.90496826171875
1759858253323,1045985628,16568,23,-0.204345703125,0.05853271484375,0.91741943359375
1759858253323,1045985628,16568,24,-0.201904296875,0.02044677734375,0.93182373046875
1759858253323,1045985628,16568,25,-0.243896484375,0.09051513671875,0.93255615234375
1759858253323,1045985628,16568,26,-0.193603515625,0.11737060546875,0.89984130859375
1759858253323,1045985628,16568,27,-0.188232421875,0.08441162109375,0.92913818359375
1759858253323,1045985628,16568,28,-0.185791015625,0.09149169921875,0.96600341796875
1759858253323,1045985628,16568,29,-0.207763671875,0.06317138671875,0.92083740234375
1759858253323,1045985628,16568,30,-0.21826171875,0.07489013671875,0.91009521484375
1759858253323,1045985628,16568,31,-0.17724609375,0.12420654296875,0.89007568359375
1759858255843,1045988141,16569,0,-0.1962890625,0.09637451171875,0.90814208984375
1759858255843,1045988141,16569,1,-0.22021484375,0.10101318359375,0.89447021484375
1759858255843,1045988141,16569,2,-0.221435546875,0.08416748046875,0.84344482421875
1759858255843,1045988141,16569,3,-0.17236328125,0.12371826171875,0.87542724609375
1759858255843,1045988141,16569,4,-0.237548828125,0.03826904296875,0.98773193359375
1759858255843,1045988141,16569,5,-0.249755859375,0.00848388671875,0.93621826171875
1759858255843,1045988141,16569,6,-0.2265625,0.05242919921875,0.89129638671875
1759858255843,1045988141,16569,7,-0.229736328125,0.06317138671875,0.93450927734375
1759858255843,1045988141,16569,8,-0.224853515625,0.04632568359375,0.91522216796875
1759858255843,1045988141,16569,9,-0.22900390625,0.06121826171875,0.89837646484375
1759858255843,1045988141,16569,10,-0.22265625,0.06536865234375,0.90277099609375
1759858255843,1045988141,16569,11,-0.23095703125,0.05462646484375,0.94134521484375
1759858255843,1045988141,16569,12,-0.251953125,0.08197021484375,0.89520263671875
1759858255843,1045988141,16569,13,-0.240966796875,0.07977294921875,0.91229248046875
1759858255843,1045988141,16569,14,-0.235107421875,0.06561279296875,0.92205810546875
1759858255843,1045988141,16569,15,-0.23291015625,0.06585693359375,0.91229248046875
1759858255843,1045988141,16569,16,-0.231201171875,0.03802490234375,0.92010498046875
1759858255843,1045988141,16569,17,-0.199951171875,0.04241943359375,0.92376708984375
1759858255843,1045988141,16569,18,-0.208740234375,0.03533935546875,0.92205810546875
1759858255843,1045988141,16569,19,-0.2177734375,0.03631591796875,0.92010498046875
1759858255843,1045988141,16569,20,-0.208740234375,0.04022216796875,0.91717529296875
1759858255843,1045988141,16569,21,-0.21435546875,0.04510498046875,0.91766357421875
1759858255843,1045988141,16569,22,-0.2333984375,0.03582763671875,0.94940185546875
1759858255843,1045988141,16569,23,-0.255126953125,0.02044677734375,0.93865966796875
1759858255843,1045988141,16569,24,-0.188232421875,0.05975341796875,0.86737060546875
1759858255843,1045988141,16569,25,-0.205322265625,0.08905029296875,0.89178466796875
1759858255843,1045988141,16569,26,-0.23876953125,0.02410888671875,0.92376708984375
1759858255843,1045988141,16569,27,-0.248291015625,0.03948974609375,0.92645263671875
1759858255843,1045988141,16569,28,-0.25439453125,0.03436279296875,0.94866943359375
1759858255843,1045988141,16569,29,-0.20068359375,0.05511474609375,0.91522216796875
1759858255843,1045988141,16569,30,-0.2529296875,0.11810302734375,0.91302490234375
1759858255843,1045988141,16569,31,-0.195068359375,0.09588623046875,0.91815185546875
1759858258365,1045990654,16570,0,-0.162109375,0.09515380859375,0.91644287109375
1759858258365,1045990654,16570,1,-0.135498046875,0.11737060546875,0.90203857421875
1759858258365,1045990654,16570,2,-0.18115234375,0.12835693359375,0.91009521484375
1759858258365,1045990654,16570,3,-0.220947265625,0.14471435546875,0.88592529296875
1759858258365,1045990654,16570,4,-0.204833984375,0.13372802734375,0.87054443359375
1759858258365,1045990654,16570,5,-0.18359375,0.11639404296875,0.82464599609375
1759858258365,1045990654,16570,6,-0.159912109375,0.16473388671875,0.89129638671875
1759858258365,1045990654,16570,7,-0.34716796875,0.01019287109375,1.08294677734375
1759858258365,1045990654,16570,8,-0.24072265625,-0.02227783203125,0.87762451171875
1759858258365,1045990654,16570,9,-0.23828125,0.15570068359375,0.84661865234375
1759858258365,1045990654,16570,10,-0.24853515625,0.06219482421875,1.00701904296875
1759858258365,1045990654,16570,11,-0.243896484375,0.05731201171875,0.89056396484375
1759858258365,1045990654,16570,12,-0.23095703125,0.10711669921875,0.86053466796875
1759858258365,1045990654,16570,13,-0.229736328125,0.11859130859375,0.91180419921875
1759858258365,1045990654,16570,14,-0.240234375,0.08831787109375,0.91644287109375
1759858258365,1045990654,16570,15,-0.234619140625,0.08929443359375,0.92303466796875
1759858258365,1045990654,16570,16,-0.208740234375,0.07513427734375,0.91497802734375
1759858258365,1045990654,16570,17,-0.22900390625,0.13201904296875,0.92987060546875
1759858258365,1045990654,16570,18,-0.208984375,0.08758544921875,0.89276123046875
1759858258365,1045990654,16570,19,-0.235107421875,0.08953857421875,0.87933349609375
1759858258365,1045990654,16570,20,-0.180908203125,0.11199951171875,0.82049560546875
1759858258365,1045990654,16570,21,-0.216552734375,0.07366943359375,0.96722412109375
1759858258365,1045990654,16570,22,-0.319091796875,0.01214599609375,1.02166748046875
1759858258365,1045990654,16570,23,-0.2724609375,0.02337646484375,0.88641357421875
1759858258365,1045990654,16570,24,-0.25927734375,0.10760498046875,0.82220458984375
1759858258365,1045990654,16570,25,-0.24755859375,0.10687255859375,0.88372802734375
1759858258365,1045990654,16570,26,-0.259033203125,0.04852294921875,0.94720458984375
1759858258365,1045990654,16570,27,-0.268310546875,0.05340576171875,0.90008544921875
1759858258365,1045990654,16570,28,-0.232177734375,0.07489013671875,0.84637451171875
1759858258365,1045990654,16570,29,-0.22900390625,0.06634521484375,0.91253662109375
1759858258365,1045990654,16570,30,-0.285400390625,0.02972412109375,0.98358154296875
1759858258365,1045990654,16570,31,-0.27880859375,-0.00201416015625,0.98358154296875
1759858260884,1045993167,16571,0,-0.218505859375,0.02264404296875,0.90203857421875
1759858260884,1045993167,16571,1,-0.216796875,0.09661865234375,0.90618896484375
1759858260884,1045993167,16571,2,-0.193359375,0.13079833984375,0.88909912109375
1759858260884,1045993167,16571,3,-0.2041015625,0.13323974609375,0.90081787109375
1759858260884,1045993167,16571,4,-0.236328125,0.12640380859375,0.88323974609375
1759858260884,1045993167,16571,5,-0.20263671875,0.11468505859375,0.77410888671875
1759858260884,1045993167,16571,6,-0.218017578125,0.12322998046875,0.94573974609375
1759858260884,1045993167,16571,7,-0.287353515625,-0.01422119140625,0.99041748046875
1759858260884,1045993167,16571,8,-0.292236328125,-0.00811767578125,0.97137451171875
1759858260884,1045993167,16571,9,-0.244873046875,0.09100341796875,0.87420654296875
1759858260884,1045993167,16571,10,-0.241943359375,0.09173583984375,0.90374755859375
1759858260884,1045993167,16571,11,-0.260986328125,0.08221435546875,0.86517333984375
1759858260884,1045993167,16571,12,-0.1943359375,0.09881591796875,0.80169677734375
1759858260884,1045993167,16571,13,-0.30126953125,0.06439208984375,0.99310302734375
1759858260884,1045993167,16571,14,-0.271240234375,-0.00543212890625,0.96942138671875
1759858260884,1045993167,16571,15,-0.273193359375,0.03948974609375,0.94256591796875
1759858260884,1045993167,16571,16,-0.260986328125,0.06561279296875,0.88323974609375
1759858260884,1045993167,16571,17,-0.22216796875,0.06732177734375,0.89276123046875
1759858260884,1045993167,16571,18,-0.237060546875,0.06097412109375,0.93743896484375
1759858260884,1045993167,16571,19,-0.249267578125,0.11712646484375,0.88568115234375
1759858260884,1045993167,16571,20,-0.219482421875,0.12445068359375,0.89837646484375
1759858260884,1045993167,16571,21,-0.237548828125,0.12396240234375,0.89813232421875
1759858260884,1045993167,16571,22,-0.236328125,0.12152099609375,0.88079833984375
1759858260884,1045993167,16571,23,-0.1982421875,0.10833740234375,0.80291748046875
1759858260884,1045993167,16571,24,-0.22119140625,0.11224365234375,0.94305419921875
1759858260884,1045993167,16571,25,-0.30712890625,-0.03643798828125,1.03704833984375
1759858260884,1045993167,16571,26,-0.248046875,0.00653076171875,0.88812255859375
1759858260884,1045993167,16571,27,-0.265869140625,0.07952880859375,0.86614990234375
1759858260884,1045993167,16571,28,-0.236083984375,0.11395263671875,0.88543701171875
1759858260884,1045993167,16571,29,-0.246337890625,0.06048583984375,0.93377685546875
1759858260884,1045993167,16571,30,-0.278564453125,0.04266357421875,0.90521240234375
1759858260884,1045993167,16571,31,-0.2529296875,0.05340576171875,0.92303466796875
1759858263405,1045995686,16572,0,-0.25390625,0.04486083984375,0.93524169921875
1759858263405,1045995686,16572,1,-0.231201171875,0.04534912109375,0.92840576171875
1759858263405,1045995686,16572,2,-0.2392578125,0.10345458984375,0.88958740234375
1759858263405,1045995686,16572,3,-0.23388671875,0.12298583984375,0.87664794921875
1759858263405,1045995686,16572,4,-0.244140625,0.10418701171875,0.88153076171875
1759858263405,1045995686,16572,5,-0.257568359375,0.09075927734375,0.88519287109375
1759858263405,1045995686,16572,6,-0.235595703125,0.05926513671875,0.88787841796875
1759858263405,1045995686,16572,7,-0.195556640625,0.08807373046875,0.90228271484375
1759858263405,1045995686,16572,8,-0.3603515625,-0.06842041015625,1.01507568359375
1759858263405,1045995686,16572,9,-0.26123046875,0.00262451171875,0.88616943359375
1759858263405,1045995686,16572,10,-0.229736328125,0.08294677734375,0.85394287109375
1759858263405,1045995686,16572,11,-0.26318359375,0.00408935546875,0.93304443359375
1759858263405,1045995686,16572,12,-0.27490234375,-0.05889892578125,0.93328857421875
1759858263405,1045995686,16572,13,-0.265380859375,0.02239990234375,0.90057373046875
1759858263405,1045995686,16572,14,-0.25927734375,-0.00860595703125,0.91864013671875
1759858263405,1045995686,16572,15,-0.25927734375,-0.02032470703125,0.91156005859375
1759858263405,1045995686,16572,16,-0.25634765625,-0.00274658203125,0.91253662109375
1759858263405,1045995686,16572,17,-0.268798828125,-0.00909423828125,0.92596435546875
1759858263405,1045995686,16572,18,-0.24169921875,0.02410888671875,0.90399169921875
1759858263405,1045995686,16572,19,-0.259033203125,0.01751708984375,0.90740966796875
1759858263405,1045995686,16572,20,-0.261474609375,0.00946044921875,0.91253662109375
1759858263405,1045995686,16572,21,-0.2490234375,0.00946044921875,0.90667724609375
1759858263405,1045995686,16572,22,-0.24462890625,0.00823974609375,0.91937255859375
1759858263405,1045995686,16572,23,-0.300048828125,0.02679443359375,0.97430419921875
1759858263405,1045995686,16572,24,-0.271240234375,0.01556396484375,0.92376708984375
1759858263405,1045995686,16572,25,-0.253173828125,0.04754638671875,0.93084716796875
1759858263405,1045995686,16572,26,-0.21728515625,0.09686279296875,0.88226318359375
1759858263405,1045995686,16572,27,-0.224365234375,0.18865966796875,0.85296630859375
1759858263405,1045995686,16572,28,-0.27099609375,0.15032958984375,0.87689208984375
1759858263405,1045995686,16572,29,-0.2802734375,0.12152099609375,0.85467529296875
1759858263405,1045995686,16572,30,-0.232177734375,0.15203857421875,0.79193115234375
1759858263405,1045995686,16572,31,-0.2998046875,0.06439208984375,0.97821044921875
1759858265924,1045998199,16573,0,-0.25634765625,-0.07550048828125,1.00067138671875
1759858265924,1045998199,16573,1,-0.25537109375,0.07757568359375,0.89178466796875
1759858265924,1045998199,16573,2,-0.274169921875,0.08782958984375,0.86199951171875
1759858265924,1045998199,16573,3,-0.305419921875,0.05511474609375,0.93328857421875
1759858265924,1045998199,16573,4,-0.28369140625,0.03680419921875,0.89886474609375
1759858265924,1045998199,16573,5,-0.282958984375,0.05169677734375,0.88201904296875
1759858265924,1045998199,16573,6,-0.2841796875,0.07342529296875,0.89105224609375
1759858265924,1045998199,16573,7,-0.281005859375,0.04632568359375,0.90203857421875
1759858265924,1045998199,16573,8,-0.27978515625,0.05487060546875,0.87811279296875
1759858265924,1045998199,16573,9,-0.291015625,0.02874755859375,0.91937255859375
1759858265924,1045998199,16573,10,-0.2939453125,0.00994873046875,0.95086669921875
1759858265924,1045998199,16573,11,-0.27197265625,-0.02984619140625,1.01751708984375
1759858265924,1045998199,16573,12,-0.259765625,0.09564208984375,0.85736083984375
1759858265924,1045998199,16573,13,-0.259521484375,0.15911865234375,0.83294677734375
1759858265924,1045998199,16573,14,-0.299560546875,0.12420654296875,0.86126708984375
1759858265924,1045998199,16573,15,-0.27294921875,0.09515380859375,0.84686279296875
1759858265924,1045998199,16573,16,-0.209716796875,0.09368896484375,0.89105224609375
1759858265924,1045998199,16573,17,-0.286376953125,0.01873779296875,0.95989990234375
1759858265924,1045998199,16573,18,-0.32470703125,-0.01666259765625,0.94598388671875
1759858265924,1045998199,16573,19,-0.292236328125,0.00067138671875,0.90545654296875
1759858265924,1045998199,16573,20,-0.26806640625,0.02557373046875,0.89715576171875
1759858265924,1045998199,16573,21,-0.28955078125,0.02825927734375,0.89788818359375
1759858265924,1045998199,16573,22,-0.296630859375,0.05462646484375,0.85076904296875
