receivedPhoneTimestamp,respeckTimestamp,packetSeqNum,sampleSeqNum,accelX,accelY,accelZ
1759846533816,969862628,60952,16,0.0791015625,-0.04571533203125,-1.02227783203125
1759846533816,969862628,60952,17,0.089111328125,-0.04547119140625,-1.01861572265625
1759846533816,969862628,60952,18,0.08740234375,-0.04156494140625,-1.02349853515625
1759846533816,969862628,60952,19,0.0947265625,-0.04620361328125,-1.02984619140625
1759846533816,969862628,60952,20,0.1044921875,-0.04815673828125,-1.01837158203125
1759846533816,969862628,60952,21,0.113525390625,-0.04766845703125,-1.01348876953125
1759846533816,969862628,60952,22,0.109619140625,-0.04473876953125,-1.01739501953125
1759846533816,969862628,60952,23,0.093994140625,-0.04083251953125,-1.03643798828125
1759846533816,969862628,60952,24,0.100830078125,-0.05401611328125,-1.03057861328125
1759846533816,969862628,60952,25,0.152587890625,-0.06207275390625,-0.99029541015625
1759846533816,969862628,60952,26,0.155517578125,-0.06964111328125,-0.99591064453125
1759846533816,969862628,60952,27,0.15966796875,-0.06256103515625,-1.00787353515625
1759846533816,969862628,60952,28,0.1455078125,-0.06134033203125,-1.00738525390625
1759846533816,969862628,60952,29,0.123779296875,-0.05523681640625,-1.02642822265625
1759846533816,969862628,60952,30,0.113037109375,-0.05401611328125,-1.01739501953125
1759846533816,969862628,60952,31,0.108154296875,-0.04766845703125,-1.01690673828125
1759846536336,969865171,60953,0,0.105712890625,-0.04107666015625,-1.02154541015625
1759846536336,969865171,60953,1,0.11328125,-0.04229736328125,-1.01983642578125
1759846536336,969865171,60953,2,0.111083984375,-0.04034423828125,-1.01983642578125
1759846536336,969865171,60953,3,0.109619140625,-0.03472900390625,-1.02545166015625
1759846536336,969865171,60953,4,0.111572265625,-0.03375244140625,-1.01666259765625
1759846536336,969865171,60953,5,0.114501953125,-0.03619384765625,-1.01861572265625
1759846536336,969865171,60953,6,0.112548828125,-0.03497314453125,-1.02056884765625
1759846536336,969865171,60953,7,0.11279296875,-0.03570556640625,-1.01788330078125
1759846536336,969865171,60953,8,0.1103515625,-0.03033447265625,-1.01910400390625
1759846536336,969865171,60953,9,0.111083984375,-0.03179931640625,-1.01983642578125
1759846536336,969865171,60953,10,0.112060546875,-0.03326416015625,-1.01837158203125
1759846536336,969865171,60953,11,0.116943359375,-0.03302001953125,-1.01910400390625
1759846536336,969865171,60953,12,0.114990234375,-0.03253173828125,-1.01885986328125
1759846536336,969865171,60953,13,0.115966796875,-0.03472900390625,-1.01861572265625
1759846536336,969865171,60953,14,0.115478515625,-0.03228759765625,-1.01983642578125
1759846536336,969865171,60953,15,0.116455078125,-0.03179931640625,-1.01617431640625
1759846536336,969865171,60953,16,0.114501953125,-0.03302001953125,-1.01910400390625
1759846536336,969865171,60953,17,0.115478515625,-0.03448486328125,-1.01617431640625
1759846536336,969865171,60953,18,0.11474609375,-0.03594970703125,-1.02008056640625
1759846536336,969865171,60953,19,0.11669921875,-0.03497314453125,-1.01885986328125
1759846536336,969865171,60953,20,0.11865234375,-0.03570556640625,-1.02178955078125
1759846536336,969865171,60953,21,0.12451171875,-0.04351806640625,-1.01666259765625
1759846536336,969865171,60953,22,0.124755859375,-0.04718017578125,-1.01641845703125
1759846536336,969865171,60953,23,0.126708984375,-0.04888916015625,-1.02056884765625
1759846536336,969865171,60953,24,0.12841796875,-0.04327392578125,-1.01959228515625
1759846536336,969865171,60953,25,0.14697265625,-0.04840087890625,-1.01739501953125
1759846536336,969865171,60953,26,0.163330078125,-0.05157470703125,-1.00787353515625
1759846536336,969865171,60953,27,0.179443359375,-0.05621337890625,-1.00054931640625
1759846536336,969865171,60953,28,0.173828125,-0.05718994140625,-1.00616455078125
1759846536336,969865171,60953,29,0.172607421875,-0.05621337890625,-1.01031494140625
1759846536336,969865171,60953,30,0.17041015625,-0.05450439453125,-1.00762939453125
1759846536336,969865171,60953,31,0.16650390625,-0.05645751953125,-1.01300048828125
1759846538853,969867715,60954,0,0.1669921875,-0.05548095703125,-1.01275634765625
1759846538853,969867715,60954,1,0.1708984375,-0.05889892578125,-1.00640869140625
1759846538853,969867715,60954,2,0.157470703125,-0.05767822265625,-1.01715087890625
1759846538853,969867715,60954,3,0.1611328125,-0.05352783203125,-1.01544189453125
1759846538853,969867715,60954,4,0.1640625,-0.05816650390625,-1.00738525390625
1759846538853,969867715,60954,5,0.160400390625,-0.05645751953125,-1.01153564453125
1759846538853,969867715,60954,6,0.162353515625,-0.05621337890625,-1.00762939453125
1759846538853,969867715,60954,7,0.1591796875,-0.05596923828125,-1.01422119140625
1759846538853,969867715,60954,8,0.1591796875,-0.05792236328125,-1.01275634765625
1759846538853,969867715,60954,9,0.155517578125,-0.05694580078125,-1.00933837890625
1759846538853,969867715,60954,10,0.1552734375,-0.05670166015625,-1.01202392578125
1759846538853,969867715,60954,11,0.154052734375,-0.05670166015625,-1.01226806640625
1759846538853,969867715,60954,12,0.1533203125,-0.06060791015625,-1.01568603515625
1759846538853,969867715,60954,13,0.159912109375,-0.06329345703125,-1.01495361328125
1759846538853,969867715,60954,14,0.162109375,-0.06158447265625,-1.01080322265625
1759846538853,969867715,60954,15,0.158935546875,-0.05865478515625,-1.00860595703125
1759846538853,969867715,60954,16,0.159423828125,-0.05743408203125,-1.00958251953125
1759846538853,969867715,60954,17,0.159423828125,-0.05670166015625,-1.01153564453125
1759846538853,969867715,60954,18,0.1572265625,-0.05792236328125,-1.01348876953125
1759846538853,969867715,60954,19,0.158203125,-0.05548095703125,-1.01177978515625
1759846538853,969867715,60954,20,0.160400390625,-0.05474853515625,-1.01007080078125
1759846538853,969867715,60954,21,0.155029296875,-0.05523681640625,-1.01690673828125
1759846538853,969867715,60954,22,0.152587890625,-0.05572509765625,-1.01446533203125
1759846538853,969867715,60954,23,0.156982421875,-0.05499267578125,-1.01080322265625
1759846538853,969867715,60954,24,0.15966796875,-0.05352783203125,-1.01031494140625
1759846538853,969867715,60954,25,0.160400390625,-0.05328369140625,-1.01275634765625
1759846538853,969867715,60954,26,0.15771484375,-0.05548095703125,-1.00616455078125
1759846538853,969867715,60954,27,0.149658203125,-0.05377197265625,-1.01666259765625
1759846538853,969867715,60954,28,0.1533203125,-0.05767822265625,-1.01324462890625
1759846538853,969867715,60954,29,0.160400390625,-0.05743408203125,-1.01446533203125
1759846538853,969867715,60954,30,0.16357421875,-0.05474853515625,-1.01177978515625
1759846538853,969867715,60954,31,0.16357421875,-0.05084228515625,-1.01275634765625
1759846541374,969870258,60955,0,0.167236328125,-0.05548095703125,-1.00762939453125
1759846541374,969870258,60955,1,0.165283203125,-0.05767822265625,-1.01153564453125
1759846541374,969870258,60955,2,0.166748046875,-0.05548095703125,-1.01031494140625
1759846541374,969870258,60955,3,0.1650390625,-0.05743408203125,-1.00592041015625
1759846541374,969870258,60955,4,0.164794921875,-0.05645751953125,-1.00714111328125
1759846541374,969870258,60955,5,0.154296875,-0.05523681640625,-1.01788330078125
1759846541374,969870258,60955,6,0.1552734375,-0.05865478515625,-1.01568603515625
1759846541374,969870258,60955,7,0.158447265625,-0.06060791015625,-1.01593017578125
1759846541374,969870258,60955,8,0.158203125,-0.05767822265625,-1.01348876953125
1759846541374,969870258,60955,9,0.159423828125,-0.05279541015625,-1.01397705078125
1759846541374,969870258,60955,10,0.1640625,-0.05426025390625,-1.00909423828125
1759846541374,969870258,60955,11,0.162841796875,-0.05792236328125,-1.00933837890625
1759846541374,969870258,60955,12,0.1611328125,-0.05889892578125,-1.00738525390625
1759846541374,969870258,60955,13,0.151611328125,-0.05303955078125,-1.01617431640625
1759846541374,969870258,60955,14,0.151123046875,-0.05889892578125,-1.01763916015625
1759846541374,969870258,60955,15,0.1513671875,-0.06207275390625,-1.01177978515625
1759846541374,969870258,60955,16,0.154296875,-0.05596923828125,-1.01055908203125
1759846541374,969870258,60955,17,0.1533203125,-0.05426025390625,-1.01177978515625
1759846541374,969870258,60955,18,0.15576171875,-0.05718994140625,-1.01275634765625
1759846541374,969870258,60955,19,0.151611328125,-0.05889892578125,-1.00909423828125
1759846541374,969870258,60955,20,0.155029296875,-0.05718994140625,-1.00958251953125
1759846541374,969870258,60955,21,0.1513671875,-0.05816650390625,-1.01885986328125
1759846541374,969870258,60955,22,0.14990234375,-0.06329345703125,-1.01251220703125
1759846541374,969870258,60955,23,0.151611328125,-0.06158447265625,-1.01348876953125
1759846541374,969870258,60955,24,0.15380859375,-0.05914306640625,-1.00836181640625
1759846541374,969870258,60955,25,0.1552734375,-0.05621337890625,-1.01300048828125
1759846541374,969870258,60955,26,0.154052734375,-0.05841064453125,-1.01348876953125
1759846541374,969870258,60955,27,0.154052734375,-0.06085205078125,-1.01300048828125
1759846541374,969870258,60955,28,0.14990234375,-0.05645751953125,-1.01593017578125
1759846541374,969870258,60955,29,0.148193359375,-0.05694580078125,-1.01275634765625
1759846541374,969870258,60955,30,0.153076171875,-0.05645751953125,-1.01397705078125
1759846541374,969870258,60955,31,0.150634765625,-0.05914306640625,-1.01202392578125
1759846543894,969872801,60956,0,0.15380859375,-0.05914306640625,-1.01373291015625
1759846543894,969872801,60956,1,0.154541015625,-0.05914306640625,-1.01300048828125
1759846543894,969872801,60956,2,0.154296875,-0.05767822265625,-1.01519775390625
1759846543894,969872801,60956,3,0.154052734375,-0.05767822265625,-1.01519775390625
1759846543894,969872801,60956,4,0.158203125,-0.05865478515625,-1.01446533203125
1759846543894,969872801,60956,5,0.16015625,-0.05841064453125,-1.01422119140625
1759846543894,969872801,60956,6,0.154296875,-0.05718994140625,-1.01373291015625
1759846543894,969872801,60956,7,0.156982421875,-0.05889892578125,-1.01251220703125
1759846543894,969872801,60956,8,0.15283203125,-0.06036376953125,-1.01446533203125
1759846543894,969872801,60956,9,0.15283203125,-0.06134033203125,-1.01177978515625
1759846543894,969872801,60956,10,0.153076171875,-0.05987548828125,-1.01348876953125
1759846543894,969872801,60956,11,0.1533203125,-0.05816650390625,-1.01324462890625
1759846543894,969872801,60956,12,0.154296875,-0.05767822265625,-1.01324462890625
1759846543894,969872801,60956,13,0.155517578125,-0.05963134765625,-1.01251220703125
1759846543894,969872801,60956,14,0.1552734375,-0.05963134765625,-1.00909423828125
1759846543894,969872801,60956,15,0.156982421875,-0.05938720703125,-1.01129150390625
1759846543894,969872801,60956,16,0.154052734375,-0.06329345703125,-1.01202392578125
1759846543894,969872801,60956,17,0.15234375,-0.05987548828125,-1.01470947265625
1759846543894,969872801,60956,18,0.156494140625,-0.05548095703125,-1.01446533203125
1759846543894,969872801,60956,19,0.16748046875,-0.05279541015625,-1.00738525390625
1759846543894,969872801,60956,20,0.166748046875,-0.04962158203125,-1.00860595703125
1759846543894,969872801,60956,21,0.164306640625,-0.05328369140625,-1.00982666015625
1759846543894,969872801,60956,22,0.156982421875,-0.05401611328125,-1.01104736328125
1759846543894,969872801,60956,23,0.152099609375,-0.05596923828125,-1.01129150390625
1759846543894,969872801,60956,24,0.14990234375,-0.05914306640625,-1.01617431640625
1759846543894,969872801,60956,25,0.15087890625,-0.05914306640625,-1.01470947265625
1759846543894,969872801,60956,26,0.15673828125,-0.05743408203125,-1.01324462890625
1759846543894,969872801,60956,27,0.16064453125,-0.05694580078125,-1.01300048828125
1759846543894,969872801,60956,28,0.164306640625,-0.05963134765625,-1.00787353515625
1759846543894,969872801,60956,29,0.162353515625,-0.05889892578125,-1.01031494140625
1759846543894,969872801,60956,30,0.162353515625,-0.05718994140625,-1.01129150390625
1759846543894,969872801,60956,31,0.155029296875,-0.05694580078125,-1.01593017578125
1759846546414,969875344,60957,0,0.167236328125,-0.05694580078125,-1.00665283203125
1759846546414,969875344,60957,1,0.1708984375,-0.05743408203125,-1.01007080078125
1759846546414,969875344,60957,2,0.1689453125,-0.05767822265625,-1.00909423828125
1759846546414,969875344,60957,3,0.17236328125,-0.05792236328125,-1.00787353515625
1759846546414,969875344,60957,4,0.1708984375,-0.05816650390625,-1.00860595703125
1759846546414,969875344,60957,5,0.166015625,-0.05816650390625,-1.01397705078125
1759846546414,969875344,60957,6,0.15673828125,-0.05645751953125,-1.01934814453125
1759846546414,969875344,60957,7,0.16845703125,-0.06085205078125,-1.00933837890625
1759846546414,969875344,60957,8,0.168212890625,-0.05987548828125,-1.01153564453125
1759846546414,969875344,60957,9,0.169921875,-0.05914306640625,-1.00933837890625
1759846546414,969875344,60957,10,0.170654296875,-0.05987548828125,-1.00860595703125
1759846546414,969875344,60957,11,0.170166015625,-0.05841064453125,-1.01153564453125
1759846546414,969875344,60957,12,0.172119140625,-0.05865478515625,-1.01153564453125
1759846546414,969875344,60957,13,0.176513671875,-0.06231689453125,-1.00640869140625
1759846546414,969875344,60957,14,0.183837890625,-0.06280517578125,-1.00274658203125
1759846546414,969875344,60957,15,0.18505859375,-0.06158447265625,-1.00543212890625
1759846546414,969875344,60957,16,0.183837890625,-0.06182861328125,-1.00860595703125
1759846546414,969875344,60957,17,0.178955078125,-0.05938720703125,-1.00762939453125
1759846546414,969875344,60957,18,0.181640625,-0.06036376953125,-1.01397705078125
1759846546414,969875344,60957,19,0.187255859375,-0.06500244140625,-1.00299072265625
1759846546414,969875344,60957,20,0.184814453125,-0.06597900390625,-1.00103759765625
1759846546414,969875344,60957,21,0.178955078125,-0.06524658203125,-1.01080322265625
1759846546414,969875344,60957,22,0.177490234375,-0.06329345703125,-1.00592041015625
1759846546414,969875344,60957,23,0.18798828125,-0.06793212890625,-1.00396728515625
1759846546414,969875344,60957,24,0.18994140625,-0.06939697265625,-1.00274658203125
1759846546414,969875344,60957,25,0.18505859375,-0.06719970703125,-1.00958251953125
1759846546414,969875344,60957,26,0.18212890625,-0.06597900390625,-1.00714111328125
1759846546414,969875344,60957,27,0.184326171875,-0.06793212890625,-1.00323486328125
1759846546414,969875344,60957,28,0.180419921875,-0.06817626953125,-1.00933837890625
1759846546414,969875344,60957,29,0.18017578125,-0.06622314453125,-1.00787353515625
1759846546414,969875344,60957,30,0.17626953125,-0.06549072265625,-1.00860595703125
1759846546414,969875344,60957,31,0.177001953125,-0.06597900390625,-1.00885009765625
1759846549114,969877887,60958,0,0.18017578125,-0.06768798828125,-1.00616455078125
1759846549114,969877887,60958,1,0.18359375,-0.06793212890625,-1.00958251953125
1759846549114,969877887,60958,2,0.187744140625,-0.06915283203125,-1.00274658203125
1759846549114,969877887,60958,3,0.19189453125,-0.06988525390625,-1.00152587890625
1759846549114,969877887,60958,4,0.185302734375,-0.06890869140625,-1.00323486328125
1759846549114,969877887,60958,5,0.1650390625,-0.06768798828125,-1.01422119140625
1759846549114,969877887,60958,6,0.164794921875,-0.06988525390625,-1.01837158203125
1759846549114,969877887,60958,7,0.175048828125,-0.06768798828125,-1.00885009765625
1759846549114,969877887,60958,8,0.18408203125,-0.06646728515625,-1.00103759765625
1759846549114,969877887,60958,9,0.1767578125,-0.06695556640625,-1.00738525390625
1759846549114,969877887,60958,10,0.171875,-0.06671142578125,-1.01422119140625
1759846549114,969877887,60958,11,0.17578125,-0.06793212890625,-1.00640869140625
1759846549114,969877887,60958,12,0.1787109375,-0.06744384765625,-1.00469970703125
1759846549114,969877887,60958,13,0.16845703125,-0.06915283203125,-1.01446533203125
1759846549114,969877887,60958,14,0.169921875,-0.07232666015625,-1.00933837890625
1759846549114,969877887,60958,15,0.170166015625,-0.07305908203125,-1.01153564453125
1759846549114,969877887,60958,16,0.1689453125,-0.07061767578125,-1.01226806640625
1759846549114,969877887,60958,17,0.173828125,-0.06597900390625,-1.01055908203125
1759846549114,969877887,60958,18,0.17041015625,-0.06500244140625,-1.00811767578125
1759846549114,969877887,60958,19,0.16748046875,-0.06793212890625,-1.00860595703125
1759846549114,969877887,60958,20,0.166259765625,-0.06964111328125,-1.01348876953125
1759846549114,969877887,60958,21,0.165283203125,-0.07232666015625,-1.01104736328125
1759846549114,969877887,60958,22,0.164794921875,-0.07061767578125,-1.00933837890625
1759846549114,969877887,60958,23,0.167236328125,-0.06622314453125,-1.01202392578125
1759846549114,969877887,60958,24,0.16845703125,-0.06475830078125,-1.01177978515625
1759846549114,969877887,60958,25,0.16845703125,-0.06744384765625,-1.00762939453125
1759846549114,969877887,60958,26,0.169189453125,-0.06793212890625,-1.00860595703125
1759846549114,969877887,60958,27,0.165283203125,-0.06500244140625,-1.01300048828125
1759846549114,969877887,60958,28,0.16455078125,-0.06768798828125,-1.01226806640625
1759846549114,969877887,60958,29,0.163330078125,-0.06793212890625,-1.01153564453125
1759846549114,969877887,60958,30,0.1640625,-0.06817626953125,-1.01300048828125
1759846549114,969877887,60958,31,0.16455078125,-0.06744384765625,-1.00933837890625
1759846551634,969880430,60959,0,0.163818359375,-0.06768798828125,-1.01226806640625
1759846551634,969880430,60959,1,0.163330078125,-0.06597900390625,-1.00958251953125
1759846551634,969880430,60959,2,0.16015625,-0.06573486328125,-1.01348876953125
1759846551634,969880430,60959,3,0.160400390625,-0.06573486328125,-1.00909423828125
1759846551634,969880430,60959,4,0.1591796875,-0.06622314453125,-1.01080322265625
1759846551634,969880430,60959,5,0.1572265625,-0.06646728515625,-1.01226806640625
1759846551634,969880430,60959,6,0.155029296875,-0.06842041015625,-1.01446533203125
1759846551634,969880430,60959,7,0.15625,-0.07037353515625,-1.01226806640625
1759846551634,969880430,60959,8,0.159423828125,-0.06842041015625,-1.01104736328125
1759846551634,969880430,60959,9,0.15478515625,-0.06719970703125,-1.01324462890625
1759846551634,969880430,60959,10,0.150390625,-0.06646728515625,-1.01544189453125
1759846551634,969880430,60959,11,0.15087890625,-0.06597900390625,-1.01519775390625
1759846551634,969880430,60959,12,0.152099609375,-0.06817626953125,-1.01470947265625
1759846551634,969880430,60959,13,0.154296875,-0.06573486328125,-1.01202392578125
1759846551634,969880430,60959,14,0.153564453125,-0.06671142578125,-1.01153564453125
1759846551634,969880430,60959,15,0.154296875,-0.06378173828125,-1.00933837890625
1759846551634,969880430,60959,16,0.1552734375,-0.06597900390625,-1.01324462890625
1759846551634,969880430,60959,17,0.15625,-0.06549072265625,-1.01275634765625
1759846551634,969880430,60959,18,0.1533203125,-0.06842041015625,-1.01422119140625
1759846551634,969880430,60959,19,0.154052734375,-0.06719970703125,-1.00982666015625
1759846551634,969880430,60959,20,0.1533203125,-0.06256103515625,-1.01348876953125
1759846551634,969880430,60959,21,0.156982421875,-0.06134033203125,-1.01422119140625
1759846551634,969880430,60959,22,0.155029296875,-0.06158447265625,-1.01544189453125
1759846551634,969880430,60959,23,0.154052734375,-0.06207275390625,-1.01275634765625
1759846551634,969880430,60959,24,0.156005859375,-0.06427001953125,-1.01275634765625
1759846551634,969880430,60959,25,0.153564453125,-0.06256103515625,-1.01275634765625
1759846551634,969880430,60959,26,0.1572265625,-0.06597900390625,-1.01080322265625
1759846551634,969880430,60959,27,0.15478515625,-0.06671142578125,-1.01324462890625
1759846551634,969880430,60959,28,0.15234375,-0.06427001953125,-1.01202392578125
1759846551634,969880430,60959,29,0.152587890625,-0.06378173828125,-1.01104736328125
1759846551634,969880430,60959,30,0.15380859375,-0.06427001953125,-1.01666259765625
1759846551634,969880430,60959,31,0.160888671875,-0.06524658203125,-1.00909423828125
1759846554154,969882973,60960,0,0.1640625,-0.06402587890625,-1.01275634765625
1759846554154,969882973,60960,1,0.157958984375,-0.06402587890625,-1.01470947265625
1759846554154,969882973,60960,2,0.164794921875,-0.06353759765625,-1.01177978515625
1759846554154,969882973,60960,3,0.16357421875,-0.06256103515625,-1.01251220703125
1759846554154,969882973,60960,4,0.163330078125,-0.06402587890625,-1.00592041015625
1759846554154,969882973,60960,5,0.158447265625,-0.06402587890625,-1.01007080078125
1759846554154,969882973,60960,6,0.15234375,-0.06085205078125,-1.01129150390625
1759846554154,969882973,60960,7,0.15283203125,-0.06182861328125,-1.01470947265625
1759846554154,969882973,60960,8,0.14990234375,-0.06158447265625,-1.01397705078125
1759846554154,969882973,60960,9,0.15234375,-0.06182861328125,-1.01397705078125
1759846554154,969882973,60960,10,0.15283203125,-0.06500244140625,-1.01519775390625
1759846554154,969882973,60960,11,0.154296875,-0.06475830078125,-1.01031494140625
1759846554154,969882973,60960,12,0.154296875,-0.06207275390625,-1.01324462890625
1759846554154,969882973,60960,13,0.15234375,-0.06182861328125,-1.01300048828125
1759846554154,969882973,60960,14,0.15234375,-0.06280517578125,-1.01275634765625
1759846554154,969882973,60960,15,0.154296875,-0.06280517578125,-1.01104736328125
1759846554154,969882973,60960,16,0.154052734375,-0.05987548828125,-1.01348876953125
1759846554154,969882973,60960,17,0.156494140625,-0.06304931640625,-1.01007080078125
1759846554154,969882973,60960,18,0.15234375,-0.06378173828125,-1.00958251953125
1759846554154,969882973,60960,19,0.15234375,-0.06329345703125,-1.01104736328125
1759846554154,969882973,60960,20,0.15380859375,-0.06134033203125,-1.01470947265625
1759846554154,969882973,60960,21,0.154296875,-0.06451416015625,-1.01177978515625
1759846554154,969882973,60960,22,0.15576171875,-0.06622314453125,-1.01129150390625
1759846554154,969882973,60960,23,0.154541015625,-0.06451416015625,-1.01617431640625
1759846554154,969882973,60960,24,0.1552734375,-0.06304931640625,-1.01202392578125
1759846554154,969882973,60960,25,0.15576171875,-0.06427001953125,-1.01031494140625
1759846554154,969882973,60960,26,0.156494140625,-0.06402587890625,-1.01129150390625
1759846554154,969882973,60960,27,0.155029296875,-0.06231689453125,-1.01226806640625
1759846554154,969882973,60960,28,0.155517578125,-0.06378173828125,-1.00958251953125
1759846554154,969882973,60960,29,0.150390625,-0.06622314453125,-1.01177978515625
1759846554154,969882973,60960,30,0.15283203125,-0.06378173828125,-1.01666259765625
1759846554154,969882973,60960,31,0.15478515625,-0.06329345703125,-1.01422119140625
1759846556674,969885516,60961,0,0.15625,-0.06597900390625,-1.00958251953125
1759846556674,969885516,60961,1,0.15478515625,-0.06182861328125,-1.01422119140625
1759846556674,969885516,60961,2,0.1591796875,-0.06500244140625,-1.01202392578125
1759846556674,969885516,60961,3,0.1552734375,-0.06500244140625,-1.01446533203125
1759846556674,969885516,60961,4,0.153564453125,-0.06280517578125,-1.01519775390625
1759846556674,969885516,60961,5,0.155517578125,-0.06524658203125,-1.01422119140625
1759846556674,969885516,60961,6,0.15185546875,-0.06671142578125,-1.00860595703125
1759846556674,969885516,60961,7,0.149169921875,-0.06695556640625,-1.01080322265625
1759846556674,969885516,60961,8,0.155517578125,-0.06793212890625,-1.01251220703125
1759846556674,969885516,60961,9,0.154541015625,-0.06353759765625,-1.01055908203125
1759846556674,969885516,60961,10,0.152099609375,-0.06231689453125,-1.01177978515625
1759846556674,969885516,60961,11,0.153076171875,-0.06231689453125,-1.01422119140625
1759846556674,969885516,60961,12,0.149658203125,-0.06695556640625,-1.01446533203125
1759846556674,969885516,60961,13,0.14794921875,-0.06280517578125,-1.01593017578125
1759846556674,969885516,60961,14,0.145263671875,-0.06256103515625,-1.01568603515625
1759846556674,969885516,60961,15,0.145751953125,-0.06231689453125,-1.01177978515625
1759846556674,969885516,60961,16,0.1376953125,-0.06256103515625,-1.01324462890625
1759846556674,969885516,60961,17,0.13427734375,-0.06402587890625,-1.01666259765625
1759846556674,969885516,60961,18,0.126220703125,-0.06500244140625,-1.01666259765625
1759846556674,969885516,60961,19,0.12548828125,-0.06597900390625,-1.02081298828125
1759846556674,969885516,60961,20,0.13037109375,-0.06256103515625,-1.01739501953125
1759846556674,969885516,60961,21,0.133056640625,-0.06207275390625,-1.01324462890625
1759846556674,969885516,60961,22,0.13525390625,-0.06304931640625,-1.01593017578125
1759846556674,969885516,60961,23,0.134033203125,-0.06256103515625,-1.01568603515625
1759846556674,969885516,60961,24,0.1328125,-0.06207275390625,-1.01617431640625
1759846556674,969885516,60961,25,0.13134765625,-0.06524658203125,-1.01422119140625
1759846556674,969885516,60961,26,0.132080078125,-0.06549072265625,-1.01495361328125
1759846556674,969885516,60961,27,0.135498046875,-0.06231689453125,-1.01446533203125
1759846556674,969885516,60961,28,0.130126953125,-0.06427001953125,-1.01788330078125
1759846556674,969885516,60961,29,0.129150390625,-0.06304931640625,-1.01666259765625
1759846556674,969885516,60961,30,0.134033203125,-0.06597900390625,-1.01470947265625
1759846556674,969885516,60961,31,0.13671875,-0.06158447265625,-1.01544189453125
1759846559195,969888059,60962,0,0.139404296875,-0.06085205078125,-1.01544189453125
1759846559195,969888059,60962,1,0.134765625,-0.06207275390625,-1.01348876953125
1759846559195,969888059,60962,2,0.135986328125,-0.06427001953125,-1.01202392578125
1759846559195,969888059,60962,3,0.135498046875,-0.06329345703125,-1.01690673828125
1759846559195,969888059,60962,4,0.133056640625,-0.06451416015625,-1.01495361328125
1759846559195,969888059,60962,5,0.128662109375,-0.06231689453125,-1.01812744140625
1759846559195,969888059,60962,6,0.130859375,-0.06109619140625,-1.02032470703125
1759846559195,969888059,60962,7,0.13916015625,-0.05963134765625,-1.01519775390625
1759846559195,969888059,60962,8,0.140380859375,-0.06134033203125,-1.01739501953125
1759846559195,969888059,60962,9,0.14306640625,-0.06524658203125,-1.01226806640625
1759846559195,969888059,60962,10,0.1416015625,-0.06451416015625,-1.01544189453125
1759846559195,969888059,60962,11,0.14111328125,-0.06451416015625,-1.01519775390625
1759846559195,969888059,60962,12,0.137451171875,-0.06622314453125,-1.01544189453125
1759846559195,969888059,60962,13,0.137939453125,-0.06353759765625,-1.01641845703125
1759846559195,969888059,60962,14,0.144287109375,-0.06427001953125,-1.01446533203125
1759846559195,969888059,60962,15,0.1533203125,-0.06207275390625,-1.01251220703125
1759846559195,969888059,60962,16,0.150390625,-0.06109619140625,-1.01080322265625
1759846559195,969888059,60962,17,0.14697265625,-0.05987548828125,-1.01348876953125
1759846559195,969888059,60962,18,0.14453125,-0.06158447265625,-1.01495361328125
1759846559195,969888059,60962,19,0.147705078125,-0.06158447265625,-1.01251220703125
1759846559195,969888059,60962,20,0.143798828125,-0.06085205078125,-1.01568603515625
1759846559195,969888059,60962,21,0.147216796875,-0.06378173828125,-1.01422119140625
1759846559195,969888059,60962,22,0.144287109375,-0.06109619140625,-1.01470947265625
1759846559195,969888059,60962,23,0.14306640625,-0.06207275390625,-1.01495361328125
1759846559195,969888059,60962,24,0.140869140625,-0.06353759765625,-1.01763916015625
1759846559195,969888059,60962,25,0.1416015625,-0.06304931640625,-1.01348876953125
1759846559195,969888059,60962,26,0.145751953125,-0.06036376953125,-1.01373291015625
1759846559195,969888059,60962,27,0.14990234375,-0.06402587890625,-1.01446533203125
1759846559195,969888059,60962,28,0.146240234375,-0.06109619140625,-1.01275634765625
1759846559195,969888059,60962,29,0.14404296875,-0.06256103515625,-1.01470947265625
1759846559195,969888059,60962,30,0.143310546875,-0.06304931640625,-1.01641845703125
1759846559195,969888059,60962,31,0.144775390625,-0.06500244140625,-1.01519775390625
1759846561715,969890602,60963,0,0.139892578125,-0.06451416015625,-1.01837158203125
1759846561715,969890602,60963,1,0.14306640625,-0.06280517578125,-1.01641845703125
1759846561715,969890602,60963,2,0.14111328125,-0.06646728515625,-1.01690673828125
1759846561715,969890602,60963,3,0.146728515625,-0.06353759765625,-1.01446533203125
1759846561715,969890602,60963,4,0.152099609375,-0.06329345703125,-1.01153564453125
1759846561715,969890602,60963,5,0.147705078125,-0.06158447265625,-1.01373291015625
1759846561715,969890602,60963,6,0.145751953125,-0.06085205078125,-1.01177978515625
1759846561715,969890602,60963,7,0.13134765625,-0.06353759765625,-1.01812744140625
1759846561715,969890602,60963,8,0.12890625,-0.06280517578125,-1.01812744140625
1759846561715,969890602,60963,9,0.13427734375,-0.05816650390625,-1.01300048828125
1759846561715,969890602,60963,10,0.146484375,-0.06134033203125,-1.00836181640625
1759846561715,969890602,60963,11,0.134521484375,-0.05963134765625,-1.01715087890625
1759846561715,969890602,60963,12,0.11669921875,-0.05572509765625,-1.02252197265625
1759846561715,969890602,60963,13,0.11181640625,-0.05621337890625,-1.01861572265625
1759846561715,969890602,60963,14,0.106201171875,-0.05670166015625,-1.01959228515625
1759846561715,969890602,60963,15,0.115478515625,-0.05816650390625,-1.01788330078125
1759846561715,969890602,60963,16,0.126708984375,-0.05841064453125,-1.01519775390625
1759846561715,969890602,60963,17,0.129150390625,-0.05963134765625,-1.01373291015625
1759846561715,969890602,60963,18,0.121337890625,-0.05084228515625,-1.02203369140625
1759846561715,969890602,60963,19,0.113037109375,-0.05108642578125,-1.02008056640625
1759846561715,969890602,60963,20,0.11572265625,-0.05767822265625,-1.01690673828125
1759846561715,969890602,60963,21,0.121337890625,-0.05914306640625,-1.01666259765625
1759846561715,969890602,60963,22,0.13134765625,-0.06011962890625,-1.01544189453125
1759846561715,969890602,60963,23,0.14013671875,-0.06011962890625,-1.00860595703125
1759846561715,969890602,60963,24,0.1328125,-0.05963134765625,-1.01788330078125
1759846561715,969890602,60963,25,0.12890625,-0.05889892578125,-1.01910400390625
1759846561715,969890602,60963,26,0.123291015625,-0.05914306640625,-1.01910400390625
1759846561715,969890602,60963,27,0.124755859375,-0.06011962890625,-1.01519775390625
1759846561715,969890602,60963,28,0.123291015625,-0.05987548828125,-1.01666259765625
1759846561715,969890602,60963,29,0.12158203125,-0.05767822265625,-1.01446533203125
1759846561715,969890602,60963,30,0.1240234375,-0.06011962890625,-1.02203369140625
1759846561715,969890602,60963,31,0.123046875,-0.05841064453125,-1.01837158203125
1759846564234,969893145,60964,0,0.12109375,-0.05865478515625,-1.01763916015625
1759846564234,969893145,60964,1,0.1220703125,-0.05914306640625,-1.01373291015625
1759846564234,969893145,60964,2,0.123779296875,-0.05963134765625,-1.01617431640625
1759846564234,969893145,60964,3,0.123046875,-0.06011962890625,-1.01763916015625
1759846564234,969893145,60964,4,0.118408203125,-0.05816650390625,-1.01959228515625
1759846564234,969893145,60964,5,0.1201171875,-0.05889892578125,-1.01812744140625
1759846564234,969893145,60964,6,0.122802734375,-0.06036376953125,-1.01934814453125
1759846564234,969893145,60964,7,0.125244140625,-0.05718994140625,-1.01763916015625
1759846564234,969893145,60964,8,0.123291015625,-0.05718994140625,-1.01568603515625
1759846564234,969893145,60964,9,0.122802734375,-0.05792236328125,-1.01763916015625
1759846564234,969893145,60964,10,0.1240234375,-0.05963134765625,-1.01300048828125
1759846564234,969893145,60964,11,0.1220703125,-0.05743408203125,-1.01788330078125
1759846564234,969893145,60964,12,0.121337890625,-0.05767822265625,-1.01593017578125
1759846564234,969893145,60964,13,0.1201171875,-0.05816650390625,-1.02252197265625
1759846564234,969893145,60964,14,0.11865234375,-0.06011962890625,-1.01641845703125
1759846564234,969893145,60964,15,0.115478515625,-0.05743408203125,-1.02154541015625
1759846564234,969893145,60964,16,0.11767578125,-0.05694580078125,-1.02056884765625
1759846564234,969893145,60964,17,0.1220703125,-0.05914306640625,-1.01495361328125
1759846564234,969893145,60964,18,0.12451171875,-0.05816650390625,-1.01397705078125
1759846564234,969893145,60964,19,0.121337890625,-0.05328369140625,-1.02056884765625
