receivedPhoneTimestamp,respeckTimestamp,packetSeqNum,sampleSeqNum,accelX,accelY,accelZ
1759913079404,1100379373,30580,0,0.062255859375,-0.09161376953125,-0.99908447265625
1759913079404,1100379373,30580,1,0.068359375,-0.08258056640625,-1.04034423828125
1759913079404,1100379373,30580,2,0.0673828125,-0.08551025390625,-1.02935791015625
1759913079404,1100379373,30580,3,0.062744140625,-0.08990478515625,-0.99517822265625
1759913079404,1100379373,30580,4,0.058349609375,-0.08502197265625,-0.98370361328125
1759913079404,1100379373,30580,5,0.056640625,-0.06744384765625,-1.05157470703125
1759913079404,1100379373,30580,6,0.052001953125,-0.07598876953125,-1.04058837890625
1759913079404,1100379373,30580,7,0.020751953125,-0.09063720703125,-0.99639892578125
1759913079404,1100379373,30580,8,0.0283203125,-0.07427978515625,-1.01104736328125
1759913079404,1100379373,30580,9,0.03564453125,-0.05694580078125,-1.03253173828125
1759913079404,1100379373,30580,10,0.071533203125,-0.05377197265625,-1.03057861328125
1759913079404,1100379373,30580,11,0.073974609375,-0.05206298828125,-1.02716064453125
1759913079404,1100379373,30580,12,0.014404296875,-0.06964111328125,-0.97393798828125
1759913079404,1100379373,30580,13,0.020263671875,-0.05133056640625,-1.02716064453125
1759913079404,1100379373,30580,14,0.048828125,-0.04620361328125,-1.05963134765625
1759913079404,1100379373,30580,15,0.046142578125,-0.04864501953125,-1.00396728515625
1759913079404,1100379373,30580,16,0.044921875,-0.04644775390625,-1.00103759765625
1759913079404,1100379373,30580,17,0.042236328125,-0.04693603515625,-1.03057861328125
1759913079404,1100379373,30580,18,0.037841796875,-0.04132080078125,-1.02984619140625
1759913079404,1100379373,30580,19,0.036865234375,-0.04156494140625,-1.00909423828125
1759913079404,1100379373,30580,20,0.034423828125,-0.04107666015625,-1.01812744140625
1759913079404,1100379373,30580,21,0.029541015625,-0.03765869140625,-1.02593994140625
1759913079404,1100379373,30580,22,0.02099609375,-0.03424072265625,-1.01788330078125
1759913079404,1100379373,30580,23,0.01806640625,-0.03253173828125,-1.02569580078125
1759913079404,1100379373,30580,24,0.0244140625,-0.03741455078125,-1.06475830078125
1759913079404,1100379373,30580,25,0.0205078125,-0.05108642578125,-0.98394775390625
1759913079404,1100379373,30580,26,0.05078125,-0.03765869140625,-1.00762939453125
1759913079404,1100379373,30580,27,0.068115234375,-0.03497314453125,-1.01470947265625
1759913079404,1100379373,30580,28,0.06494140625,-0.03472900390625,-1.02911376953125
1759913079404,1100379373,30580,29,0.059814453125,-0.02276611328125,-1.02789306640625
1759913079404,1100379373,30580,30,0.076416015625,-0.00860595703125,-1.05499267578125
1759913079404,1100379373,30580,31,0.10302734375,-0.02642822265625,-1.01715087890625
1759913081753,1100381910,30581,0,0.100830078125,-0.05694580078125,-0.96856689453125
1759913081753,1100381910,30581,1,0.089599609375,-0.05401611328125,-0.99713134765625
1759913081753,1100381910,30581,2,0.089111328125,-0.03619384765625,-1.05133056640625
1759913081753,1100381910,30581,3,0.085693359375,-0.04058837890625,-1.03570556640625
1759913081753,1100381910,30581,4,0.082763671875,-0.05474853515625,-0.98956298828125
1759913081753,1100381910,30581,5,0.083984375,-0.05255126953125,-1.00836181640625
1759913081753,1100381910,30581,6,0.0849609375,-0.05889892578125,-1.02447509765625
1759913081753,1100381910,30581,7,0.078857421875,-0.06060791015625,-1.00518798828125
1759913081753,1100381910,30581,8,0.0693359375,-0.05206298828125,-1.00689697265625
1759913081753,1100381910,30581,9,0.07177734375,-0.05548095703125,-1.02862548828125
1759913081753,1100381910,30581,10,0.0615234375,-0.06427001953125,-1.03131103515625
1759913081753,1100381910,30581,11,0.061767578125,-0.05572509765625,-1.02838134765625
1759913081753,1100381910,30581,12,0.067626953125,-0.04693603515625,-1.01080322265625
1759913081753,1100381910,30581,13,0.075439453125,-0.04254150390625,-0.99884033203125
1759913081753,1100381910,30581,14,0.064208984375,-0.04547119140625,-1.02423095703125
1759913081753,1100381910,30581,15,0.0888671875,-0.05303955078125,-1.02813720703125
1759913081753,1100381910,30581,16,0.092529296875,-0.05352783203125,-1.00421142578125
1759913081753,1100381910,30581,17,0.063232421875,-0.05084228515625,-0.99713134765625
1759913081753,1100381910,30581,18,0.066162109375,-0.05059814453125,-1.04595947265625
1759913081753,1100381910,30581,19,0.06982421875,-0.05230712890625,-1.04620361328125
1759913081753,1100381910,30581,20,0.06494140625,-0.05841064453125,-0.99786376953125
1759913081753,1100381910,30581,21,0.0673828125,-0.05108642578125,-1.00836181640625
1759913081753,1100381910,30581,22,0.06103515625,-0.05328369140625,-1.03106689453125
1759913081753,1100381910,30581,23,0.064208984375,-0.05181884765625,-1.02105712890625
1759913081753,1100381910,30581,24,0.056640625,-0.05743408203125,-1.00543212890625
1759913081753,1100381910,30581,25,0.0615234375,-0.05328369140625,-1.02203369140625
1759913081753,1100381910,30581,26,0.0537109375,-0.05352783203125,-1.00982666015625
1759913081753,1100381910,30581,27,0.035888671875,-0.04058837890625,-1.03253173828125
1759913081753,1100381910,30581,28,0.017578125,-0.04180908203125,-1.03350830078125
1759913081753,1100381910,30581,29,0.01708984375,-0.05303955078125,-1.03594970703125
1759913081753,1100381910,30581,30,0.020263671875,-0.05621337890625,-1.02642822265625
1759913081753,1100381910,30581,31,0.06494140625,-0.04913330078125,-1.04962158203125
1759913084280,1100384453,30582,0,0.094970703125,-0.07525634765625,-0.98858642578125
1759913084280,1100384453,30582,1,0.061279296875,-0.08453369140625,-0.95440673828125
1759913084280,1100384453,30582,2,0.06640625,-0.07403564453125,-0.99615478515625
1759913084280,1100384453,30582,3,0.071044921875,-0.06500244140625,-1.06524658203125
1759913084280,1100384453,30582,4,0.07763671875,-0.06353759765625,-1.03179931640625
1759913084280,1100384453,30582,5,0.06689453125,-0.06719970703125,-0.99835205078125
1759913084280,1100384453,30582,6,0.067138671875,-0.06280517578125,-1.00958251953125
1759913084280,1100384453,30582,7,0.06640625,-0.06011962890625,-1.03619384765625
1759913084280,1100384453,30582,8,0.063232421875,-0.06500244140625,-1.02056884765625
1759913084280,1100384453,30582,9,0.055908203125,-0.07110595703125,-1.00811767578125
1759913084280,1100384453,30582,10,0.054931640625,-0.08038330078125,-1.01617431640625
1759913084280,1100384453,30582,11,0.051513671875,-0.07452392578125,-1.01519775390625
1759913084280,1100384453,30582,12,0.0517578125,-0.06915283203125,-1.02984619140625
1759913084280,1100384453,30582,13,0.051025390625,-0.07403564453125,-1.02789306640625
1759913084280,1100384453,30582,14,0.039306640625,-0.08282470703125,-1.01593017578125
1759913084280,1100384453,30582,15,0.03466796875,-0.08062744140625,-1.01153564453125
1759913084280,1100384453,30582,16,0.0458984375,-0.07672119140625,-1.02618408203125
1759913084280,1100384453,30582,17,0.068603515625,-0.06988525390625,-1.02862548828125
1759913084280,1100384453,30582,18,0.08642578125,-0.09991455078125,-0.98394775390625
1759913084280,1100384453,30582,19,0.05517578125,-0.09429931640625,-0.98834228515625
1759913084280,1100384453,30582,20,0.06591796875,-0.07452392578125,-1.04644775390625
1759913084280,1100384453,30582,21,0.0771484375,-0.06817626953125,-1.03912353515625
1759913084280,1100384453,30582,22,0.072265625,-0.07769775390625,-0.99908447265625
1759913084280,1100384453,30582,23,0.068603515625,-0.07354736328125,-1.00860595703125
1759913084280,1100384453,30582,24,0.061767578125,-0.06988525390625,-1.01739501953125
1759913084280,1100384453,30582,25,0.0615234375,-0.06939697265625,-1.02716064453125
1759913084280,1100384453,30582,26,0.060546875,-0.06842041015625,-1.01837158203125
1759913084280,1100384453,30582,27,0.058837890625,-0.07086181640625,-1.02276611328125
1759913084280,1100384453,30582,28,0.055908203125,-0.07086181640625,-1.08355712890625
1759913084280,1100384453,30582,29,0.06494140625,-0.10650634765625,-1.03448486328125
1759913084280,1100384453,30582,30,0.08642578125,-0.16339111328125,-0.96075439453125
1759913084280,1100384453,30582,31,0.08837890625,-0.18048095703125,-0.94854736328125
1759913086815,1100386996,30583,0,0.0927734375,-0.17657470703125,-0.97808837890625
1759913086815,1100386996,30583,1,0.080078125,-0.17047119140625,-1.00738525390625
1759913086815,1100386996,30583,2,0.061767578125,-0.14215087890625,-1.03521728515625
1759913086815,1100386996,30583,3,0.053955078125,-0.13018798828125,-1.01177978515625
1759913086815,1100386996,30583,4,0.0517578125,-0.11236572265625,-1.00665283203125
1759913086815,1100386996,30583,5,0.09228515625,-0.10430908203125,-1.04425048828125
1759913086815,1100386996,30583,6,0.109375,-0.13018798828125,-1.01690673828125
1759913086815,1100386996,30583,7,0.073974609375,-0.12823486328125,-0.96881103515625
1759913086815,1100386996,30583,8,0.066162109375,-0.11822509765625,-0.99932861328125
1759913086815,1100386996,30583,9,0.068603515625,-0.10162353515625,-1.05914306640625
1759913086815,1100386996,30583,10,0.064453125,-0.10260009765625,-1.03350830078125
1759913086815,1100386996,30583,11,0.06884765625,-0.11041259765625,-0.99151611328125
1759913086815,1100386996,30583,12,0.067138671875,-0.10626220703125,-0.99664306640625
1759913086815,1100386996,30583,13,0.0595703125,-0.10504150390625,-1.03472900390625
1759913086815,1100386996,30583,14,0.055419921875,-0.10455322265625,-1.03302001953125
1759913086815,1100386996,30583,15,0.055908203125,-0.10723876953125,-1.01763916015625
1759913086815,1100386996,30583,16,0.0615234375,-0.10968017578125,-1.00714111328125
1759913086815,1100386996,30583,17,0.059326171875,-0.11749267578125,-1.00665283203125
1759913086815,1100386996,30583,18,0.0517578125,-0.13995361328125,-1.04620361328125
1759913086815,1100386996,30583,19,0.0517578125,-0.14239501953125,-1.00079345703125
1759913086815,1100386996,30583,20,0.083984375,-0.13922119140625,-0.99298095703125
1759913086815,1100386996,30583,21,0.087646484375,-0.14044189453125,-0.98028564453125
1759913086815,1100386996,30583,22,0.12109375,-0.13385009765625,-0.99078369140625
1759913086815,1100386996,30583,23,0.064453125,-0.13653564453125,-1.05279541015625
1759913086815,1100386996,30583,24,0.066162109375,-0.12725830078125,-1.00445556640625
1759913086815,1100386996,30583,25,0.076171875,-0.12872314453125,-1.00299072265625
1759913086815,1100386996,30583,26,0.0908203125,-0.12579345703125,-1.00982666015625
1759913086815,1100386996,30583,27,0.08544921875,-0.11602783203125,-1.01202392578125
1759913086815,1100386996,30583,28,0.0673828125,-0.10772705078125,-1.01812744140625
1759913086815,1100386996,30583,29,0.06298828125,-0.12115478515625,-1.01104736328125
1759913086815,1100386996,30583,30,0.0556640625,-0.12652587890625,-1.01812744140625
1759913086815,1100386996,30583,31,0.061767578125,-0.11358642578125,-1.01055908203125
1759913089350,1100389539,30584,0,0.046142578125,-0.10406494140625,-1.02423095703125
1759913089350,1100389539,30584,1,0.0458984375,-0.11212158203125,-1.03546142578125
1759913089350,1100389539,30584,2,0.03662109375,-0.12384033203125,-1.01666259765625
1759913089350,1100389539,30584,3,0.0537109375,-0.12286376953125,-0.95074462890625
1759913089350,1100389539,30584,4,0.064453125,-0.08868408203125,-1.02838134765625
1759913089350,1100389539,30584,5,0.092529296875,-0.08038330078125,-1.07086181640625
1759913089350,1100389539,30584,6,0.08984375,-0.10992431640625,-0.97076416015625
1759913089350,1100389539,30584,7,0.053955078125,-0.08551025390625,-1.00445556640625
1759913089350,1100389539,30584,8,0.07958984375,-0.07232666015625,-1.04058837890625
1759913089350,1100389539,30584,9,0.085693359375,-0.07794189453125,-1.05303955078125
1759913089350,1100389539,30584,10,0.080078125,-0.09063720703125,-0.99029541015625
1759913089350,1100389539,30584,11,0.088134765625,-0.08770751953125,-0.99029541015625
1759913089350,1100389539,30584,12,0.08740234375,-0.09063720703125,-1.01080322265625
1759913089350,1100389539,30584,13,0.08349609375,-0.08575439453125,-1.03009033203125
1759913089350,1100389539,30584,14,0.074462890625,-0.08258056640625,-1.00616455078125
1759913089350,1100389539,30584,15,0.071044921875,-0.07867431640625,-1.00958251953125
1759913089350,1100389539,30584,16,0.0732421875,-0.08575439453125,-1.02276611328125
1759913089350,1100389539,30584,17,0.078125,-0.09722900390625,-1.01715087890625
1759913089350,1100389539,30584,18,0.09130859375,-0.10552978515625,-1.02813720703125
1759913089350,1100389539,30584,19,0.105712890625,-0.09747314453125,-0.99908447265625
1759913089350,1100389539,30584,20,0.10498046875,-0.08941650390625,-1.00665283203125
1759913089350,1100389539,30584,21,0.093017578125,-0.07989501953125,-1.01788330078125
1759913089350,1100389539,30584,22,0.117919921875,-0.09185791015625,-1.00787353515625
1759913089350,1100389539,30584,23,0.08837890625,-0.08624267578125,-1.00250244140625
1759913089350,1100389539,30584,24,0.079345703125,-0.09136962890625,-1.00030517578125
1759913089350,1100389539,30584,25,0.089111328125,-0.07501220703125,-1.05499267578125
1759913089350,1100389539,30584,26,0.09033203125,-0.06695556640625,-1.02960205078125
1759913089350,1100389539,30584,27,0.08984375,-0.06646728515625,-0.98297119140625
1759913089350,1100389539,30584,28,0.072021484375,-0.06768798828125,-1.00543212890625
1759913089350,1100389539,30584,29,0.079345703125,-0.07330322265625,-1.04742431640625
1759913089350,1100389539,30584,30,0.080078125,-0.06915283203125,-1.02716064453125
1759913089350,1100389539,30584,31,0.085205078125,-0.07232666015625,-0.99346923828125
1759913091886,1100392082,30585,0,0.079345703125,-0.06646728515625,-1.00762939453125
1759913091886,1100392082,30585,1,0.078857421875,-0.06719970703125,-1.03204345703125
1759913091886,1100392082,30585,2,0.07177734375,-0.07183837890625,-1.01885986328125
1759913091886,1100392082,30585,3,0.070068359375,-0.07452392578125,-0.99981689453125
1759913091886,1100392082,30585,4,0.07470703125,-0.07135009765625,-1.02374267578125
1759913091886,1100392082,30585,5,0.075439453125,-0.07574462890625,-1.02642822265625
1759913091886,1100392082,30585,6,0.0712890625,-0.08258056640625,-1.02935791015625
1759913091886,1100392082,30585,7,0.062744140625,-0.08746337890625,-1.01397705078125
1759913091886,1100392082,30585,8,0.061767578125,-0.10015869140625,-0.98712158203125
1759913091886,1100392082,30585,9,0.074951171875,-0.09625244140625,-1.01153564453125
1759913091886,1100392082,30585,10,0.080078125,-0.08917236328125,-1.03277587890625
1759913091886,1100392082,30585,11,0.080322265625,-0.06988525390625,-1.06475830078125
1759913091886,1100392082,30585,12,0.138427734375,-0.13848876953125,-1.04669189453125
1759913091886,1100392082,30585,13,0.120849609375,-0.20220947265625,-0.93194580078125
1759913091886,1100392082,30585,14,0.102783203125,-0.24542236328125,-0.90631103515625
1759913091886,1100392082,30585,15,0.094482421875,-0.19586181640625,-0.98736572265625
1759913091886,1100392082,30585,16,0.09130859375,-0.16436767578125,-1.06378173828125
1759913091886,1100392082,30585,17,0.0927734375,-0.18145751953125,-1.01983642578125
1759913091886,1100392082,30585,18,0.0908203125,-0.19927978515625,-0.95880126953125
1759913091886,1100392082,30585,19,0.087890625,-0.18316650390625,-0.99761962890625
1759913091886,1100392082,30585,20,0.07958984375,-0.17828369140625,-1.04156494140625
1759913091886,1100392082,30585,21,0.092041015625,-0.19342041015625,-1.00030517578125
1759913091886,1100392082,30585,22,0.081298828125,-0.20245361328125,-0.96929931640625
1759913091886,1100392082,30585,23,0.072021484375,-0.19952392578125,-0.98809814453125
1759913091886,1100392082,30585,24,0.06201171875,-0.19268798828125,-1.01568603515625
1759913091886,1100392082,30585,25,0.064697265625,-0.18023681640625,-1.02496337890625
1759913091886,1100392082,30585,26,0.065185546875,-0.17852783203125,-0.99517822265625
1759913091886,1100392082,30585,27,0.0615234375,-0.17950439453125,-0.98516845703125
1759913091886,1100392082,30585,28,0.05126953125,-0.16314697265625,-1.01104736328125
1759913091886,1100392082,30585,29,0.01953125,-0.13946533203125,-1.02838134765625
1759913091886,1100392082,30585,30,0.0302734375,-0.14019775390625,-1.03179931640625
1759913091886,1100392082,30585,31,0.041748046875,-0.13653564453125,-1.03448486328125
1759913094417,1100394625,30586,0,0.085205078125,-0.11505126953125,-0.99884033203125
1759913094417,1100394625,30586,1,0.10888671875,-0.14556884765625,-1.02056884765625
1759913094417,1100394625,30586,2,0.103759765625,-0.16046142578125,-1.01080322265625
1759913094417,1100394625,30586,3,0.085205078125,-0.18560791015625,-0.99029541015625
1759913094417,1100394625,30586,4,0.096435546875,-0.17340087890625,-0.99761962890625
1759913094417,1100394625,30586,5,0.101806640625,-0.16632080078125,-0.98785400390625
1759913094417,1100394625,30586,6,0.1005859375,-0.17633056640625,-1.00079345703125
1759913094417,1100394625,30586,7,0.0927734375,-0.19317626953125,-1.02032470703125
1759913094417,1100394625,30586,8,0.093505859375,-0.19927978515625,-0.98394775390625
1759913094417,1100394625,30586,9,0.099853515625,-0.18072509765625,-0.98907470703125
1759913094417,1100394625,30586,10,0.083740234375,-0.17877197265625,-1.00689697265625
1759913094417,1100394625,30586,11,0.07373046875,-0.17803955078125,-1.01470947265625
1759913094417,1100394625,30586,12,0.07861328125,-0.17413330078125,-0.99761962890625
1759913094417,1100394625,30586,13,0.080810546875,-0.16851806640625,-0.98614501953125
1759913094417,1100394625,30586,14,0.06689453125,-0.16363525390625,-1.00714111328125
1759913094417,1100394625,30586,15,0.03564453125,-0.15606689453125,-0.99664306640625
1759913094417,1100394625,30586,16,0.04248046875,-0.12969970703125,-1.05889892578125
1759913094417,1100394625,30586,17,0.083984375,-0.13970947265625,-1.01934814453125
1759913094417,1100394625,30586,18,0.111328125,-0.13604736328125,-0.98004150390625
1759913094417,1100394625,30586,19,0.093994140625,-0.10113525390625,-1.02056884765625
1759913094417,1100394625,30586,20,0.10009765625,-0.13629150390625,-1.06646728515625
1759913094417,1100394625,30586,21,0.082275390625,-0.15655517578125,-0.99713134765625
1759913094417,1100394625,30586,22,0.10595703125,-0.18463134765625,-1.02252197265625
1759913094417,1100394625,30586,23,0.13720703125,-0.21978759765625,-1.02618408203125
1759913094417,1100394625,30586,24,0.0380859375,-0.27130126953125,-0.92315673828125
1759913094417,1100394625,30586,25,0.233154296875,-0.26080322265625,-0.90728759765625
1759913094417,1100394625,30586,26,0.140625,-0.30767822265625,-0.92022705078125
1759913094417,1100394625,30586,27,0.14306640625,-0.29327392578125,-0.98980712890625
1759913094417,1100394625,30586,28,0.12841796875,-0.27569580078125,-1.00762939453125
1759913094417,1100394625,30586,29,0.12060546875,-0.27032470703125,-0.97467041015625
1759913094417,1100394625,30586,30,0.124267578125,-0.27423095703125,-0.95855712890625
1759913094417,1100394625,30586,31,0.1171875,-0.26861572265625,-0.97808837890625
1759913096955,1100397168,30587,0,0.101318359375,-0.25982666015625,-0.99688720703125
1759913096955,1100397168,30587,1,0.10205078125,-0.25616455078125,-0.99468994140625
1759913096955,1100397168,30587,2,0.09765625,-0.26324462890625,-0.99517822265625
1759913096955,1100397168,30587,3,0.087158203125,-0.26275634765625,-0.98907470703125
1759913096955,1100397168,30587,4,0.093017578125,-0.25567626953125,-0.97247314453125
1759913096955,1100397168,30587,5,0.08544921875,-0.24127197265625,-0.98199462890625
1759913096955,1100397168,30587,6,0.121337890625,-0.24493408203125,-1.01324462890625
1759913096955,1100397168,30587,7,0.111083984375,-0.29742431640625,-0.98614501953125
1759913096955,1100397168,30587,8,0.1015625,-0.30963134765625,-0.92047119140625
1759913096955,1100397168,30587,9,0.1064453125,-0.28619384765625,-0.95098876953125
1759913096955,1100397168,30587,10,0.096435546875,-0.27032470703125,-1.00933837890625
1759913096955,1100397168,30587,11,0.09716796875,-0.26934814453125,-1.00836181640625
1759913096955,1100397168,30587,12,0.09814453125,-0.27423095703125,-0.96441650390625
1759913096955,1100397168,30587,13,0.096435546875,-0.25933837890625,-0.96392822265625
1759913096955,1100397168,30587,14,0.092041015625,-0.25225830078125,-0.99957275390625
1759913096955,1100397168,30587,15,0.085693359375,-0.24566650390625,-0.99102783203125
1759913096955,1100397168,30587,16,0.06640625,-0.22222900390625,-0.96759033203125
1759913096955,1100397168,30587,17,0.059326171875,-0.20733642578125,-1.02203369140625
1759913096955,1100397168,30587,18,0.063232421875,-0.19464111328125,-1.04425048828125
1759913096955,1100397168,30587,19,0.048583984375,-0.19805908203125,-1.00592041015625
1759913096955,1100397168,30587,20,0.052001953125,-0.18609619140625,-0.97613525390625
1759913096955,1100397168,30587,21,0.057373046875,-0.15093994140625,-1.02789306640625
1759913096955,1100397168,30587,22,0.0888671875,-0.20513916015625,-1.05010986328125
1759913096955,1100397168,30587,23,0.093994140625,-0.23516845703125,-1.00054931640625
1759913096955,1100397168,30587,24,0.099609375,-0.25177001953125,-0.94122314453125
1759913096955,1100397168,30587,25,0.10791015625,-0.25152587890625,-0.97174072265625
1759913096955,1100397168,30587,26,0.104736328125,-0.26910400390625,-1.00103759765625
1759913096955,1100397168,30587,27,0.092041015625,-0.27081298828125,-0.99322509765625
1759913096955,1100397168,30587,28,0.1201171875,-0.28546142578125,-0.96221923828125
1759913096955,1100397168,30587,29,0.089111328125,-0.28521728515625,-0.96807861328125
1759913096955,1100397168,30587,30,0.086669921875,-0.28155517578125,-0.99029541015625
1759913096955,1100397168,30587,31,0.083251953125,-0.28399658203125,-0.99005126953125
1759913099685,1100399711,30588,0,0.09912109375,-0.28497314453125,-0.95318603515625
1759913099685,1100399711,30588,1,0.09423828125,-0.28302001953125,-0.96856689453125
1759913099685,1100399711,30588,2,0.0810546875,-0.27325439453125,-0.99420166015625
1759913099685,1100399711,30588,3,0.06005859375,-0.27252197265625,-1.00347900390625
1759913099685,1100399711,30588,4,0.047119140625,-0.26275634765625,-1.04010009765625
1759913099685,1100399711,30588,5,0.06494140625,-0.27618408203125,-0.97003173828125
1759913099685,1100399711,30588,6,0.093017578125,-0.27520751953125,-0.92974853515625
1759913099685,1100399711,30588,7,0.105712890625,-0.27301025390625,-0.95489501953125
1759913099685,1100399711,30588,8,0.105712890625,-0.30181884765625,-1.01812744140625
1759913099685,1100399711,30588,9,0.072509765625,-0.29278564453125,-1.01226806640625
1759913099685,1100399711,30588,10,0.07177734375,-0.29156494140625,-0.96319580078125
1759913099685,1100399711,30588,11,0.0908203125,-0.28228759765625,-0.95465087890625
1759913099685,1100399711,30588,12,0.0908203125,-0.29962158203125,-0.99200439453125
1759913099685,1100399711,30588,13,0.0537109375,-0.30279541015625,-0.99005126953125
1759913099685,1100399711,30588,14,0.08154296875,-0.29376220703125,-0.97418212890625
1759913099685,1100399711,30588,15,0.078857421875,-0.29718017578125,-0.95587158203125
1759913099685,1100399711,30588,16,0.069091796875,-0.30133056640625,-0.97735595703125
1759913099685,1100399711,30588,17,0.05859375,-0.28790283203125,-0.97320556640625
1759913099685,1100399711,30588,18,0.051513671875,-0.27227783203125,-1.00885009765625
1759913099685,1100399711,30588,19,0.049560546875,-0.26422119140625,-0.99859619140625
1759913099685,1100399711,30588,20,0.06103515625,-0.25518798828125,-0.99151611328125
1759913099685,1100399711,30588,21,0.0673828125,-0.24639892578125,-0.98004150390625
1759913099685,1100399711,30588,22,0.10546875,-0.20465087890625,-0.98004150390625
1759913099685,1100399711,30588,23,0.064697265625,-0.23321533203125,-1.03497314453125
1759913099685,1100399711,30588,24,0.037109375,-0.23638916015625,-1.02813720703125
1759913099685,1100399711,30588,25,0.09716796875,-0.23468017578125,-0.95538330078125
1759913099685,1100399711,30588,26,0.099365234375,-0.23419189453125,-0.96978759765625
1759913099685,1100399711,30588,27,0.089599609375,-0.22711181640625,-0.98858642578125
1759913099685,1100399711,30588,28,0.0732421875,-0.20855712890625,-1.03253173828125
1759913099685,1100399711,30588,29,0.05908203125,-0.21636962890625,-1.01422119140625
1759913099685,1100399711,30588,30,0.0576171875,-0.23077392578125,-0.97540283203125
1759913099685,1100399711,30588,31,0.0634765625,-0.21978759765625,-0.98760986328125
1759913102220,1100402254,30589,0,0.05712890625,-0.21514892578125,-1.01177978515625
1759913102220,1100402254,30589,1,0.0556640625,-0.21588134765625,-1.01983642578125
1759913102220,1100402254,30589,2,0.04638671875,-0.22613525390625,-1.01080322265625
1759913102220,1100402254,30589,3,0.052734375,-0.23028564453125,-0.98248291015625
1759913102220,1100402254,30589,4,0.055419921875,-0.23443603515625,-0.97515869140625
1759913102220,1100402254,30589,5,0.04833984375,-0.22833251953125,-0.99346923828125
1759913102220,1100402254,30589,6,0.040283203125,-0.20343017578125,-0.98663330078125
1759913102220,1100402254,30589,7,0.081298828125,-0.21563720703125,-1.02203369140625
1759913102220,1100402254,30589,8,0.0546875,-0.21539306640625,-1.01226806640625
1759913102220,1100402254,30589,9,0.0517578125,-0.21295166015625,-0.99176025390625
1759913102220,1100402254,30589,10,0.060546875,-0.20294189453125,-1.00640869140625
1759913102220,1100402254,30589,11,0.05224609375,-0.20147705078125,-0.99786376953125
1759913102220,1100402254,30589,12,0.050537109375,-0.19952392578125,-1.00421142578125
1759913102220,1100402254,30589,13,0.03857421875,-0.19342041015625,-1.00567626953125
1759913102220,1100402254,30589,14,0.037353515625,-0.18682861328125,-1.00494384765625
1759913102220,1100402254,30589,15,0.0390625,-0.19000244140625,-1.00347900390625
1759913102220,1100402254,30589,16,0.0263671875,-0.18414306640625,-1.00860595703125
1759913102220,1100402254,30589,17,0.021484375,-0.17901611328125,-1.02227783203125
1759913102220,1100402254,30589,18,0.03369140625,-0.19635009765625,-1.02374267578125
1759913102220,1100402254,30589,19,0.0263671875,-0.20220947265625,-1.02032470703125
1759913102220,1100402254,30589,20,0.033203125,-0.20562744140625,-0.99053955078125
1759913102220,1100402254,30589,21,0.01171875,-0.20367431640625,-0.95928955078125
1759913102220,1100402254,30589,22,0.06103515625,-0.18658447265625,-0.99322509765625
1759913102220,1100402254,30589,23,0.027099609375,-0.21051025390625,-1.01934814453125
1759913102220,1100402254,30589,24,0.05029296875,-0.19805908203125,-1.02496337890625
1759913102220,1100402254,30589,25,0.037109375,-0.19049072265625,-1.04229736328125
1759913102220,1100402254,30589,26,0.075439453125,-0.22418212890625,-0.99957275390625
1759913102220,1100402254,30589,27,0.048095703125,-0.22930908203125,-0.96929931640625
1759913102220,1100402254,30589,28,0.028076171875,-0.22564697265625,-0.96954345703125
1759913102220,1100402254,30589,29,0.022705078125,-0.22857666015625,-1.00054931640625
1759913102220,1100402254,30589,30,0.037353515625,-0.23565673828125,-1.02130126953125
1759913102220,1100402254,30589,31,0.0322265625,-0.22515869140625,-0.99078369140625
1759913104949,1100404797,30590,0,0.031982421875,-0.22271728515625,-0.99176025390625
1759913104949,1100404797,30590,1,0.027099609375,-0.22735595703125,-1.01275634765625
1759913104949,1100404797,30590,2,0.0302734375,-0.22564697265625,-1.02008056640625
1759913104949,1100404797,30590,3,0.026123046875,-0.21905517578125,-0.98004150390625
1759913104949,1100404797,30590,4,0.033447265625,-0.22125244140625,-0.98248291015625
1759913104949,1100404797,30590,5,0.027099609375,-0.20977783203125,-1.00347900390625
1759913104949,1100404797,30590,6,0.05419921875,-0.22589111328125,-1.00933837890625
1759913104949,1100404797,30590,7,0.0390625,-0.22174072265625,-0.99786376953125
1759913104949,1100404797,30590,8,0.031005859375,-0.21783447265625,-0.99078369140625
1759913104949,1100404797,30590,9,0.037109375,-0.21392822265625,-1.01812744140625
1759913104949,1100404797,30590,10,0.035888671875,-0.21466064453125,-1.00323486328125
1759913104949,1100404797,30590,11,0.03076171875,-0.21002197265625,-1.00177001953125
1759913104949,1100404797,30590,12,0.02734375,-0.22027587890625,-0.99810791015625
1759913104949,1100404797,30590,13,0.02587890625,-0.21563720703125,-0.99298095703125
1759913104949,1100404797,30590,14,0.027587890625,-0.20758056640625,-1.00616455078125
1759913104949,1100404797,30590,15,0.019775390625,-0.20220947265625,-1.00274658203125
1759913104949,1100404797,30590,16,0.018310546875,-0.19659423828125,-1.01739501953125
1759913104949,1100404797,30590,17,0.0107421875,-0.20416259765625,-0.99420166015625
1759913104949,1100404797,30590,18,0.023681640625,-0.20074462890625,-1.02398681640625
1759913104949,1100404797,30590,19,0.0322265625,-0.20562744140625,-1.01470947265625
1759913104949,1100404797,30590,20,0.03857421875,-0.20416259765625,-0.99981689453125
1759913104949,1100404797,30590,21,0.03271484375,-0.19830322265625,-0.99639892578125
1759913104949,1100404797,30590,22,0.040771484375,-0.18267822265625,-1.01373291015625
1759913104949,1100404797,30590,23,0.072509765625,-0.19488525390625,-0.98175048828125
1759913104949,1100404797,30590,24,0.05078125,-0.19879150390625,-0.99639892578125
1759913104949,1100404797,30590,25,0.04345703125,-0.18023681640625,-1.02276611328125
1759913104949,1100404797,30590,26,0.0546875,-0.16729736328125,-1.04083251953125
1759913104949,1100404797,30590,27,0.0615234375,-0.18145751953125,-0.99493408203125
1759913104949,1100404797,30590,28,0.051513671875,-0.19635009765625,-0.97418212890625
1759913104949,1100404797,30590,29,0.040283203125,-0.18023681640625,-1.02447509765625
