receivedPhoneTimestamp,respeckTimestamp,packetSeqNum,sampleSeqNum,accelX,accelY,accelZ
1759782722357,985546349,9985,31,-0.170166015625,-0.96270751953125,0.15203857421875
1759782724878,985548922,9986,0,-0.17333984375,-0.96270751953125,0.14593505859375
1759782724878,985548922,9986,1,-0.145751953125,-0.95025634765625,0.11077880859375
1759782724878,985548922,9986,2,-0.193115234375,-0.98419189453125,0.18768310546875
1759782724878,985548922,9986,3,-0.14794921875,-0.95001220703125,0.12738037109375
1759782724878,985548922,9986,4,-0.17578125,-0.98468017578125,0.14324951171875
1759782724878,985548922,9986,5,-0.1806640625,-0.97125244140625,0.13836669921875
1759782724878,985548922,9986,6,-0.1494140625,-0.96466064453125,0.12371826171875
1759782724878,985548922,9986,7,-0.144775390625,-0.96343994140625,0.13958740234375
1759782724878,985548922,9986,8,-0.1728515625,-0.97247314453125,0.16278076171875
1759782724878,985548922,9986,9,-0.154296875,-0.97369384765625,0.13250732421875
1759782724878,985548922,9986,10,-0.1728515625,-0.96807861328125,0.15374755859375
1759782724878,985548922,9986,11,-0.18017578125,-0.97052001953125,0.15252685546875
1759782724878,985548922,9986,12,-0.173095703125,-0.96539306640625,0.14349365234375
1759782724878,985548922,9986,13,-0.17724609375,-0.97320556640625,0.15667724609375
1759782724878,985548922,9986,14,-0.217529296875,-0.94903564453125,0.18670654296875
1759782724878,985548922,9986,15,-0.224609375,-0.93194580078125,0.20965576171875
1759782724878,985548922,9986,16,-0.245849609375,-0.93975830078125,0.18939208984375
1759782724878,985548922,9986,17,-0.236572265625,-0.94854736328125,0.19476318359375
1759782724878,985548922,9986,18,-0.246337890625,-0.93145751953125,0.17572021484375
1759782724878,985548922,9986,19,-0.245361328125,-0.94732666015625,0.22430419921875
1759782724878,985548922,9986,20,-0.24462890625,-0.95172119140625,0.21722412109375
1759782724878,985548922,9986,21,-0.235595703125,-0.95538330078125,0.19281005859375
1759782724878,985548922,9986,22,-0.223876953125,-0.95098876953125,0.16571044921875
1759782724878,985548922,9986,23,-0.22607421875,-0.93951416015625,0.21112060546875
1759782724878,985548922,9986,24,-0.19140625,-0.92388916015625,0.22308349609375
1759782724878,985548922,9986,25,-0.067626953125,-0.96270751953125,0.15887451171875
1759782724878,985548922,9986,26,-0.1142578125,-1.00836181640625,0.14129638671875
1759782724878,985548922,9986,27,-0.16455078125,-0.96295166015625,0.14862060546875
1759782724878,985548922,9986,28,-0.14892578125,-0.95220947265625,0.14447021484375
1759782724878,985548922,9986,29,-0.185302734375,-0.97515869140625,0.16522216796875
1759782724878,985548922,9986,30,-0.135009765625,-0.94659423828125,0.14447021484375
1759782724878,985548922,9986,31,-0.177490234375,-0.98907470703125,0.17108154296875
1759782727386,985551495,9987,0,-0.13720703125,-0.95538330078125,0.12689208984375
1759782727386,985551495,9987,1,-0.13671875,-0.97076416015625,0.16595458984375
1759782727386,985551495,9987,2,-0.1376953125,-0.97613525390625,0.14471435546875
1759782727386,985551495,9987,3,-0.207763671875,-0.95489501953125,0.19744873046875
1759782727386,985551495,9987,4,-0.137939453125,-0.95367431640625,0.15545654296875
1759782727386,985551495,9987,5,-0.1728515625,-0.97882080078125,0.16107177734375
1759782727386,985551495,9987,6,-0.186767578125,-0.95953369140625,0.17816162109375
1759782727386,985551495,9987,7,-0.19189453125,-0.95587158203125,0.14447021484375
1759782727386,985551495,9987,8,-0.187255859375,-0.97613525390625,0.15814208984375
1759782727386,985551495,9987,9,-0.218505859375,-0.95172119140625,0.18304443359375
1759782727386,985551495,9987,10,-0.209228515625,-0.94415283203125,0.18499755859375
1759782727386,985551495,9987,11,-0.234130859375,-0.95025634765625,0.19622802734375
1759782727386,985551495,9987,12,-0.232421875,-0.94097900390625,0.17718505859375
1759782727386,985551495,9987,13,-0.220458984375,-0.94586181640625,0.19061279296875
1759782727386,985551495,9987,14,-0.21630859375,-0.95562744140625,0.18939208984375
1759782727386,985551495,9987,15,-0.217041015625,-0.94781494140625,0.18890380859375
1759782727386,985551495,9987,16,-0.1982421875,-0.95513916015625,0.18402099609375
1759782727386,985551495,9987,17,-0.197509765625,-0.95294189453125,0.19671630859375
1759782727386,985551495,9987,18,-0.193115234375,-0.95220947265625,0.19793701171875
1759782727386,985551495,9987,19,-0.191162109375,-0.95391845703125,0.18841552734375
1759782727386,985551495,9987,20,-0.16650390625,-0.95635986328125,0.17034912109375
1759782727386,985551495,9987,21,-0.159912109375,-0.96685791015625,0.16180419921875
1759782727386,985551495,9987,22,-0.154541015625,-0.97100830078125,0.15716552734375
1759782727386,985551495,9987,23,-0.17138671875,-0.96197509765625,0.16033935546875
1759782727386,985551495,9987,24,-0.148681640625,-0.96417236328125,0.15985107421875
1759782727386,985551495,9987,25,-0.161376953125,-0.97125244140625,0.16058349609375
1759782727386,985551495,9987,26,-0.167236328125,-0.96221923828125,0.14910888671875
1759782727386,985551495,9987,27,-0.177490234375,-0.96392822265625,0.16668701171875
1759782727386,985551495,9987,28,-0.183349609375,-0.96148681640625,0.17376708984375
1759782727386,985551495,9987,29,-0.191162109375,-0.95391845703125,0.16400146484375
1759782727386,985551495,9987,30,-0.197998046875,-0.98492431640625,0.16522216796875
1759782727386,985551495,9987,31,-0.20703125,-0.96929931640625,0.08123779296875
1759782730097,985554068,9988,0,-0.135498046875,-0.95513916015625,0.15277099609375
1759782730097,985554068,9988,1,-0.219970703125,-0.94122314453125,0.15692138671875
1759782730097,985554068,9988,2,-0.197265625,-0.98248291015625,0.17523193359375
1759782730097,985554068,9988,3,-0.171630859375,-0.95001220703125,0.13861083984375
1759782730097,985554068,9988,4,-0.19140625,-0.98541259765625,0.17596435546875
1759782730097,985554068,9988,5,-0.2138671875,-0.95611572265625,0.16229248046875
1759782730097,985554068,9988,6,-0.1826171875,-0.95489501953125,0.15765380859375
1759782730097,985554068,9988,7,-0.195556640625,-0.96246337890625,0.17962646484375
1759782730097,985554068,9988,8,-0.212646484375,-0.95587158203125,0.17864990234375
1759782730097,985554068,9988,9,-0.2060546875,-0.95001220703125,0.15716552734375
1759782730097,985554068,9988,10,-0.15283203125,-0.94097900390625,0.13836669921875
1759782730097,985554068,9988,11,-0.223876953125,-0.97760009765625,0.22869873046875
1759782730097,985554068,9988,12,-0.20263671875,-0.93731689453125,0.18157958984375
1759782730097,985554068,9988,13,-0.2080078125,-0.95318603515625,0.19012451171875
1759782730097,985554068,9988,14,-0.194580078125,-0.95416259765625,0.16986083984375
1759782730097,985554068,9988,15,-0.156494140625,-0.97003173828125,0.12445068359375
1759782730097,985554068,9988,16,-0.19091796875,-0.96588134765625,0.19427490234375
1759782730097,985554068,9988,17,-0.2333984375,-0.93511962890625,0.21160888671875
1759782730097,985554068,9988,18,-0.152587890625,-0.96710205078125,0.12322998046875
1759782730097,985554068,9988,19,-0.185546875,-0.98028564453125,0.18499755859375
1759782730097,985554068,9988,20,-0.201171875,-0.93292236328125,0.18719482421875
1759782730097,985554068,9988,21,-0.208984375,-0.94537353515625,0.18719482421875
1759782730097,985554068,9988,22,-0.22265625,-0.97857666015625,0.24652099609375
1759782730097,985554068,9988,23,-0.177734375,-0.90240478515625,0.19036865234375
1759782730097,985554068,9988,24,-0.248046875,-0.96173095703125,0.23675537109375
1759782730097,985554068,9988,25,-0.173828125,-0.95050048828125,0.18426513671875
1759782730097,985554068,9988,26,-0.25732421875,-0.95806884765625,0.26263427734375
1759782730097,985554068,9988,27,-0.234375,-0.86676025390625,0.20745849609375
1759782730097,985554068,9988,28,-0.1943359375,-0.98590087890625,0.17572021484375
1759782730097,985554068,9988,29,-0.1865234375,-0.94146728515625,0.19256591796875
1759782730097,985554068,9988,30,-0.231201171875,-0.95025634765625,0.21160888671875
1759782730097,985554068,9988,31,-0.174560546875,-0.96295166015625,0.15350341796875
1759782732797,985556641,9989,0,-0.162841796875,-0.94683837890625,0.15008544921875
1759782732797,985556641,9989,1,-0.175537109375,-0.99298095703125,0.14251708984375
1759782732797,985556641,9989,2,-0.165283203125,-0.98956298828125,0.15008544921875
1759782732797,985556641,9989,3,-0.21484375,-0.95513916015625,0.11712646484375
1759782732797,985556641,9989,4,-0.197265625,-0.97296142578125,0.16229248046875
1759782732797,985556641,9989,5,-0.210693359375,-0.94342041015625,0.18743896484375
1759782732797,985556641,9989,6,-0.21728515625,-0.94903564453125,0.14764404296875
1759782732797,985556641,9989,7,-0.195556640625,-0.94464111328125,0.11370849609375
1759782732797,985556641,9989,8,-0.156982421875,-0.96124267578125,0.15252685546875
1759782732797,985556641,9989,9,-0.224853515625,-0.98028564453125,0.16497802734375
1759782732797,985556641,9989,10,-0.146240234375,-0.97955322265625,0.10858154296875
1759782732797,985556641,9989,11,-0.116455078125,-0.96539306640625,0.10198974609375
1759782732797,985556641,9989,12,-0.16015625,-0.98077392578125,0.10833740234375
1759782732797,985556641,9989,13,-0.229248046875,-1.01959228515625,0.13519287109375
1759782732797,985556641,9989,14,-0.10791015625,-0.93023681640625,0.10369873046875
1759782732797,985556641,9989,15,-0.221435546875,-0.95465087890625,0.20599365234375
1759782732797,985556641,9989,16,-0.220703125,-0.93121337890625,0.17864990234375
1759782732797,985556641,9989,17,-0.14208984375,-0.98321533203125,0.17987060546875
1759782732797,985556641,9989,18,-0.18603515625,-0.95196533203125,0.18426513671875
1759782732797,985556641,9989,19,-0.173095703125,-0.96490478515625,0.15911865234375
1759782732797,985556641,9989,20,-0.1201171875,-0.98199462890625,0.10711669921875
1759782732797,985556641,9989,21,-0.1640625,-0.97076416015625,0.13836669921875
1759782732797,985556641,9989,22,-0.155029296875,-0.94927978515625,0.12445068359375
1759782732797,985556641,9989,23,-0.19921875,-0.98785400390625,0.10711669921875
1759782732797,985556641,9989,24,-0.164794921875,-0.98663330078125,0.09490966796875
1759782732797,985556641,9989,25,-0.10205078125,-0.99468994140625,0.03973388671875
1759782732797,985556641,9989,26,-0.218017578125,-0.97564697265625,0.11810302734375
1759782732797,985556641,9989,27,-0.127197265625,-1.00933837890625,0.11370849609375
1759782732797,985556641,9989,28,-0.2353515625,-0.97442626953125,0.11737060546875
1759782732797,985556641,9989,29,-0.19384765625,-0.95440673828125,0.12786865234375
1759782732797,985556641,9989,30,-0.142822265625,-0.95880126953125,0.13055419921875
1759782732797,985556641,9989,31,-0.177734375,-0.97296142578125,0.16717529296875
1759782735137,985559214,9990,0,-0.1962890625,-0.93463134765625,0.16815185546875
1759782735137,985559214,9990,1,-0.249755859375,-0.92755126953125,0.19207763671875
1759782735137,985559214,9990,2,-0.33935546875,-0.92022705078125,0.27557373046875
1759782735137,985559214,9990,3,-0.25244140625,-0.87335205078125,0.25262451171875
1759782735137,985559214,9990,4,-0.232177734375,-0.95587158203125,0.25067138671875
1759782735137,985559214,9990,5,-0.2783203125,-0.92486572265625,0.25994873046875
1759782735137,985559214,9990,6,-0.25537109375,-0.92364501953125,0.29559326171875
1759782735137,985559214,9990,7,-0.298095703125,-0.90435791015625,0.25311279296875
1759782735137,985559214,9990,8,-0.2529296875,-0.91021728515625,0.25750732421875
1759782735137,985559214,9990,9,-0.263427734375,-0.93463134765625,0.24237060546875
1759782735137,985559214,9990,10,-0.22412109375,-0.92022705078125,0.19305419921875
1759782735137,985559214,9990,11,-0.210205078125,-0.93756103515625,0.14495849609375
1759782735137,985559214,9990,12,-0.197265625,-0.95538330078125,0.15716552734375
1759782735137,985559214,9990,13,-0.17919921875,-0.94683837890625,0.05267333984375
1759782735137,985559214,9990,14,-0.147216796875,-1.00933837890625,0.00604248046875
1759782735137,985559214,9990,15,-0.165283203125,-1.01519775390625,-0.00787353515625
1759782735137,985559214,9990,16,-0.12451171875,-1.02642822265625,-0.08282470703125
1759782735137,985559214,9990,17,-0.13427734375,-1.04718017578125,-0.04815673828125
1759782735137,985559214,9990,18,-0.132080078125,-1.00689697265625,-0.06109619140625
1759782735137,985559214,9990,19,-0.150146484375,-0.99542236328125,-0.04351806640625
1759782735137,985559214,9990,20,-0.146484375,-1.01910400390625,-0.04107666015625
1759782735137,985559214,9990,21,-0.18017578125,-0.99322509765625,0.02557373046875
1759782735137,985559214,9990,22,-0.207763671875,-0.94293212890625,0.03924560546875
1759782735137,985559214,9990,23,-0.135986328125,-0.90802001953125,0.01165771484375
1759782735137,985559214,9990,24,-0.278076171875,-1.00860595703125,0.19012451171875
1759782735137,985559214,9990,25,-0.321044921875,-0.87823486328125,0.12982177734375
1759782735137,985559214,9990,26,-0.23193359375,-0.99859619140625,0.16522216796875
1759782735137,985559214,9990,27,-0.23583984375,-0.95782470703125,0.11859130859375
1759782735137,985559214,9990,28,-0.20458984375,-0.96441650390625,0.13934326171875
1759782735137,985559214,9990,29,-0.249755859375,-0.97833251953125,0.15472412109375
1759782735137,985559214,9990,30,-0.234619140625,-0.93756103515625,0.16888427734375
1759782735137,985559214,9990,31,-0.201171875,-0.96270751953125,0.14398193359375
1759782737656,985561787,9991,0,-0.181396484375,-0.95196533203125,0.15155029296875
1759782737656,985561787,9991,1,-0.18798828125,-0.96246337890625,0.14105224609375
1759782737656,985561787,9991,2,-0.152587890625,-0.96466064453125,0.11370849609375
1759782737656,985561787,9991,3,-0.14501953125,-0.95684814453125,0.06927490234375
1759782737656,985561787,9991,4,-0.11083984375,-1.02496337890625,0.05657958984375
1759782737656,985561787,9991,5,-0.15869140625,-0.99029541015625,0.06854248046875
1759782737656,985561787,9991,6,-0.11376953125,-0.97955322265625,0.04559326171875
1759782737656,985561787,9991,7,-0.0830078125,-1.01666259765625,0.02215576171875
1759782737656,985561787,9991,8,-0.079833984375,-0.98785400390625,0.01287841796875
1759782737656,985561787,9991,9,-0.066162109375,-1.00347900390625,0.02947998046875
1759782737656,985561787,9991,10,-0.12451171875,-1.00616455078125,0.06268310546875
1759782737656,985561787,9991,11,-0.130859375,-0.99493408203125,0.04608154296875
1759782737656,985561787,9991,12,-0.112548828125,-0.98419189453125,0.07293701171875
1759782737656,985561787,9991,13,-0.1650390625,-0.96392822265625,0.10931396484375
1759782737656,985561787,9991,14,-0.193115234375,-0.92755126953125,0.10565185546875
1759782737656,985561787,9991,15,-0.201416015625,-0.97833251953125,0.15472412109375
1759782737656,985561787,9991,16,-0.255615234375,-0.94854736328125,0.23333740234375
1759782737656,985561787,9991,17,-0.13720703125,-0.93292236328125,0.11883544921875
1759782737656,985561787,9991,18,-0.1279296875,-0.99981689453125,0.13983154296875
1759782737656,985561787,9991,19,-0.283935546875,-0.97467041015625,0.22259521484375
1759782737656,985561787,9991,20,-0.17578125,-0.92706298828125,0.18768310546875
1759782737656,985561787,9991,21,-0.168701171875,-0.98419189453125,0.20477294921875
1759782737656,985561787,9991,22,-0.15576171875,-0.92828369140625,0.18695068359375
1759782737656,985561787,9991,23,-0.132080078125,-0.97589111328125,0.17327880859375
1759782737656,985561787,9991,24,-0.151611328125,-0.98541259765625,0.15301513671875
1759782737656,985561787,9991,25,-0.17626953125,-0.92291259765625,0.16546630859375
1759782737656,985561787,9991,26,-0.14697265625,-1.01177978515625,0.15106201171875
1759782737656,985561787,9991,27,-0.09716796875,-0.95758056640625,0.11126708984375
1759782737656,985561787,9991,28,-0.125,-0.95098876953125,0.09637451171875
1759782737656,985561787,9991,29,-0.138916015625,-0.98126220703125,0.09100341796875
1759782737656,985561787,9991,30,-0.089111328125,-1.01837158203125,0.01824951171875
1759782737656,985561787,9991,31,-0.120361328125,-1.01519775390625,0.05828857421875
1759782740349,985564360,9992,0,-0.15087890625,-0.96539306640625,0.06146240234375
1759782740349,985564360,9992,1,-0.10595703125,-1.02056884765625,0.04803466796875
1759782740349,985564360,9992,2,-0.098388671875,-0.98321533203125,0.02655029296875
1759782740349,985564360,9992,3,-0.1298828125,-1.00347900390625,0.03826904296875
1759782740349,985564360,9992,4,-0.114013671875,-0.97320556640625,0.06732177734375
1759782740349,985564360,9992,5,-0.11767578125,-0.97711181640625,0.09686279296875
1759782740349,985564360,9992,6,-0.13330078125,-0.97271728515625,0.13958740234375
1759782740349,985564360,9992,7,-0.201416015625,-1.00616455078125,0.10174560546875
1759782740349,985564360,9992,8,-0.17529296875,-0.93780517578125,0.13470458984375
1759782740349,985564360,9992,9,-0.207275390625,-0.95196533203125,0.19500732421875
1759782740349,985564360,9992,10,-0.12890625,-0.94757080078125,0.18548583984375
1759782740349,985564360,9992,11,-0.216064453125,-0.95977783203125,0.18695068359375
1759782740349,985564360,9992,12,-0.24951171875,-0.95831298828125,0.18768310546875
1759782740349,985564360,9992,13,-0.168701171875,-0.94366455078125,0.16986083984375
1759782740349,985564360,9992,14,-0.26220703125,-0.96368408203125,0.18988037109375
1759782740349,985564360,9992,15,-0.2109375,-0.95782470703125,0.14959716796875
1759782740349,985564360,9992,16,-0.167236328125,-0.93194580078125,0.15936279296875
1759782740349,985564360,9992,17,-0.169921875,-0.98663330078125,0.10516357421875
1759782740349,985564360,9992,18,-0.197998046875,-1.01910400390625,0.00701904296875
1759782740349,985564360,9992,19,-0.190673828125,-0.96343994140625,0.15423583984375
1759782740349,985564360,9992,20,-0.128662109375,-0.93634033203125,0.06976318359375
1759782740349,985564360,9992,21,-0.192138671875,-1.01641845703125,0.08636474609375
1759782740349,985564360,9992,22,-0.088134765625,-0.95855712890625,0.09564208984375
1759782740349,985564360,9992,23,-0.17333984375,-0.98175048828125,0.06854248046875
1759782740349,985564360,9992,24,-0.104248046875,-1.00640869140625,0.04656982421875
1759782740349,985564360,9992,25,-0.08544921875,-0.97882080078125,0.02337646484375
1759782740349,985564360,9992,26,-0.12548828125,-1.01129150390625,0.06048583984375
1759782740349,985564360,9992,27,-0.08642578125,-1.03106689453125,0.00311279296875
1759782740349,985564360,9992,28,-0.082275390625,-0.99127197265625,0.02606201171875
1759782740349,985564360,9992,29,-0.053466796875,-0.98150634765625,-0.00250244140625
1759782740349,985564360,9992,30,-0.077392578125,-1.01055908203125,0.00775146484375
1759782740349,985564360,9992,31,-0.097412109375,-1.00225830078125,0.05584716796875
1759782742877,985566934,9993,0,-0.140380859375,-0.97784423828125,0.09173583984375
1759782742877,985566934,9993,1,-0.123779296875,-0.96929931640625,0.12567138671875
1759782742877,985566934,9993,2,-0.15478515625,-0.93927001953125,0.15740966796875
1759782742877,985566934,9993,3,-0.147705078125,-0.94683837890625,0.14764404296875
1759782742877,985566934,9993,4,-0.170654296875,-1.01519775390625,0.13153076171875
1759782742877,985566934,9993,5,-0.134521484375,-0.97930908203125,0.13372802734375
1759782742877,985566934,9993,6,-0.1552734375,-0.96417236328125,0.15887451171875
1759782742877,985566934,9993,7,-0.18017578125,-0.98150634765625,0.15203857421875
1759782742877,985566934,9993,8,-0.205322265625,-0.94757080078125,0.16400146484375
1759782742877,985566934,9993,9,-0.185302734375,-0.94195556640625,0.13983154296875
1759782742877,985566934,9993,10,-0.195556640625,-0.93267822265625,0.18524169921875
1759782742877,985566934,9993,11,-0.16162109375,-0.96539306640625,0.17083740234375
1759782742877,985566934,9993,12,-0.077880859375,-0.96710205078125,0.09588623046875
1759782742877,985566934,9993,13,-0.170166015625,-1.04888916015625,0.10882568359375
1759782742877,985566934,9993,14,-0.165283203125,-0.91876220703125,0.11175537109375
1759782742877,985566934,9993,15,-0.118408203125,-0.98590087890625,0.11907958984375
1759782742877,985566934,9993,16,-0.155029296875,-0.99835205078125,0.12713623046875
1759782742877,985566934,9993,17,-0.10205078125,-0.96099853515625,0.05926513671875
1759782742877,985566934,9993,18,-0.13330078125,-1.01861572265625,0.09613037109375
1759782742877,985566934,9993,19,-0.125,-0.96612548828125,0.07659912109375
1759782742877,985566934,9993,20,-0.138671875,-0.99639892578125,0.07830810546875
1759782742877,985566934,9993,21,-0.135498046875,-0.98980712890625,0.07757568359375
1759782742877,985566934,9993,22,-0.128662109375,-0.97613525390625,0.10321044921875
1759782742877,985566934,9993,23,-0.14306640625,-0.97711181640625,0.10272216796875
1759782742877,985566934,9993,24,-0.09912109375,-0.99786376953125,0.08416748046875
1759782742877,985566934,9993,25,-0.120361328125,-0.98614501953125,0.09173583984375
1759782742877,985566934,9993,26,-0.09521484375,-0.97711181640625,0.10614013671875
1759782742877,985566934,9993,27,-0.186279296875,-0.99932861328125,0.14080810546875
1759782742877,985566934,9993,28,-0.093505859375,-0.94927978515625,0.08905029296875
1759782742877,985566934,9993,29,-0.096435546875,-0.93487548828125,0.13787841796875
1759782742877,985566934,9993,30,-0.282958984375,-0.94171142578125,0.16278076171875
1759782742877,985566934,9993,31,-0.155029296875,-1.01153564453125,0.10955810546875
1759782745396,985569507,9994,0,-0.14208984375,-0.97149658203125,0.21014404296875
1759782745396,985569507,9994,1,-0.2060546875,-0.94927978515625,0.15960693359375
1759782745396,985569507,9994,2,-0.2099609375,-0.97735595703125,0.21282958984375
1759782745396,985569507,9994,3,-0.18994140625,-0.93365478515625,0.16180419921875
1759782745396,985569507,9994,4,-0.174072265625,-0.95904541015625,0.15936279296875
1759782745396,985569507,9994,5,-0.197021484375,-0.96466064453125,0.18328857421875
1759782745396,985569507,9994,6,-0.21728515625,-0.96490478515625,0.19281005859375
1759782745396,985569507,9994,7,-0.137939453125,-0.95635986328125,0.18548583984375
1759782745396,985569507,9994,8,-0.202880859375,-0.97027587890625,0.17230224609375
1759782745396,985569507,9994,9,-0.169921875,-0.95513916015625,0.17523193359375
1759782745396,985569507,9994,10,-0.161865234375,-0.96441650390625,0.17645263671875
1759782745396,985569507,9994,11,-0.169189453125,-0.94073486328125,0.17132568359375
1759782745396,985569507,9994,12,-0.16455078125,-0.94464111328125,0.14202880859375
1759782745396,985569507,9994,13,-0.1298828125,-0.97491455078125,0.09222412109375
1759782745396,985569507,9994,14,-0.16455078125,-1.02642822265625,0.10906982421875
1759782745396,985569507,9994,15,-0.195556640625,-0.92730712890625,0.15692138671875
1759782745396,985569507,9994,16,-0.189208984375,-0.96197509765625,0.16668701171875
1759782745396,985569507,9994,17,-0.196044921875,-0.96734619140625,0.17840576171875
1759782745396,985569507,9994,18,-0.161865234375,-0.90997314453125,0.15130615234375
1759782745396,985569507,9994,19,-0.193603515625,-0.96319580078125,0.14495849609375
1759782745396,985569507,9994,20,-0.24365234375,-1.00152587890625,0.21820068359375
1759782745396,985569507,9994,21,-0.2158203125,-0.94561767578125,0.19720458984375
1759782745396,985569507,9994,22,-0.171142578125,-0.94976806640625,0.21160888671875
1759782745396,985569507,9994,23,-0.1845703125,-0.94000244140625,0.20819091796875
1759782745396,985569507,9994,24,-0.239501953125,-0.91949462890625,0.24774169921875
1759782745396,985569507,9994,25,-0.247802734375,-0.95587158203125,0.24017333984375
1759782745396,985569507,9994,26,-0.201416015625,-0.91339111328125,0.21136474609375
1759782745396,985569507,9994,27,-0.202880859375,-0.94879150390625,0.21771240234375
1759782745396,985569507,9994,28,-0.21484375,-0.92926025390625,0.22454833984375
1759782745396,985569507,9994,29,-0.238037109375,-0.95806884765625,0.23284912109375
1759782745396,985569507,9994,30,-0.18896484375,-0.92877197265625,0.20355224609375
1759782745396,985569507,9994,31,-0.2421875,-0.94830322265625,0.23602294921875
1759782748096,985572080,9995,0,-0.232666015625,-0.93975830078125,0.23358154296875
1759782748096,985572080,9995,1,-0.212890625,-0.93585205078125,0.20819091796875
1759782748096,985572080,9995,2,-0.18603515625,-0.93780517578125,0.24139404296875
1759782748096,985572080,9995,3,-0.21826171875,-0.92999267578125,0.21405029296875
1759782748096,985572080,9995,4,-0.240478515625,-0.94879150390625,0.20428466796875
1759782748096,985572080,9995,5,-0.2158203125,-0.94390869140625,0.19769287109375
1759782748096,985572080,9995,6,-0.24755859375,-0.93804931640625,0.17620849609375
1759782748096,985572080,9995,7,-0.19287109375,-0.94781494140625,0.17132568359375
1759782748096,985572080,9995,8,-0.21826171875,-0.95928955078125,0.17205810546875
1759782748096,985572080,9995,9,-0.19140625,-0.97393798828125,0.14813232421875
1759782748096,985572080,9995,10,-0.16943359375,-0.96514892578125,0.17010498046875
1759782748096,985572080,9995,11,-0.179931640625,-0.93487548828125,0.14935302734375
1759782748096,985572080,9995,12,-0.251708984375,-0.97760009765625,0.17694091796875
1759782748096,985572080,9995,13,-0.153076171875,-0.95831298828125,0.15032958984375
1759782748096,985572080,9995,14,-0.156494140625,-0.98419189453125,0.12225341796875
1759782748096,985572080,9995,15,-0.166748046875,-0.97564697265625,0.12860107421875
1759782748096,985572080,9995,16,-0.188232421875,-0.96368408203125,0.15960693359375
1759782748096,985572080,9995,17,-0.171875,-0.95001220703125,0.15472412109375
1759782748096,985572080,9995,18,-0.150390625,-0.97857666015625,0.15399169921875
1759782748096,985572080,9995,19,-0.220458984375,-0.93218994140625,0.18548583984375
1759782748096,985572080,9995,20,-0.15771484375,-0.97003173828125,0.17083740234375
1759782748096,985572080,9995,21,-0.168701171875,-0.96807861328125,0.17279052734375
1759782748096,985572080,9995,22,-0.20654296875,-0.96783447265625,0.19281005859375
1759782748096,985572080,9995,23,-0.19873046875,-0.95172119140625,0.15228271484375
1759782748096,985572080,9995,24,-0.178955078125,-0.94927978515625,0.18377685546875
1759782748096,985572080,9995,25,-0.207763671875,-0.94659423828125,0.20233154296875
1759782748096,985572080,9995,26,-0.2763671875,-0.93707275390625,0.20648193359375
1759782748096,985572080,9995,27,-0.21728515625,-0.94415283203125,0.16741943359375
1759782748096,985572080,9995,28,-0.1904296875,-0.96051025390625,0.11834716796875
1759782748096,985572080,9995,29,-0.215576171875,-0.95733642578125,0.14666748046875
1759782748096,985572080,9995,30,-0.223388671875,-0.97760009765625,0.13006591796875
1759782748096,985572080,9995,31,-0.241455078125,-0.97760009765625,0.17987060546875
1759782750617,985574647,9996,0,-0.180419921875,-0.92608642578125,0.14520263671875
1759782750617,985574647,9996,1,-0.15185546875,-0.97540283203125,0.12908935546875
1759782750617,985574647,9996,2,-0.163818359375,-1.01617431640625,0.10711669921875
1759782750617,985574647,9996,3,-0.135498046875,-0.94635009765625,0.13568115234375
1759782750617,985574647,9996,4,-0.1689453125,-0.95904541015625,0.14324951171875
1759782750617,985574647,9996,5,-0.12451171875,-0.97882080078125,0.09906005859375
1759782750617,985574647,9996,6,-0.0615234375,-1.00054931640625,0.07879638671875
1759782750617,985574647,9996,7,-0.130126953125,-0.95782470703125,0.04583740234375
1759782750617,985574647,9996,8,-0.076416015625,-0.99761962890625,0.03802490234375
1759782750617,985574647,9996,9,-0.053466796875,-1.00054931640625,0.02362060546875
1759782750617,985574647,9996,10,-0.0693359375,-1.02398681640625,0.01068115234375
1759782750617,985574647,9996,11,-0.0712890625,-0.99957275390625,0.02093505859375
1759782750617,985574647,9996,12,-0.099365234375,-1.00640869140625,-0.01715087890625
1759782750617,985574647,9996,13,-0.125732421875,-1.00762939453125,0.01922607421875
1759782750617,985574647,9996,14,-0.1318359375,-0.99737548828125,0.03533935546875
1759782750617,985574647,9996,15,-0.12451171875,-0.98760986328125,0.03778076171875
1759782750617,985574647,9996,16,-0.171630859375,-0.98077392578125,0.03387451171875
1759782750617,985574647,9996,17,-0.20751953125,-0.91021728515625,0.13983154296875
1759782750617,985574647,9996,18,-0.142578125,-0.98223876953125,0.14178466796875
1759782750617,985574647,9996,19,-0.19140625,-0.96881103515625,0.12078857421875
1759782750617,985574647,9996,20,-0.162353515625,-0.99395751953125,0.11810302734375
1759782750617,985574647,9996,21,-0.19775390625,-0.95709228515625,0.14349365234375
1759782750617,985574647,9996,22,-0.236083984375,-0.97857666015625,0.18109130859375
1759782750617,985574647,9996,23,-0.150146484375,-0.96661376953125,0.13934326171875
1759782750617,985574647,9996,24,-0.256591796875,-0.91827392578125,0.15545654296875
1759782750617,985574647,9996,25,-0.16162109375,-1.00006103515625,0.17547607421875
1759782750617,985574647,9996,26,-0.178466796875,-0.94122314453125,0.15228271484375
1759782750617,985574647,9996,27,-0.19287109375,-0.95806884765625,0.16497802734375
1759782750617,985574647,9996,28,-0.214599609375,-0.94561767578125,0.15838623046875
1759782750617,985574647,9996,29,-0.196044921875,-0.96197509765625,0.14617919921875
1759782750617,985574647,9996,30,-0.15380859375,-0.96173095703125,0.09588623046875
1759782750617,985574647,9996,31,-0.189208984375,-0.98785400390625,0.09759521484375
1759782753137,985577220,9997,0,-0.169921875,-0.91461181640625,0.04779052734375
1759782753137,985577220,9997,1,-0.1474609375,-1.07208251953125,0.06561279296875
1759782753137,985577220,9997,2,-0.1982421875,-1.01934814453125,0.07537841796875
1759782753137,985577220,9997,3,-0.185791015625,-0.97735595703125,0.05242919921875
1759782753137,985577220,9997,4,-0.151611328125,-0.98248291015625,-0.00592041015625
1759782753137,985577220,9997,5,-0.17626953125,-0.95513916015625,0.03021240234375
1759782753137,985577220,9997,6,-0.1298828125,-1.00665283203125,0.04193115234375
1759782753137,985577220,9997,7,-0.19677734375,-0.97198486328125,0.06292724609375
1759782753137,985577220,9997,8,-0.15234375,-0.97027587890625,0.05023193359375
1759782753137,985577220,9997,9,-0.173583984375,-0.98687744140625,0.07855224609375
1759782753137,985577220,9997,10,-0.1650390625,-0.97540283203125,0.08465576171875
1759782753137,985577220,9997,11,-0.15478515625,-0.98321533203125,0.09027099609375
1759782753137,985577220,9997,12,-0.17431640625,-0.97467041015625,0.09735107421875
1759782753137,985577220,9997,13,-0.189697265625,-0.96783447265625,0.07440185546875
1759782753137,985577220,9997,14,-0.166015625,-0.98345947265625,0.08367919921875
1759782753137,985577220,9997,15,-0.15576171875,-0.95953369140625,0.05096435546875
