receivedPhoneTimestamp,respeckTimestamp,packetSeqNum,sampleSeqNum,accelX,accelY,accelZ
1759672824643,800846368,7332,26,0.016845703125,-0.98858642578125,0.05828857421875
1759672824643,800846368,7332,27,-0.0595703125,-1.01470947265625,0.08514404296875
1759672824643,800846368,7332,28,-0.0419921875,-0.95611572265625,0.05535888671875
1759672824643,800846368,7332,29,-0.00244140625,-1.00811767578125,0.08123779296875
1759672824643,800846368,7332,30,-0.059326171875,-0.98052978515625,0.07684326171875
1759672824643,800846368,7332,31,-0.057373046875,-0.98590087890625,0.15863037109375
1759672827342,800848947,7333,0,-0.04296875,-0.93804931640625,0.13616943359375
1759672827342,800848947,7333,1,-0.065185546875,-0.99835205078125,0.16107177734375
1759672827342,800848947,7333,2,-0.049560546875,-0.94927978515625,0.12396240234375
1759672827342,800848947,7333,3,-0.061279296875,-0.99981689453125,0.13885498046875
1759672827342,800848947,7333,4,-0.00927734375,-0.96929931640625,0.09466552734375
1759672827342,800848947,7333,5,-0.080810546875,-0.97637939453125,0.13958740234375
1759672827342,800848947,7333,6,-0.07421875,-0.96832275390625,0.12982177734375
1759672827342,800848947,7333,7,-0.04052734375,-0.97857666015625,0.15545654296875
1759672827342,800848947,7333,8,-0.071044921875,-0.96295166015625,0.15374755859375
1759672827342,800848947,7333,9,-0.04150390625,-0.98297119140625,0.14984130859375
1759672827342,800848947,7333,10,-0.077880859375,-0.96685791015625,0.14617919921875
1759672827342,800848947,7333,11,-0.0546875,-0.95782470703125,0.13958740234375
1759672827342,800848947,7333,12,-0.044921875,-0.98101806640625,0.10394287109375
1759672827342,800848947,7333,13,-0.056884765625,-1.03448486328125,0.04241943359375
1759672827342,800848947,7333,14,-0.051025390625,-0.96539306640625,0.08709716796875
1759672827342,800848947,7333,15,-0.033447265625,-0.98492431640625,0.07684326171875
1759672827342,800848947,7333,16,-0.052734375,-0.94512939453125,0.14227294921875
1759672827342,800848947,7333,17,-0.142822265625,-0.98785400390625,0.13690185546875
1759672827342,800848947,7333,18,0.009033203125,-0.98223876953125,0.11419677734375
1759672827342,800848947,7333,19,-0.06982421875,-0.96759033203125,0.11102294921875
1759672827342,800848947,7333,20,-0.044677734375,-1.00689697265625,0.09197998046875
1759672827342,800848947,7333,21,0.006591796875,-0.96929931640625,0.05731201171875
1759672827342,800848947,7333,22,-0.033447265625,-0.97637939453125,0.05438232421875
1759672827342,800848947,7333,23,-0.019287109375,-1.00372314453125,0.08441162109375
1759672827342,800848947,7333,24,-0.049560546875,-0.98907470703125,0.11102294921875
1759672827342,800848947,7333,25,-0.0576171875,-0.95684814453125,0.08978271484375
1759672827342,800848947,7333,26,-0.046142578125,-1.00054931640625,0.09246826171875
1759672827342,800848947,7333,27,-0.055908203125,-0.95880126953125,0.10491943359375
1759672827342,800848947,7333,28,-0.1494140625,-0.97686767578125,0.14178466796875
1759672827342,800848947,7333,29,-0.124267578125,-0.97833251953125,0.10711669921875
1759672827342,800848947,7333,30,0.003173828125,-0.95733642578125,0.07830810546875
1759672827342,800848947,7333,31,0.01611328125,-0.98468017578125,0.10882568359375
1759672829891,800851526,7334,0,-0.001953125,-1.00567626953125,0.12054443359375
1759672829891,800851526,7334,1,-0.005859375,-1.00201416015625,0.10125732421875
1759672829891,800851526,7334,2,0.00732421875,-0.95416259765625,0.03900146484375
1759672829891,800851526,7334,3,-0.03564453125,-0.96392822265625,0.06170654296875
1759672829891,800851526,7334,4,-0.00244140625,-0.98394775390625,0.09075927734375
1759672829891,800851526,7334,5,-0.095458984375,-1.00543212890625,0.10614013671875
1759672829891,800851526,7334,6,0.022705078125,-0.96343994140625,0.05511474609375
1759672829891,800851526,7334,7,-0.0927734375,-0.99322509765625,0.12322998046875
1759672829891,800851526,7334,8,-0.03662109375,-0.96759033203125,0.09222412109375
1759672829891,800851526,7334,9,-0.06787109375,-0.99444580078125,0.08782958984375
1759672829891,800851526,7334,10,-0.0478515625,-0.96343994140625,0.10955810546875
1759672829891,800851526,7334,11,-0.05859375,-0.99859619140625,0.10662841796875
1759672829891,800851526,7334,12,-0.01611328125,-0.95733642578125,0.08734130859375
1759672829891,800851526,7334,13,-0.072021484375,-0.97198486328125,0.11712646484375
1759672829891,800851526,7334,14,-0.06298828125,-0.98468017578125,0.14373779296875
1759672829891,800851526,7334,15,-0.056884765625,-1.02227783203125,0.11590576171875
1759672829891,800851526,7334,16,-0.041259765625,-0.93902587890625,0.08148193359375
1759672829891,800851526,7334,17,-0.059326171875,-0.97149658203125,0.12982177734375
1759672829891,800851526,7334,18,-0.04345703125,-0.98443603515625,0.10101318359375
1759672829891,800851526,7334,19,-0.0185546875,-0.99981689453125,0.13787841796875
1759672829891,800851526,7334,20,-0.120361328125,-0.97149658203125,0.15032958984375
1759672829891,800851526,7334,21,-0.038818359375,-0.97418212890625,0.08001708984375
1759672829891,800851526,7334,22,-0.068359375,-0.98638916015625,0.13568115234375
1759672829891,800851526,7334,23,-0.05126953125,-0.94683837890625,0.12054443359375
1759672829891,800851526,7334,24,-0.09521484375,-0.98175048828125,0.16961669921875
1759672829891,800851526,7334,25,-0.0380859375,-0.99127197265625,0.14300537109375
1759672829891,800851526,7334,26,-0.043701171875,-0.99249267578125,0.12054443359375
1759672829891,800851526,7334,27,-0.040283203125,-0.96905517578125,0.07611083984375
1759672829891,800851526,7334,28,-0.022216796875,-0.95050048828125,0.05413818359375
1759672829891,800851526,7334,29,-0.051025390625,-0.99127197265625,0.10540771484375
1759672829891,800851526,7334,30,-0.025390625,-0.98028564453125,0.09808349609375
1759672829891,800851526,7334,31,-0.11181640625,-0.99713134765625,0.15252685546875
1759672832442,800854105,7335,0,-0.04638671875,-0.96905517578125,0.08587646484375
1759672832442,800854105,7335,1,-0.0380859375,-1.00225830078125,0.11737060546875
1759672832442,800854105,7335,2,-0.025146484375,-0.94146728515625,0.09906005859375
1759672832442,800854105,7335,3,-0.12646484375,-0.99395751953125,0.16448974609375
1759672832442,800854105,7335,4,-0.068115234375,-0.95928955078125,0.14447021484375
1759672832442,800854105,7335,5,-0.05029296875,-0.99298095703125,0.13055419921875
1759672832442,800854105,7335,6,-0.05078125,-0.98492431640625,0.10784912109375
1759672832442,800854105,7335,7,-0.06640625,-0.96246337890625,0.12908935546875
1759672832442,800854105,7335,8,-0.033447265625,-0.98394775390625,0.10516357421875
1759672832442,800854105,7335,9,-0.01904296875,-0.96856689453125,0.05804443359375
1759672832442,800854105,7335,10,-0.0390625,-0.98468017578125,0.08782958984375
1759672832442,800854105,7335,11,-0.07177734375,-0.98101806640625,0.11248779296875
1759672832442,800854105,7335,12,-0.099365234375,-1.00177001953125,0.10296630859375
1759672832442,800854105,7335,13,-0.101806640625,-0.95440673828125,0.07781982421875
1759672832442,800854105,7335,14,-0.025390625,-0.99908447265625,0.10052490234375
1759672832442,800854105,7335,15,-0.077880859375,-0.96759033203125,0.09661865234375
1759672832442,800854105,7335,16,-0.11376953125,-0.98614501953125,0.12933349609375
1759672832442,800854105,7335,17,-0.0712890625,-0.96856689453125,0.10638427734375
1759672832442,800854105,7335,18,-0.04150390625,-0.98394775390625,0.13812255859375
1759672832442,800854105,7335,19,-0.119873046875,-0.94927978515625,0.10003662109375
1759672832442,800854105,7335,20,-0.04248046875,-1.02984619140625,0.07098388671875
1759672832442,800854105,7335,21,-0.043701171875,-0.97271728515625,0.02850341796875
1759672832442,800854105,7335,22,0.001708984375,-0.97540283203125,0.04656982421875
1759672832442,800854105,7335,23,-0.05615234375,-0.97491455078125,0.05633544921875
1759672832442,800854105,7335,24,-0.078125,-0.99908447265625,0.10125732421875
1759672832442,800854105,7335,25,-0.11376953125,-0.98370361328125,0.08929443359375
1759672832442,800854105,7335,26,-0.063232421875,-0.96636962890625,0.08978271484375
1759672832442,800854105,7335,27,-0.0302734375,-0.99713134765625,0.09613037109375
1759672832442,800854105,7335,28,-0.0322265625,-0.97784423828125,0.08905029296875
1759672832442,800854105,7335,29,-0.075439453125,-0.96954345703125,0.13665771484375
1759672832442,800854105,7335,30,-0.116943359375,-0.98858642578125,0.12030029296875
1759672832442,800854105,7335,31,-0.033447265625,-0.99761962890625,0.09197998046875
1759672834991,800856684,7336,0,-0.05615234375,-0.97149658203125,0.05340576171875
1759672834991,800856684,7336,1,-0.063720703125,-0.97027587890625,0.08734130859375
1759672834991,800856684,7336,2,-0.0615234375,-0.98028564453125,0.07879638671875
1759672834991,800856684,7336,3,-0.01171875,-1.00201416015625,0.11248779296875
1759672834991,800856684,7336,4,-0.1005859375,-0.96563720703125,0.11590576171875
1759672834991,800856684,7336,5,-0.04833984375,-0.97857666015625,0.09075927734375
1759672834991,800856684,7336,6,-0.03271484375,-0.98223876953125,0.10833740234375
1759672834991,800856684,7336,7,-0.090576171875,-0.97052001953125,0.13909912109375
1759672834991,800856684,7336,8,-0.04541015625,-0.97906494140625,0.10125732421875
1759672834991,800856684,7336,9,-0.040771484375,-0.97418212890625,0.12420654296875
1759672834991,800856684,7336,10,-0.095947265625,-0.99664306640625,0.11785888671875
1759672834991,800856684,7336,11,-0.0556640625,-0.97100830078125,0.12152099609375
1759672834991,800856684,7336,12,-0.071044921875,-0.97857666015625,0.11859130859375
1759672834991,800856684,7336,13,-0.063232421875,-0.96734619140625,0.11151123046875
1759672834991,800856684,7336,14,-0.030029296875,-0.97955322265625,0.09759521484375
1759672834991,800856684,7336,15,-0.13232421875,-0.98297119140625,0.06243896484375
1759672834991,800856684,7336,16,-0.10107421875,-0.96392822265625,0.05389404296875
1759672834991,800856684,7336,17,-0.039794921875,-1.02740478515625,0.07684326171875
1759672834991,800856684,7336,18,0.016357421875,-0.93853759765625,0.05828857421875
1759672834991,800856684,7336,19,-0.19140625,-0.99761962890625,0.13690185546875
1759672834991,800856684,7336,20,-0.038818359375,-0.98614501953125,0.06146240234375
1759672834991,800856684,7336,21,-0.1201171875,-0.99224853515625,0.08221435546875
1759672834991,800856684,7336,22,-0.094970703125,-0.96832275390625,0.05560302734375
1759672834991,800856684,7336,23,-0.024169921875,-0.99737548828125,0.07513427734375
1759672834991,800856684,7336,24,-0.103515625,-0.95684814453125,0.09881591796875
1759672834991,800856684,7336,25,-0.139892578125,-0.96978759765625,0.12713623046875
1759672834991,800856684,7336,26,-0.065185546875,-1.00933837890625,0.07440185546875
1759672834991,800856684,7336,27,-0.062744140625,-0.97637939453125,0.06292724609375
1759672834991,800856684,7336,28,-0.057373046875,-0.98785400390625,0.06878662109375
1759672834991,800856684,7336,29,-0.05078125,-0.95513916015625,0.03485107421875
1759672834991,800856684,7336,30,-0.041259765625,-0.98638916015625,0.06707763671875
1759672834991,800856684,7336,31,-0.109619140625,-0.98101806640625,0.12982177734375
1759672837689,800859263,7337,0,-0.070068359375,-0.99151611328125,0.08367919921875
1759672837689,800859263,7337,1,-0.01904296875,-1.00152587890625,0.08050537109375
1759672837689,800859263,7337,2,-0.0517578125,-0.96246337890625,0.06536865234375
1759672837689,800859263,7337,3,-0.085205078125,-0.96221923828125,0.14129638671875
1759672837689,800859263,7337,4,-0.097412109375,-0.99542236328125,0.12322998046875
1759672837689,800859263,7337,5,-0.071044921875,-0.96197509765625,0.11956787109375
1759672837689,800859263,7337,6,-0.049560546875,-1.01202392578125,0.07659912109375
1759672837689,800859263,7337,7,-0.0283203125,-0.94146728515625,0.10052490234375
1759672837689,800859263,7337,8,-0.0556640625,-0.99053955078125,0.09979248046875
1759672837689,800859263,7337,9,0.01513671875,-1.00469970703125,0.08734130859375
1759672837689,800859263,7337,10,0.00439453125,-0.98590087890625,0.09173583984375
1759672837689,800859263,7337,11,0.029052734375,-0.99346923828125,0.05072021484375
1759672837689,800859263,7337,12,0.095947265625,-0.97198486328125,0.03558349609375
1759672837689,800859263,7337,13,0.061767578125,-0.98663330078125,0.03314208984375
1759672837689,800859263,7337,14,0.054931640625,-1.00616455078125,0.06781005859375
1759672837689,800859263,7337,15,0.044189453125,-0.97784423828125,0.04974365234375
1759672837689,800859263,7337,16,-0.007080078125,-0.97760009765625,0.04901123046875
1759672837689,800859263,7337,17,0.0224609375,-0.97882080078125,0.07781982421875
1759672837689,800859263,7337,18,0.014892578125,-0.96685791015625,0.07635498046875
1759672837689,800859263,7337,19,0.006103515625,-0.98565673828125,0.08148193359375
1759672837689,800859263,7337,20,0.0205078125,-0.98468017578125,0.10687255859375
1759672837689,800859263,7337,21,-0.00634765625,-0.98419189453125,0.11395263671875
1759672837689,800859263,7337,22,0.068603515625,-0.98077392578125,0.10931396484375
1759672837689,800859263,7337,23,0.004150390625,-0.98834228515625,0.13201904296875
1759672837689,800859263,7337,24,-0.00439453125,-0.97589111328125,0.09832763671875
1759672837689,800859263,7337,25,0.03369140625,-0.97808837890625,0.06903076171875
1759672837689,800859263,7337,26,0.001220703125,-0.96221923828125,0.06585693359375
1759672837689,800859263,7337,27,0.004638671875,-0.98345947265625,0.13128662109375
1759672837689,800859263,7337,28,-0.00830078125,-0.96075439453125,0.11199951171875
1759672837689,800859263,7337,29,-0.05078125,-0.99859619140625,0.14837646484375
1759672837689,800859263,7337,30,-0.014892578125,-0.97271728515625,0.10711669921875
1759672837689,800859263,7337,31,0.031005859375,-0.98345947265625,0.11517333984375
1759672840241,800861843,7338,0,-0.02099609375,-0.97882080078125,0.14154052734375
1759672840241,800861843,7338,1,-0.038818359375,-0.96246337890625,0.11834716796875
1759672840241,800861843,7338,2,-0.033935546875,-0.99273681640625,0.12640380859375
1759672840241,800861843,7338,3,-0.010986328125,-0.98028564453125,0.14398193359375
1759672840241,800861843,7338,4,-0.01025390625,-0.97540283203125,0.11785888671875
1759672840241,800861843,7338,5,-0.03125,-0.98980712890625,0.12664794921875
1759672840241,800861843,7338,6,-0.01171875,-0.98443603515625,0.09027099609375
1759672840241,800861843,7338,7,0.016845703125,-0.95733642578125,0.07928466796875
1759672840241,800861843,7338,8,-0.041748046875,-0.95782470703125,0.11590576171875
1759672840241,800861843,7338,9,0.003173828125,-0.98468017578125,0.10882568359375
1759672840241,800861843,7338,10,-0.000244140625,-0.99566650390625,0.13690185546875
1759672840241,800861843,7338,11,-0.068359375,-0.96905517578125,0.14447021484375
1759672840241,800861843,7338,12,-0.01123046875,-0.96978759765625,0.11810302734375
1759672840241,800861843,7338,13,-0.0146484375,-0.99639892578125,0.13006591796875
1759672840241,800861843,7338,14,-0.072998046875,-0.99444580078125,0.15399169921875
1759672840241,800861843,7338,15,-0.05810546875,-0.96856689453125,0.10687255859375
1759672840241,800861843,7338,16,0.014404296875,-0.99102783203125,0.12908935546875
1759672840241,800861843,7338,17,-0.004150390625,-0.94171142578125,0.05706787109375
1759672840241,800861843,7338,18,-0.042236328125,-0.98370361328125,0.12152099609375
1759672840241,800861843,7338,19,-0.005126953125,-0.96978759765625,0.11444091796875
1759672840241,800861843,7338,20,-0.04248046875,-0.98809814453125,0.15301513671875
1759672840241,800861843,7338,21,-0.003173828125,-0.94879150390625,0.11492919921875
1759672840241,800861843,7338,22,-0.0146484375,-0.99591064453125,0.12860107421875
1759672840241,800861843,7338,23,-0.020751953125,-0.97808837890625,0.13250732421875
1759672840241,800861843,7338,24,-0.011962890625,-0.97198486328125,0.11688232421875
1759672840241,800861843,7338,25,0.01220703125,-0.98980712890625,0.11688232421875
1759672840241,800861843,7338,26,-0.00634765625,-0.97564697265625,0.13348388671875
1759672840241,800861843,7338,27,-0.034912109375,-0.98663330078125,0.15740966796875
1759672840241,800861843,7338,28,0.04931640625,-0.99127197265625,0.12152099609375
1759672840241,800861843,7338,29,0.0673828125,-0.94952392578125,0.09393310546875
1759672840241,800861843,7338,30,0.00732421875,-0.99200439453125,0.10369873046875
1759672840241,800861843,7338,31,0.0263671875,-0.97344970703125,0.07928466796875
1759672842790,800864422,7339,0,0.0478515625,-0.99444580078125,0.08245849609375
1759672842790,800864422,7339,1,0.0390625,-0.99151611328125,0.05804443359375
1759672842790,800864422,7339,2,0.0654296875,-0.92852783203125,0.08074951171875
1759672842790,800864422,7339,3,0.063720703125,-1.00860595703125,0.11590576171875
1759672842790,800864422,7339,4,0.05810546875,-0.96881103515625,0.07635498046875
1759672842790,800864422,7339,5,0.093017578125,-0.98980712890625,0.08782958984375
1759672842790,800864422,7339,6,0.050048828125,-0.94830322265625,0.10296630859375
1759672842790,800864422,7339,7,0.005615234375,-1.00518798828125,0.12469482421875
1759672842790,800864422,7339,8,0.045166015625,-0.98541259765625,0.07904052734375
1759672842790,800864422,7339,9,0.111328125,-0.97515869140625,0.13055419921875
1759672842790,800864422,7339,10,0.051513671875,-0.96099853515625,0.13787841796875
1759672842790,800864422,7339,11,0.072998046875,-0.99224853515625,0.09442138671875
1759672842790,800864422,7339,12,0.053466796875,-0.98565673828125,0.07440185546875
1759672842790,800864422,7339,13,0.040771484375,-0.97027587890625,0.07733154296875
1759672842790,800864422,7339,14,0.052734375,-0.94244384765625,0.07489013671875
1759672842790,800864422,7339,15,0.051513671875,-0.97344970703125,0.11785888671875
1759672842790,800864422,7339,16,0.0498046875,-1.00177001953125,0.12689208984375
1759672842790,800864422,7339,17,0.02392578125,-0.95391845703125,0.10931396484375
1759672842790,800864422,7339,18,0.028076171875,-0.97906494140625,0.11322021484375
1759672842790,800864422,7339,19,0.007080078125,-0.98443603515625,0.10369873046875
1759672842790,800864422,7339,20,-0.005615234375,-1.00177001953125,0.09710693359375
1759672842790,800864422,7339,21,0.02197265625,-0.97564697265625,0.07073974609375
1759672842790,800864422,7339,22,0.032470703125,-0.96588134765625,0.05804443359375
1759672842790,800864422,7339,23,0.034912109375,-0.97930908203125,0.06463623046875
1759672842790,800864422,7339,24,0.055419921875,-0.97808837890625,0.09735107421875
1759672842790,800864422,7339,25,0.029541015625,-0.99176025390625,0.11859130859375
1759672842790,800864422,7339,26,0.0517578125,-0.94342041015625,0.10418701171875
1759672842790,800864422,7339,27,0.070068359375,-0.98150634765625,0.11541748046875
1759672842790,800864422,7339,28,0.05029296875,-0.99688720703125,0.09857177734375
1759672842790,800864422,7339,29,0.001708984375,-1.03619384765625,0.06903076171875
1759672842790,800864422,7339,30,0.0654296875,-0.96221923828125,0.07586669921875
1759672842790,800864422,7339,31,0.0693359375,-0.94293212890625,0.07342529296875
1759672845342,800867001,7340,0,0.061279296875,-0.98248291015625,0.06756591796875
1759672845342,800867001,7340,1,-0.00244140625,-0.97637939453125,0.10321044921875
1759672845342,800867001,7340,2,0.035888671875,-0.97711181640625,0.09906005859375
1759672845342,800867001,7340,3,0.03076171875,-1.00811767578125,0.13031005859375
1759672845342,800867001,7340,4,0.037841796875,-0.95465087890625,0.11859130859375
1759672845342,800867001,7340,5,-0.037841796875,-0.97784423828125,0.15838623046875
1759672845342,800867001,7340,6,0.023193359375,-0.96099853515625,0.14813232421875
1759672845342,800867001,7340,7,0.005615234375,-0.96173095703125,0.15667724609375
1759672845342,800867001,7340,8,-0.016357421875,-0.94976806640625,0.15179443359375
1759672845342,800867001,7340,9,0.01611328125,-0.99835205078125,0.16180419921875
1759672845342,800867001,7340,10,0.017333984375,-0.97003173828125,0.11981201171875
1759672845342,800867001,7340,11,0.01513671875,-0.98834228515625,0.12030029296875
1759672845342,800867001,7340,12,-0.031982421875,-0.99664306640625,0.07708740234375
1759672845342,800867001,7340,13,0.094970703125,-0.96075439453125,0.04022216796875
1759672845342,800867001,7340,14,0.0107421875,-0.98028564453125,0.08612060546875
1759672845342,800867001,7340,15,0.0302734375,-0.97711181640625,0.08709716796875
1759672845342,800867001,7340,16,-0.014892578125,-1.00909423828125,0.11322021484375
1759672845342,800867001,7340,17,0.015869140625,-0.94000244140625,0.06585693359375
1759672845342,800867001,7340,18,-0.006103515625,-1.02105712890625,0.12469482421875
1759672845342,800867001,7340,19,0.03515625,-0.94830322265625,0.10296630859375
1759672845342,800867001,7340,20,0.005859375,-0.99273681640625,0.12933349609375
1759672845342,800867001,7340,21,0.016357421875,-0.97296142578125,0.13665771484375
1759672845342,800867001,7340,22,0.0068359375,-0.99176025390625,0.12176513671875
1759672845342,800867001,7340,23,0.01806640625,-0.98150634765625,0.09710693359375
1759672845342,800867001,7340,24,0.031982421875,-0.95928955078125,0.07196044921875
1759672845342,800867001,7340,25,0.008544921875,-0.97271728515625,0.09344482421875
1759672845342,800867001,7340,26,0.033447265625,-0.97174072265625,0.11199951171875
1759672845342,800867001,7340,27,-0.002197265625,-0.99591064453125,0.13665771484375
1759672845342,800867001,7340,28,0.022216796875,-0.95806884765625,0.12884521484375
1759672845342,800867001,7340,29,0.049560546875,-0.99224853515625,0.13153076171875
1759672845342,800867001,7340,30,0.04638671875,-0.98834228515625,0.13519287109375
1759672845342,800867001,7340,31,0.021728515625,-0.97271728515625,0.10540771484375
1759672847891,800869580,7341,0,0.0595703125,-0.97003173828125,0.08026123046875
1759672847891,800869580,7341,1,0.025634765625,-0.96759033203125,0.09124755859375
1759672847891,800869580,7341,2,0.013671875,-0.97540283203125,0.11785888671875
1759672847891,800869580,7341,3,0.04150390625,-0.97442626953125,0.12835693359375
1759672847891,800869580,7341,4,0.013427734375,-0.98150634765625,0.13470458984375
1759672847891,800869580,7341,5,0.023193359375,-0.96490478515625,0.14227294921875
1759672847891,800869580,7341,6,0.01904296875,-0.99395751953125,0.14324951171875
1759672847891,800869580,7341,7,0.016845703125,-0.95098876953125,0.13446044921875
1759672847891,800869580,7341,8,-0.0390625,-0.97052001953125,0.17840576171875
1759672847891,800869580,7341,9,0.00048828125,-0.97833251953125,0.16204833984375
1759672847891,800869580,7341,10,0.01220703125,-0.99151611328125,0.11004638671875
1759672847891,800869580,7341,11,-0.005859375,-0.97198486328125,0.09539794921875
1759672847891,800869580,7341,12,-0.023193359375,-0.97808837890625,0.09075927734375
1759672847891,800869580,7341,13,-0.009033203125,-0.98638916015625,0.09027099609375
1759672847891,800869580,7341,14,0.020263671875,-0.96881103515625,0.10711669921875
1759672847891,800869580,7341,15,-0.051513671875,-0.97711181640625,0.14886474609375
1759672847891,800869580,7341,16,-0.004638671875,-0.96197509765625,0.13275146484375
1759672847891,800869580,7341,17,-0.006591796875,-0.97906494140625,0.13079833984375
1759672847891,800869580,7341,18,-0.019775390625,-0.97052001953125,0.15545654296875
1759672847891,800869580,7341,19,-0.02197265625,-0.96563720703125,0.16400146484375
1759672847891,800869580,7341,20,-0.000244140625,-0.98370361328125,0.14129638671875
1759672847891,800869580,7341,21,-0.044189453125,-0.97296142578125,0.13128662109375
1759672847891,800869580,7341,22,-0.0068359375,-0.96099853515625,0.13323974609375
1759672847891,800869580,7341,23,-0.023681640625,-0.97955322265625,0.14227294921875
1759672847891,800869580,7341,24,-0.00390625,-0.98321533203125,0.14251708984375
1759672847891,800869580,7341,25,-0.01953125,-0.98760986328125,0.14056396484375
1759672847891,800869580,7341,26,0.017822265625,-0.96807861328125,0.07757568359375
1759672847891,800869580,7341,27,-0.00927734375,-0.97711181640625,0.09515380859375
1759672847891,800869580,7341,28,0.015869140625,-0.99395751953125,0.15350341796875
1759672847891,800869580,7341,29,-0.008056640625,-0.94000244140625,0.12738037109375
1759672847891,800869580,7341,30,-0.042724609375,-1.00567626953125,0.15472412109375
1759672847891,800869580,7341,31,-0.015869140625,-0.95343017578125,0.11370849609375
1759672850437,800872159,7342,0,-0.0068359375,-0.97857666015625,0.14666748046875
1759672850437,800872159,7342,1,-0.056396484375,-0.98077392578125,0.14617919921875
1759672850437,800872159,7342,2,-0.039794921875,-0.98419189453125,0.13153076171875
1759672850437,800872159,7342,3,-0.015380859375,-0.97247314453125,0.17059326171875
1759672850437,800872159,7342,4,-0.036376953125,-0.99005126953125,0.16668701171875
1759672850437,800872159,7342,5,-0.0322265625,-0.96319580078125,0.16693115234375
1759672850437,800872159,7342,6,-0.028564453125,-0.97149658203125,0.11248779296875
1759672850437,800872159,7342,7,-0.01953125,-0.94708251953125,0.12542724609375
1759672850437,800872159,7342,8,-0.042236328125,-0.96807861328125,0.16204833984375
1759672850437,800872159,7342,9,-0.012939453125,-0.97198486328125,0.17816162109375
1759672850437,800872159,7342,10,-0.043701171875,-0.98760986328125,0.17840576171875
1759672850437,800872159,7342,11,-0.05615234375,-0.96221923828125,0.18157958984375
1759672850437,800872159,7342,12,-0.070068359375,-0.94439697265625,0.17498779296875
1759672850437,800872159,7342,13,-0.07568359375,-0.98541259765625,0.18865966796875
1759672850437,800872159,7342,14,-0.028076171875,-0.93853759765625,0.16400146484375
1759672850437,800872159,7342,15,-0.113525390625,-0.97100830078125,0.18963623046875
1759672850437,800872159,7342,16,-0.046630859375,-0.97711181640625,0.17620849609375
1759672850437,800872159,7342,17,-0.017822265625,-0.99957275390625,0.15496826171875
1759672850437,800872159,7342,18,-0.02685546875,-0.96856689453125,0.13470458984375
1759672850437,800872159,7342,19,-0.02099609375,-0.95220947265625,0.10467529296875
1759672850437,800872159,7342,20,-0.024658203125,-0.97467041015625,0.13934326171875
1759672850437,800872159,7342,21,-0.03369140625,-0.97271728515625,0.19183349609375
1759672850437,800872159,7342,22,-0.052001953125,-0.96221923828125,0.16986083984375
1759672850437,800872159,7342,23,-0.023193359375,-0.95147705078125,0.15643310546875
1759672850437,800872159,7342,24,-0.07861328125,-0.97100830078125,0.20135498046875
1759672850437,800872159,7342,25,-0.05859375,-0.96514892578125,0.18646240234375
1759672850437,800872159,7342,26,-0.041015625,-0.98101806640625,0.19110107421875
1759672850437,800872159,7342,27,-0.0419921875,-0.97344970703125,0.17279052734375
1759672850437,800872159,7342,28,-0.048828125,-0.98223876953125,0.16766357421875
1759672850437,800872159,7342,29,-0.0185546875,-0.95245361328125,0.12371826171875
1759672850437,800872159,7342,30,-0.041748046875,-0.95855712890625,0.15106201171875
1759672850437,800872159,7342,31,-0.0166015625,-0.97320556640625,0.15203857421875
1759672853140,800874738,7343,0,-0.037109375,-0.97418212890625,0.18572998046875
1759672853140,800874738,7343,1,-0.107177734375,-0.95489501953125,0.18817138671875
1759672853140,800874738,7343,2,-0.00927734375,-0.97491455078125,0.15301513671875
1759672853140,800874738,7343,3,-0.018310546875,-0.99029541015625,0.16229248046875
1759672853140,800874738,7343,4,-0.0458984375,-0.97808837890625,0.12786865234375
1759672853140,800874738,7343,5,-0.0625,-0.96710205078125,0.14178466796875
1759672853140,800874738,7343,6,0.0,-0.95855712890625,0.11444091796875
1759672853140,800874738,7343,7,-0.0244140625,-0.96539306640625,0.12200927734375
1759672853140,800874738,7343,8,-0.035400390625,-0.97784423828125,0.18060302734375
1759672853140,800874738,7343,9,-0.10400390625,-0.97686767578125,0.20257568359375
1759672853140,800874738,7343,10,-0.026611328125,-0.96099853515625,0.14105224609375
1759672853140,800874738,7343,11,-0.02880859375,-0.99224853515625,0.17864990234375
1759672853140,800874738,7343,12,-0.064697265625,-0.98028564453125,0.13861083984375
1759672853140,800874738,7343,13,-0.035400390625,-0.96612548828125,0.12957763671875
1759672853140,800874738,7343,14,-0.0458984375,-0.96759033203125,0.11761474609375
1759672853140,800874738,7343,15,-0.046142578125,-0.96051025390625,0.12567138671875
1759672853140,800874738,7343,16,-0.030029296875,-0.95782470703125,0.11492919921875
1759672853140,800874738,7343,17,-0.046875,-0.98175048828125,0.18621826171875
1759672853140,800874738,7343,18,-0.07177734375,-0.96734619140625,0.18304443359375
1759672853140,800874738,7343,19,-0.0234375,-0.96856689453125,0.17425537109375
1759672853140,800874738,7343,20,-0.053466796875,-0.97564697265625,0.18914794921875
1759672853140,800874738,7343,21,-0.028564453125,-0.95904541015625,0.17327880859375
1759672853140,800874738,7343,22,-0.05859375,-0.96734619140625,0.17767333984375
1759672853140,800874738,7343,23,-0.052490234375,-0.96759033203125,0.16253662109375
1759672853140,800874738,7343,24,-0.064697265625,-0.97833251953125,0.19842529296875
1759672853140,800874738,7343,25,-0.059814453125,-0.95806884765625,0.14495849609375
1759672853140,800874738,7343,26,-0.026611328125,-1.00445556640625,0.14129638671875
1759672853140,800874738,7343,27,0.0048828125,-0.96246337890625,0.11541748046875
1759672853140,800874738,7343,28,-0.054931640625,-0.96783447265625,0.12127685546875
1759672853140,800874738,7343,29,-0.047119140625,-0.96051025390625,0.14569091796875
1759672853140,800874738,7343,30,-0.020751953125,-0.96588134765625,0.17669677734375
1759672853140,800874738,7343,31,-0.05419921875,-0.97174072265625,0.18084716796875
1759672855686,800877317,7344,0,-0.04052734375,-0.95391845703125,0.16839599609375
1759672855686,800877317,7344,1,-0.040283203125,-0.97857666015625,0.17010498046875
1759672855686,800877317,7344,2,-0.021728515625,-0.98175048828125,0.18621826171875
1759672855686,800877317,7344,3,-0.047607421875,-0.98028564453125,0.16888427734375
1759672855686,800877317,7344,4,-0.032470703125,-0.96441650390625,0.16815185546875
1759672855686,800877317,7344,5,-0.010986328125,-0.96197509765625,0.13787841796875
1759672855686,800877317,7344,6,-0.014892578125,-0.96099853515625,0.11883544921875
1759672855686,800877317,7344,7,-0.035888671875,-0.96392822265625,0.16131591796875
1759672855686,800877317,7344,8,-0.03662109375,-0.99542236328125,0.18475341796875
1759672855686,800877317,7344,9,-0.035400390625,-0.96173095703125,0.17254638671875
1759672855686,800877317,7344,10,-0.06103515625,-0.97393798828125,0.20111083984375
1759672855686,800877317,7344,11,-0.045654296875,-0.94903564453125,0.18377685546875
1759672855686,800877317,7344,12,-0.043212890625,-0.96270751953125,0.17889404296875
1759672855686,800877317,7344,13,-0.037353515625,-0.96978759765625,0.18768310546875
1759672855686,800877317,7344,14,-0.01416015625,-0.99005126953125,0.17132568359375
1759672855686,800877317,7344,15,-0.0009765625,-0.95391845703125,0.17303466796875
1759672855686,800877317,7344,16,-0.101806640625,-0.95880126953125,0.21331787109375
1759672855686,800877317,7344,17,-0.012939453125,-0.98248291015625,0.18572998046875
1759672855686,800877317,7344,18,-0.0068359375,-0.96490478515625,0.13690185546875
1759672855686,800877317,7344,19,-0.041015625,-0.96978759765625,0.12200927734375
1759672855686,800877317,7344,20,-0.039306640625,-0.97100830078125,0.12933349609375
1759672855686,800877317,7344,21,-0.015380859375,-0.96343994140625,0.15472412109375
1759672855686,800877317,7344,22,-0.04052734375,-0.98834228515625,0.18988037109375
1759672855686,800877317,7344,23,-0.041748046875,-0.95294189453125,0.17474365234375
1759672855686,800877317,7344,24,-0.0537109375,-0.97174072265625,0.18206787109375
1759672855686,800877317,7344,25,-0.042724609375,-0.95928955078125,0.18890380859375
1759672855686,800877317,7344,26,-0.026123046875,-0.96197509765625,0.17987060546875
1759672855686,800877317,7344,27,-0.018798828125,-0.97882080078125,0.19744873046875
1759672855686,800877317,7344,28,-0.05615234375,-0.98175048828125,0.15911865234375
1759672855686,800877317,7344,29,-0.038330078125,-0.96734619140625,0.13177490234375
1759672855686,800877317,7344,30,-0.012451171875,-0.95123291015625,0.11199951171875
1759672855686,800877317,7344,31,-0.03955078125,-0.97003173828125,0.13812255859375
1759672858390,800879897,7345,0,-0.029296875,-0.97662353515625,0.16253662109375
1759672858390,800879897,7345,1,-0.06640625,-0.99078369140625,0.16864013671875
1759672858390,800879897,7345,2,-0.023681640625,-0.94757080078125,0.15057373046875
1759672858390,800879897,7345,3,-0.069580078125,-0.98419189453125,0.18255615234375
1759672858390,800879897,7345,4,-0.033203125,-0.95513916015625,0.15667724609375
1759672858390,800879897,7345,5,-0.068359375,-0.97076416015625,0.18060302734375
