receivedPhoneTimestamp,respeckTimestamp,packetSeqNum,sampleSeqNum,accelX,accelY,accelZ
1759696263030,883575757,25608,0,-0.207275390625,-0.95465087890625,0.22918701171875
1759696263030,883575757,25608,1,-0.205810546875,-0.94635009765625,0.22406005859375
1759696263030,883575757,25608,2,-0.20556640625,-0.95440673828125,0.22357177734375
1759696263030,883575757,25608,3,-0.207763671875,-0.94488525390625,0.21868896484375
1759696263030,883575757,25608,4,-0.20849609375,-0.94781494140625,0.22869873046875
1759696263030,883575757,25608,5,-0.213134765625,-0.95367431640625,0.22454833984375
1759696263030,883575757,25608,6,-0.208984375,-0.94244384765625,0.22381591796875
1759696263030,883575757,25608,7,-0.216552734375,-0.95001220703125,0.22625732421875
1759696263030,883575757,25608,8,-0.21337890625,-0.94879150390625,0.22552490234375
1759696263030,883575757,25608,9,-0.21435546875,-0.95196533203125,0.23382568359375
1759696263030,883575757,25608,10,-0.21435546875,-0.94854736328125,0.23333740234375
1759696263030,883575757,25608,11,-0.19775390625,-0.94122314453125,0.23358154296875
1759696263030,883575757,25608,12,-0.197509765625,-0.94537353515625,0.23602294921875
1759696263030,883575757,25608,13,-0.1875,-0.95391845703125,0.23382568359375
1759696263030,883575757,25608,14,-0.213623046875,-0.94342041015625,0.22601318359375
1759696263030,883575757,25608,15,-0.21875,-0.94195556640625,0.21673583984375
1759696263030,883575757,25608,16,-0.23388671875,-0.95831298828125,0.22576904296875
1759696263030,883575757,25608,17,-0.2216796875,-0.95172119140625,0.21649169921875
1759696263030,883575757,25608,18,-0.214111328125,-0.94366455078125,0.21331787109375
1759696263030,883575757,25608,19,-0.211669921875,-0.95245361328125,0.21600341796875
1759696263030,883575757,25608,20,-0.211181640625,-0.95196533203125,0.21673583984375
1759696263030,883575757,25608,21,-0.218017578125,-0.95123291015625,0.21234130859375
1759696263030,883575757,25608,22,-0.207763671875,-0.94805908203125,0.21502685546875
1759696263030,883575757,25608,23,-0.20947265625,-0.95147705078125,0.21844482421875
1759696263030,883575757,25608,24,-0.210693359375,-0.95245361328125,0.21697998046875
1759696263030,883575757,25608,25,-0.2080078125,-0.94830322265625,0.22235107421875
1759696263030,883575757,25608,26,-0.213134765625,-0.95050048828125,0.21746826171875
1759696263030,883575757,25608,27,-0.212646484375,-0.94952392578125,0.22210693359375
1759696263030,883575757,25608,28,-0.219482421875,-0.95440673828125,0.21966552734375
1759696263030,883575757,25608,29,-0.211181640625,-0.95172119140625,0.21356201171875
1759696263030,883575757,25608,30,-0.21142578125,-0.94952392578125,0.22161865234375
1759696263030,883575757,25608,31,-0.209716796875,-0.94683837890625,0.22259521484375
1759696265759,883578300,25609,0,-0.20263671875,-0.94708251953125,0.22430419921875
1759696265759,883578300,25609,1,-0.20703125,-0.94976806640625,0.21942138671875
1759696265759,883578300,25609,2,-0.20703125,-0.95050048828125,0.22259521484375
1759696265759,883578300,25609,3,-0.203857421875,-0.94732666015625,0.21673583984375
1759696265759,883578300,25609,4,-0.214111328125,-0.94464111328125,0.22088623046875
1759696265759,883578300,25609,5,-0.207763671875,-0.95318603515625,0.21649169921875
1759696265759,883578300,25609,6,-0.206298828125,-0.95001220703125,0.21990966796875
1759696265759,883578300,25609,7,-0.20654296875,-0.95513916015625,0.22454833984375
1759696265759,883578300,25609,8,-0.205810546875,-0.94464111328125,0.22625732421875
1759696265759,883578300,25609,9,-0.184814453125,-0.94561767578125,0.23699951171875
1759696265759,883578300,25609,10,-0.18701171875,-0.94683837890625,0.23309326171875
1759696265759,883578300,25609,11,-0.19580078125,-0.95098876953125,0.23358154296875
1759696265759,883578300,25609,12,-0.19580078125,-0.94073486328125,0.23236083984375
1759696265759,883578300,25609,13,-0.19287109375,-0.95245361328125,0.23040771484375
1759696265759,883578300,25609,14,-0.1962890625,-0.94732666015625,0.23577880859375
1759696265759,883578300,25609,15,-0.19677734375,-0.95269775390625,0.23455810546875
1759696265759,883578300,25609,16,-0.190185546875,-0.94049072265625,0.23553466796875
1759696265759,883578300,25609,17,-0.192626953125,-0.95416259765625,0.23724365234375
1759696265759,883578300,25609,18,-0.19287109375,-0.94317626953125,0.23406982421875
1759696265759,883578300,25609,19,-0.19677734375,-0.95269775390625,0.23431396484375
1759696265759,883578300,25609,20,-0.192138671875,-0.94415283203125,0.23284912109375
1759696265759,883578300,25609,21,-0.184326171875,-0.95001220703125,0.23333740234375
1759696265759,883578300,25609,22,-0.191650390625,-0.94366455078125,0.23333740234375
1759696265759,883578300,25609,23,-0.1943359375,-0.95220947265625,0.24041748046875
1759696265759,883578300,25609,24,-0.1943359375,-0.94879150390625,0.23577880859375
1759696265759,883578300,25609,25,-0.186279296875,-0.94659423828125,0.23944091796875
1759696265759,883578300,25609,26,-0.181396484375,-0.94830322265625,0.25115966796875
1759696265759,883578300,25609,27,-0.18701171875,-0.95465087890625,0.24798583984375
1759696265759,883578300,25609,28,-0.183349609375,-0.93951416015625,0.23773193359375
1759696265759,883578300,25609,29,-0.189697265625,-0.94464111328125,0.25726318359375
1759696265759,883578300,25609,30,-0.197509765625,-0.94757080078125,0.26947021484375
1759696265759,883578300,25609,31,-0.198486328125,-0.93365478515625,0.27508544921875
1759696268100,883580843,25610,0,-0.193359375,-0.93096923828125,0.27557373046875
1759696268100,883580843,25610,1,-0.1923828125,-0.93756103515625,0.27606201171875
1759696268100,883580843,25610,2,-0.19189453125,-0.93438720703125,0.27532958984375
1759696268100,883580843,25610,3,-0.197021484375,-0.93927001953125,0.27288818359375
1759696268100,883580843,25610,4,-0.1904296875,-0.93585205078125,0.28631591796875
1759696268100,883580843,25610,5,-0.202392578125,-0.93609619140625,0.25726318359375
1759696268100,883580843,25610,6,-0.20654296875,-0.94219970703125,0.25457763671875
1759696268100,883580843,25610,7,-0.20947265625,-0.94000244140625,0.25482177734375
1759696268100,883580843,25610,8,-0.201171875,-0.93902587890625,0.25775146484375
1759696268100,883580843,25610,9,-0.2041015625,-0.94000244140625,0.26116943359375
1759696268100,883580843,25610,10,-0.20947265625,-0.94342041015625,0.25457763671875
1759696268100,883580843,25610,11,-0.20849609375,-0.93634033203125,0.23651123046875
1759696268100,883580843,25610,12,-0.20947265625,-0.93365478515625,0.22918701171875
1759696268100,883580843,25610,13,-0.19580078125,-0.94976806640625,0.23577880859375
1759696268100,883580843,25610,14,-0.199951171875,-0.93829345703125,0.24090576171875
1759696268100,883580843,25610,15,-0.208251953125,-0.95050048828125,0.23187255859375
1759696268100,883580843,25610,16,-0.210205078125,-0.95001220703125,0.22625732421875
1759696268100,883580843,25610,17,-0.2138671875,-0.94390869140625,0.22552490234375
1759696268100,883580843,25610,18,-0.21142578125,-0.96148681640625,0.21405029296875
1759696268100,883580843,25610,19,-0.2158203125,-0.94024658203125,0.20599365234375
1759696268100,883580843,25610,20,-0.209716796875,-0.95025634765625,0.21527099609375
1759696268100,883580843,25610,21,-0.21533203125,-0.95855712890625,0.20916748046875
1759696268100,883580843,25610,22,-0.2158203125,-0.95343017578125,0.20965576171875
1759696268100,883580843,25610,23,-0.213623046875,-0.95489501953125,0.20404052734375
1759696268100,883580843,25610,24,-0.213623046875,-0.95172119140625,0.20916748046875
1759696268100,883580843,25610,25,-0.213134765625,-0.95220947265625,0.20550537109375
1759696268100,883580843,25610,26,-0.216552734375,-0.95196533203125,0.19427490234375
1759696268100,883580843,25610,27,-0.21435546875,-0.95391845703125,0.20892333984375
1759696268100,883580843,25610,28,-0.21337890625,-0.95684814453125,0.20355224609375
1759696268100,883580843,25610,29,-0.21630859375,-0.94342041015625,0.20355224609375
1759696268100,883580843,25610,30,-0.211669921875,-0.96417236328125,0.20086669921875
1759696268100,883580843,25610,31,-0.215576171875,-0.95440673828125,0.20062255859375
1759696270635,883583386,25611,0,-0.216064453125,-0.95001220703125,0.20306396484375
1759696270635,883583386,25611,1,-0.22119140625,-0.95147705078125,0.21038818359375
1759696270635,883583386,25611,2,-0.210205078125,-0.96099853515625,0.20843505859375
1759696270635,883583386,25611,3,-0.21240234375,-0.95318603515625,0.20623779296875
1759696270635,883583386,25611,4,-0.207763671875,-0.95196533203125,0.20916748046875
1759696270635,883583386,25611,5,-0.217529296875,-0.95074462890625,0.21038818359375
1759696270635,883583386,25611,6,-0.2119140625,-0.94927978515625,0.20941162109375
1759696270635,883583386,25611,7,-0.214111328125,-0.95611572265625,0.21136474609375
1759696270635,883583386,25611,8,-0.2138671875,-0.94635009765625,0.20965576171875
1759696270635,883583386,25611,9,-0.21826171875,-0.95269775390625,0.21160888671875
1759696270635,883583386,25611,10,-0.2138671875,-0.95001220703125,0.20965576171875
1759696270635,883583386,25611,11,-0.21337890625,-0.94561767578125,0.20770263671875
1759696270635,883583386,25611,12,-0.228515625,-0.94635009765625,0.20501708984375
1759696270635,883583386,25611,13,-0.196533203125,-0.96588134765625,0.24847412109375
1759696270635,883583386,25611,14,-0.206298828125,-0.95123291015625,0.21478271484375
1759696270635,883583386,25611,15,-0.209716796875,-0.95123291015625,0.22113037109375
1759696270635,883583386,25611,16,-0.21484375,-0.94683837890625,0.22308349609375
1759696270635,883583386,25611,17,-0.2080078125,-0.95074462890625,0.22479248046875
1759696270635,883583386,25611,18,-0.211669921875,-0.94415283203125,0.21942138671875
1759696270635,883583386,25611,19,-0.22216796875,-0.95806884765625,0.20941162109375
1759696270635,883583386,25611,20,-0.21728515625,-0.95294189453125,0.22015380859375
1759696270635,883583386,25611,21,-0.21826171875,-0.95050048828125,0.21282958984375
1759696270635,883583386,25611,22,-0.235107421875,-0.95001220703125,0.20965576171875
1759696270635,883583386,25611,23,-0.232177734375,-0.95025634765625,0.20233154296875
1759696270635,883583386,25611,24,-0.232666015625,-0.94830322265625,0.20623779296875
1759696270635,883583386,25611,25,-0.23779296875,-0.94635009765625,0.20599365234375
1759696270635,883583386,25611,26,-0.24462890625,-0.94708251953125,0.20159912109375
1759696270635,883583386,25611,27,-0.23828125,-0.94464111328125,0.17718505859375
1759696270635,883583386,25611,28,-0.23779296875,-0.97711181640625,0.20941162109375
1759696270635,883583386,25611,29,-0.235595703125,-0.95391845703125,0.17913818359375
1759696270635,883583386,25611,30,-0.219482421875,-0.95123291015625,0.18353271484375
1759696270635,883583386,25611,31,-0.206787109375,-0.94390869140625,0.21136474609375
1759696273168,883585929,25612,0,-0.19287109375,-0.96148681640625,0.21136474609375
1759696273168,883585929,25612,1,-0.198486328125,-0.96051025390625,0.20404052734375
1759696273168,883585929,25612,2,-0.200439453125,-0.94366455078125,0.21600341796875
1759696273168,883585929,25612,3,-0.201904296875,-0.95635986328125,0.21942138671875
1759696273168,883585929,25612,4,-0.20751953125,-0.96026611328125,0.21722412109375
1759696273168,883585929,25612,5,-0.2041015625,-0.94244384765625,0.22015380859375
1759696273168,883585929,25612,6,-0.212646484375,-0.95318603515625,0.21868896484375
1759696273168,883585929,25612,7,-0.208740234375,-0.94952392578125,0.22283935546875
1759696273168,883585929,25612,8,-0.207763671875,-0.95123291015625,0.23138427734375
1759696273168,883585929,25612,9,-0.19091796875,-0.95098876953125,0.21966552734375
1759696273168,883585929,25612,10,-0.21533203125,-0.94976806640625,0.21624755859375
1759696273168,883585929,25612,11,-0.20751953125,-0.94903564453125,0.22772216796875
1759696273168,883585929,25612,12,-0.205322265625,-0.94927978515625,0.22064208984375
1759696273168,883585929,25612,13,-0.20458984375,-0.95001220703125,0.22601318359375
1759696273168,883585929,25612,14,-0.203857421875,-0.94537353515625,0.22601318359375
1759696273168,883585929,25612,15,-0.197265625,-0.94488525390625,0.22772216796875
1759696273168,883585929,25612,16,-0.197509765625,-0.95440673828125,0.22625732421875
1759696273168,883585929,25612,17,-0.210205078125,-0.95050048828125,0.21917724609375
1759696273168,883585929,25612,18,-0.208984375,-0.94781494140625,0.21258544921875
1759696273168,883585929,25612,19,-0.201416015625,-0.95318603515625,0.21331787109375
1759696273168,883585929,25612,20,-0.202880859375,-0.95611572265625,0.22064208984375
1759696273168,883585929,25612,21,-0.201171875,-0.95001220703125,0.21600341796875
1759696273168,883585929,25612,22,-0.205322265625,-0.95440673828125,0.21649169921875
1759696273168,883585929,25612,23,-0.200439453125,-0.95269775390625,0.21624755859375
1759696273168,883585929,25612,24,-0.201171875,-0.94415283203125,0.21356201171875
1759696273168,883585929,25612,25,-0.203125,-0.95269775390625,0.21160888671875
1759696273168,883585929,25612,26,-0.204833984375,-0.95294189453125,0.20916748046875
1759696273168,883585929,25612,27,-0.20703125,-0.95880126953125,0.21429443359375
1759696273168,883585929,25612,28,-0.20556640625,-0.94903564453125,0.22796630859375
1759696273168,883585929,25612,29,-0.201171875,-0.95904541015625,0.21038818359375
1759696273168,883585929,25612,30,-0.180419921875,-0.94708251953125,0.23822021484375
1759696273168,883585929,25612,31,-0.201904296875,-0.94586181640625,0.25018310546875
1759696275705,883588472,25613,0,-0.180908203125,-0.93975830078125,0.26751708984375
1759696275705,883588472,25613,1,-0.18603515625,-0.93829345703125,0.26190185546875
1759696275705,883588472,25613,2,-0.1865234375,-0.93878173828125,0.27435302734375
1759696275705,883588472,25613,3,-0.1845703125,-0.93756103515625,0.26995849609375
1759696275705,883588472,25613,4,-0.198486328125,-0.93243408203125,0.26873779296875
1759696275705,883588472,25613,5,-0.19287109375,-0.92828369140625,0.24676513671875
1759696275705,883588472,25613,6,-0.200927734375,-0.94512939453125,0.24993896484375
1759696275705,883588472,25613,7,-0.200927734375,-0.95391845703125,0.23992919921875
1759696275705,883588472,25613,8,-0.205078125,-0.94635009765625,0.23968505859375
1759696275705,883588472,25613,9,-0.2041015625,-0.94586181640625,0.24188232421875
1759696275705,883588472,25613,10,-0.206787109375,-0.94512939453125,0.24066162109375
1759696275705,883588472,25613,11,-0.20458984375,-0.94561767578125,0.24432373046875
1759696275705,883588472,25613,12,-0.19970703125,-0.94049072265625,0.24212646484375
1759696275705,883588472,25613,13,-0.199951171875,-0.94415283203125,0.24334716796875
1759696275705,883588472,25613,14,-0.20263671875,-0.94537353515625,0.24407958984375
1759696275705,883588472,25613,15,-0.201904296875,-0.94683837890625,0.23724365234375
1759696275705,883588472,25613,16,-0.20166015625,-0.94268798828125,0.24676513671875
1759696275705,883588472,25613,17,-0.198974609375,-0.94635009765625,0.24798583984375
1759696275705,883588472,25613,18,-0.1953125,-0.93951416015625,0.25384521484375
1759696275705,883588472,25613,19,-0.194091796875,-0.94561767578125,0.25433349609375
1759696275705,883588472,25613,20,-0.195068359375,-0.94049072265625,0.25579833984375
1759696275705,883588472,25613,21,-0.193115234375,-0.94122314453125,0.25335693359375
1759696275705,883588472,25613,22,-0.19921875,-0.94390869140625,0.25531005859375
1759696275705,883588472,25613,23,-0.196044921875,-0.94244384765625,0.24822998046875
1759696275705,883588472,25613,24,-0.193603515625,-0.94390869140625,0.25872802734375
1759696275705,883588472,25613,25,-0.1953125,-0.94024658203125,0.25677490234375
1759696275705,883588472,25613,26,-0.201171875,-0.93756103515625,0.25067138671875
1759696275705,883588472,25613,27,-0.197265625,-0.95269775390625,0.25360107421875
1759696275705,883588472,25613,28,-0.196044921875,-0.94757080078125,0.24627685546875
1759696275705,883588472,25613,29,-0.198486328125,-0.94439697265625,0.24554443359375
1759696275705,883588472,25613,30,-0.188720703125,-0.94342041015625,0.24676513671875
1759696275705,883588472,25613,31,-0.1923828125,-0.94073486328125,0.24407958984375
1759696278240,883591015,25614,0,-0.1982421875,-0.94219970703125,0.24530029296875
1759696278240,883591015,25614,1,-0.1953125,-0.94781494140625,0.25115966796875
1759696278240,883591015,25614,2,-0.193603515625,-0.94708251953125,0.24041748046875
1759696278240,883591015,25614,3,-0.201416015625,-0.94659423828125,0.25018310546875
1759696278240,883591015,25614,4,-0.199462890625,-0.93902587890625,0.24627685546875
1759696278240,883591015,25614,5,-0.2001953125,-0.94097900390625,0.24212646484375
1759696278240,883591015,25614,6,-0.199462890625,-0.94171142578125,0.24432373046875
1759696278240,883591015,25614,7,-0.199462890625,-0.94805908203125,0.25067138671875
1759696278240,883591015,25614,8,-0.201904296875,-0.94537353515625,0.24554443359375
1759696278240,883591015,25614,9,-0.20263671875,-0.94146728515625,0.24945068359375
1759696278240,883591015,25614,10,-0.198974609375,-0.94512939453125,0.23797607421875
1759696278240,883591015,25614,11,-0.19384765625,-0.94317626953125,0.24578857421875
1759696278240,883591015,25614,12,-0.201171875,-0.94415283203125,0.25408935546875
1759696278240,883591015,25614,13,-0.18701171875,-0.95538330078125,0.25823974609375
1759696278240,883591015,25614,14,-0.179931640625,-0.93438720703125,0.27728271484375
1759696278240,883591015,25614,15,-0.17626953125,-0.94049072265625,0.27728271484375
1759696278240,883591015,25614,16,-0.18310546875,-0.93438720703125,0.27996826171875
1759696278240,883591015,25614,17,-0.18017578125,-0.93267822265625,0.27874755859375
1759696278240,883591015,25614,18,-0.17578125,-0.93267822265625,0.28192138671875
1759696278240,883591015,25614,19,-0.177734375,-0.93292236328125,0.27435302734375
1759696278240,883591015,25614,20,-0.18310546875,-0.93365478515625,0.28216552734375
1759696278240,883591015,25614,21,-0.19091796875,-0.94415283203125,0.26214599609375
1759696278240,883591015,25614,22,-0.192138671875,-0.94464111328125,0.26263427734375
1759696278240,883591015,25614,23,-0.184326171875,-0.93829345703125,0.26898193359375
1759696278240,883591015,25614,24,-0.186767578125,-0.93609619140625,0.27435302734375
1759696278240,883591015,25614,25,-0.18310546875,-0.94122314453125,0.26727294921875
1759696278240,883591015,25614,26,-0.185546875,-0.94244384765625,0.25970458984375
1759696278240,883591015,25614,27,-0.186767578125,-0.94000244140625,0.27166748046875
1759696278240,883591015,25614,28,-0.185791015625,-0.94000244140625,0.26678466796875
1759696278240,883591015,25614,29,-0.185302734375,-0.94122314453125,0.25726318359375
1759696278240,883591015,25614,30,-0.185302734375,-0.93780517578125,0.26507568359375
1759696278240,883591015,25614,31,-0.188720703125,-0.94073486328125,0.26580810546875
1759696280775,883593558,25615,0,-0.18408203125,-0.93658447265625,0.26092529296875
1759696280775,883593558,25615,1,-0.183349609375,-0.93780517578125,0.27484130859375
1759696280775,883593558,25615,2,-0.187744140625,-0.94146728515625,0.26898193359375
1759696280775,883593558,25615,3,-0.186767578125,-0.94146728515625,0.26776123046875
1759696280775,883593558,25615,4,-0.184326171875,-0.93780517578125,0.26751708984375
1759696280775,883593558,25615,5,-0.189453125,-0.93951416015625,0.25970458984375
1759696280775,883593558,25615,6,-0.18359375,-0.94342041015625,0.26409912109375
1759696280775,883593558,25615,7,-0.188720703125,-0.94268798828125,0.26483154296875
1759696280775,883593558,25615,8,-0.1884765625,-0.93927001953125,0.25335693359375
1759696280775,883593558,25615,9,-0.187744140625,-0.94488525390625,0.25897216796875
1759696280775,883593558,25615,10,-0.195068359375,-0.93804931640625,0.24017333984375
1759696280775,883593558,25615,11,-0.188720703125,-0.94830322265625,0.27142333984375
1759696280775,883593558,25615,12,-0.18603515625,-0.94219970703125,0.25579833984375
1759696280775,883593558,25615,13,-0.18212890625,-0.93780517578125,0.25799560546875
1759696280775,883593558,25615,14,-0.186279296875,-0.94610595703125,0.25408935546875
1759696280775,883593558,25615,15,-0.1923828125,-0.93975830078125,0.24407958984375
1759696280775,883593558,25615,16,-0.195556640625,-0.94293212890625,0.24432373046875
1759696280775,883593558,25615,17,-0.188720703125,-0.94903564453125,0.25457763671875
1759696280775,883593558,25615,18,-0.191650390625,-0.94903564453125,0.24652099609375
1759696280775,883593558,25615,19,-0.183349609375,-0.94171142578125,0.24212646484375
1759696280775,883593558,25615,20,-0.196044921875,-0.94293212890625,0.24285888671875
1759696280775,883593558,25615,21,-0.197998046875,-0.94659423828125,0.24237060546875
1759696280775,883593558,25615,22,-0.1962890625,-0.94512939453125,0.24432373046875
1759696280775,883593558,25615,23,-0.186279296875,-0.94610595703125,0.24603271484375
1759696280775,883593558,25615,24,-0.1845703125,-0.94366455078125,0.24945068359375
1759696280775,883593558,25615,25,-0.18505859375,-0.94439697265625,0.24578857421875
1759696280775,883593558,25615,26,-0.183837890625,-0.94708251953125,0.25115966796875
1759696280775,883593558,25615,27,-0.178466796875,-0.97467041015625,0.25506591796875
1759696280775,883593558,25615,28,-0.1884765625,-0.91632080078125,0.28289794921875
1759696280775,883593558,25615,29,-0.163330078125,-0.92852783203125,0.28240966796875
1759696280775,883593558,25615,30,-0.17236328125,-0.92047119140625,0.28143310546875
1759696280775,883593558,25615,31,-0.18505859375,-0.93658447265625,0.26824951171875
1759696283310,883596101,25616,0,-0.184814453125,-0.94952392578125,0.26458740234375
1759696283310,883596101,25616,1,-0.187744140625,-0.95953369140625,0.24627685546875
1759696283310,883596101,25616,2,-0.194091796875,-0.94219970703125,0.25653076171875
1759696283310,883596101,25616,3,-0.187744140625,-0.94293212890625,0.25360107421875
1759696283310,883596101,25616,4,-0.181640625,-0.94390869140625,0.26043701171875
1759696283310,883596101,25616,5,-0.18798828125,-0.93560791015625,0.25555419921875
1759696283310,883596101,25616,6,-0.183349609375,-0.95050048828125,0.26092529296875
1759696283310,883596101,25616,7,-0.185546875,-0.93707275390625,0.26678466796875
1759696283310,883596101,25616,8,-0.182861328125,-0.94146728515625,0.25970458984375
1759696283310,883596101,25616,9,-0.18212890625,-0.94561767578125,0.26556396484375
1759696283310,883596101,25616,10,-0.1865234375,-0.93927001953125,0.26483154296875
1759696283310,883596101,25616,11,-0.183349609375,-0.93756103515625,0.24920654296875
1759696283310,883596101,25616,12,-0.1943359375,-0.94903564453125,0.24969482421875
1759696283310,883596101,25616,13,-0.186279296875,-0.94537353515625,0.25042724609375
1759696283310,883596101,25616,14,-0.197021484375,-0.94586181640625,0.25482177734375
1759696283310,883596101,25616,15,-0.185791015625,-0.94342041015625,0.24481201171875
1759696283310,883596101,25616,16,-0.185791015625,-0.94146728515625,0.25482177734375
1759696283310,883596101,25616,17,-0.182373046875,-0.94073486328125,0.25994873046875
1759696283310,883596101,25616,18,-0.191162109375,-0.93023681640625,0.23968505859375
1759696283310,883596101,25616,19,-0.1923828125,-0.95269775390625,0.26556396484375
1759696283310,883596101,25616,20,-0.177978515625,-0.95001220703125,0.26580810546875
1759696283310,883596101,25616,21,-0.189697265625,-0.93829345703125,0.25482177734375
1759696283310,883596101,25616,22,-0.197998046875,-0.94464111328125,0.24798583984375
1759696283310,883596101,25616,23,-0.190185546875,-0.93560791015625,0.25042724609375
1759696283310,883596101,25616,24,-0.19189453125,-0.94952392578125,0.26409912109375
1759696283310,883596101,25616,25,-0.185791015625,-0.94073486328125,0.25238037109375
1759696283310,883596101,25616,26,-0.189208984375,-0.93658447265625,0.24798583984375
1759696283310,883596101,25616,27,-0.18798828125,-0.94317626953125,0.25457763671875
1759696283310,883596101,25616,28,-0.187744140625,-0.94244384765625,0.26019287109375
1759696283310,883596101,25616,29,-0.1875,-0.94512939453125,0.25189208984375
1759696283310,883596101,25616,30,-0.1884765625,-0.94439697265625,0.25750732421875
1759696283310,883596101,25616,31,-0.18603515625,-0.94293212890625,0.25360107421875
1759696286040,883598644,25617,0,-0.18359375,-0.94244384765625,0.25408935546875
1759696286040,883598644,25617,1,-0.187255859375,-0.94268798828125,0.26116943359375
1759696286040,883598644,25617,2,-0.184326171875,-0.94049072265625,0.25653076171875
1759696286040,883598644,25617,3,-0.1875,-0.94219970703125,0.25579833984375
1759696286040,883598644,25617,4,-0.1806640625,-0.94171142578125,0.25946044921875
1759696286040,883598644,25617,5,-0.181884765625,-0.94439697265625,0.26116943359375
1759696286040,883598644,25617,6,-0.184326171875,-0.94708251953125,0.25457763671875
1759696286040,883598644,25617,7,-0.185546875,-0.93951416015625,0.25018310546875
1759696286040,883598644,25617,8,-0.185546875,-0.94854736328125,0.26263427734375
1759696286040,883598644,25617,9,-0.1796875,-0.94268798828125,0.25457763671875
1759696286040,883598644,25617,10,-0.1826171875,-0.94097900390625,0.25213623046875
1759696286040,883598644,25617,11,-0.185302734375,-0.94390869140625,0.25848388671875
1759696286040,883598644,25617,12,-0.185546875,-0.94195556640625,0.24871826171875
1759696286040,883598644,25617,13,-0.1826171875,-0.94195556640625,0.25042724609375
1759696286040,883598644,25617,14,-0.183837890625,-0.94293212890625,0.25848388671875
1759696286040,883598644,25617,15,-0.180419921875,-0.95294189453125,0.24945068359375
1759696286040,883598644,25617,16,-0.182861328125,-0.94464111328125,0.24407958984375
1759696286040,883598644,25617,17,-0.182373046875,-0.94488525390625,0.25189208984375
1759696286040,883598644,25617,18,-0.182861328125,-0.94049072265625,0.24334716796875
1759696286040,883598644,25617,19,-0.173828125,-0.94561767578125,0.24554443359375
1759696286040,883598644,25617,20,-0.18408203125,-0.95123291015625,0.24432373046875
1759696286040,883598644,25617,21,-0.18603515625,-0.94927978515625,0.24041748046875
1759696286040,883598644,25617,22,-0.183837890625,-0.94073486328125,0.23870849609375
1759696286040,883598644,25617,23,-0.177001953125,-0.94781494140625,0.24969482421875
1759696286040,883598644,25617,24,-0.177978515625,-0.94732666015625,0.24749755859375
1759696286040,883598644,25617,25,-0.181884765625,-0.94512939453125,0.24456787109375
1759696286040,883598644,25617,26,-0.182861328125,-0.94610595703125,0.24896240234375
1759696286040,883598644,25617,27,-0.17529296875,-0.94732666015625,0.24603271484375
1759696286040,883598644,25617,28,-0.178466796875,-0.94439697265625,0.24603271484375
1759696286040,883598644,25617,29,-0.181884765625,-0.94903564453125,0.24603271484375
1759696286040,883598644,25617,30,-0.182373046875,-0.95025634765625,0.24066162109375
1759696286040,883598644,25617,31,-0.181640625,-0.94219970703125,0.24017333984375
1759696288575,883601187,25618,0,-0.1796875,-0.94879150390625,0.24212646484375
1759696288575,883601187,25618,1,-0.175537109375,-0.94927978515625,0.24041748046875
1759696288575,883601187,25618,2,-0.181396484375,-0.94879150390625,0.24603271484375
1759696288575,883601187,25618,3,-0.178466796875,-0.94757080078125,0.23870849609375
1759696288575,883601187,25618,4,-0.1796875,-0.94830322265625,0.24139404296875
1759696288575,883601187,25618,5,-0.177734375,-0.95001220703125,0.24334716796875
1759696288575,883601187,25618,6,-0.181396484375,-0.94732666015625,0.23675537109375
1759696288575,883601187,25618,7,-0.18505859375,-0.94659423828125,0.24041748046875
1759696288575,883601187,25618,8,-0.1826171875,-0.95172119140625,0.23724365234375
1759696288575,883601187,25618,9,-0.18115234375,-0.95050048828125,0.23675537109375
1759696288575,883601187,25618,10,-0.18212890625,-0.94805908203125,0.23846435546875
1759696288575,883601187,25618,11,-0.177978515625,-0.94952392578125,0.24066162109375
1759696288575,883601187,25618,12,-0.177734375,-0.94732666015625,0.23724365234375
1759696288575,883601187,25618,13,-0.179931640625,-0.94927978515625,0.23919677734375
1759696288575,883601187,25618,14,-0.18017578125,-0.94976806640625,0.23504638671875
1759696288575,883601187,25618,15,-0.1787109375,-0.94952392578125,0.23529052734375
1759696288575,883601187,25618,16,-0.18212890625,-0.94903564453125,0.24212646484375
1759696288575,883601187,25618,17,-0.183349609375,-0.94708251953125,0.23455810546875
1759696288575,883601187,25618,18,-0.18505859375,-0.95074462890625,0.24066162109375
1759696288575,883601187,25618,19,-0.184326171875,-0.94464111328125,0.23797607421875
1759696288575,883601187,25618,20,-0.183837890625,-0.95147705078125,0.23626708984375
1759696288575,883601187,25618,21,-0.18115234375,-0.95123291015625,0.24017333984375
1759696288575,883601187,25618,22,-0.185302734375,-0.94854736328125,0.23675537109375
1759696288575,883601187,25618,23,-0.17919921875,-0.94830322265625,0.23992919921875
1759696288575,883601187,25618,24,-0.182861328125,-0.94781494140625,0.23944091796875
1759696288575,883601187,25618,25,-0.178955078125,-0.94537353515625,0.23724365234375
1759696288575,883601187,25618,26,-0.1826171875,-0.95416259765625,0.23797607421875
1759696288575,883601187,25618,27,-0.1806640625,-0.94488525390625,0.23480224609375
1759696288575,883601187,25618,28,-0.18359375,-0.94927978515625,0.24090576171875
1759696288575,883601187,25618,29,-0.177978515625,-0.94903564453125,0.24066162109375
