receivedPhoneTimestamp,respeckTimestamp,packetSeqNum,sampleSeqNum,accelX,accelY,accelZ
1760279379511,347195690,3426,11,-0.935791015625,-0.32305908203125,-0.37432861328125
1760279379511,347195690,3426,12,-0.931640625,-0.32159423828125,-0.37872314453125
1760279379511,347195690,3426,13,-0.93896484375,-0.32110595703125,-0.37286376953125
1760279379511,347195690,3426,14,-0.927734375,-0.31524658203125,-0.39215087890625
1760279379511,347195690,3426,15,-0.9248046875,-0.30548095703125,-0.42486572265625
1760279379511,347195690,3426,16,-0.9111328125,-0.29669189453125,-0.45050048828125
1760279379511,347195690,3426,17,-0.91162109375,-0.30035400390625,-0.45880126953125
1760279379511,347195690,3426,18,-0.90966796875,-0.30841064453125,-0.45343017578125
1760279379511,347195690,3426,19,-0.9150390625,-0.30767822265625,-0.44586181640625
1760279379511,347195690,3426,20,-0.91650390625,-0.29913330078125,-0.44659423828125
1760279379511,347195690,3426,21,-0.918212890625,-0.30157470703125,-0.43682861328125
1760279379511,347195690,3426,22,-0.914794921875,-0.30767822265625,-0.43316650390625
1760279379511,347195690,3426,23,-0.921142578125,-0.30767822265625,-0.43682861328125
1760279379511,347195690,3426,24,-0.91796875,-0.30816650390625,-0.43218994140625
1760279379511,347195690,3426,25,-0.919677734375,-0.30865478515625,-0.43316650390625
1760279379511,347195690,3426,26,-0.919921875,-0.30718994140625,-0.43731689453125
1760279379511,347195690,3426,27,-0.920654296875,-0.30572509765625,-0.43658447265625
1760279379511,347195690,3426,28,-0.918212890625,-0.30841064453125,-0.43951416015625
1760279379511,347195690,3426,29,-0.9169921875,-0.30596923828125,-0.43804931640625
1760279379511,347195690,3426,30,-0.92041015625,-0.30718994140625,-0.43243408203125
1760279379511,347195690,3426,31,-0.919921875,-0.31011962890625,-0.42633056640625
1760279382121,347198227,3427,0,-0.922607421875,-0.30718994140625,-0.41802978515625
1760279382121,347198227,3427,1,-0.9208984375,-0.31671142578125,-0.41876220703125
1760279382121,347198227,3427,2,-0.919189453125,-0.30889892578125,-0.42242431640625
1760279382121,347198227,3427,3,-0.9208984375,-0.30938720703125,-0.43560791015625
1760279382121,347198227,3427,4,-0.918701171875,-0.30792236328125,-0.43853759765625
1760279382121,347198227,3427,5,-0.915771484375,-0.30963134765625,-0.44024658203125
1760279382121,347198227,3427,6,-0.913330078125,-0.31085205078125,-0.44415283203125
1760279382121,347198227,3427,7,-0.919921875,-0.30743408203125,-0.43829345703125
1760279382121,347198227,3427,8,-0.912841796875,-0.30792236328125,-0.42950439453125
1760279382121,347198227,3427,9,-0.915771484375,-0.31500244140625,-0.43389892578125
1760279382121,347198227,3427,10,-0.913330078125,-0.31134033203125,-0.44024658203125
1760279382121,347198227,3427,11,-0.914794921875,-0.30889892578125,-0.44757080078125
1760279382121,347198227,3427,12,-0.913818359375,-0.31719970703125,-0.43829345703125
1760279382121,347198227,3427,13,-0.912841796875,-0.31451416015625,-0.44049072265625
1760279382121,347198227,3427,14,-0.91748046875,-0.31719970703125,-0.44268798828125
1760279382121,347198227,3427,15,-0.9130859375,-0.31524658203125,-0.43634033203125
1760279382121,347198227,3427,16,-0.919677734375,-0.31256103515625,-0.42828369140625
1760279382121,347198227,3427,17,-0.91845703125,-0.31353759765625,-0.43194580078125
1760279382121,347198227,3427,18,-0.914306640625,-0.31597900390625,-0.42706298828125
1760279382121,347198227,3427,19,-0.92041015625,-0.31500244140625,-0.42535400390625
1760279382121,347198227,3427,20,-0.91748046875,-0.31719970703125,-0.43463134765625
1760279382121,347198227,3427,21,-0.919677734375,-0.31695556640625,-0.43145751953125
1760279382121,347198227,3427,22,-0.914306640625,-0.31622314453125,-0.43585205078125
1760279382121,347198227,3427,23,-0.91650390625,-0.32037353515625,-0.42535400390625
1760279382121,347198227,3427,24,-0.917236328125,-0.31964111328125,-0.43121337890625
1760279382121,347198227,3427,25,-0.9169921875,-0.31842041015625,-0.42169189453125
1760279382121,347198227,3427,26,-0.915771484375,-0.31597900390625,-0.42755126953125
1760279382121,347198227,3427,27,-0.918701171875,-0.32110595703125,-0.42364501953125
1760279382121,347198227,3427,28,-0.915771484375,-0.32232666015625,-0.42681884765625
1760279382121,347198227,3427,29,-0.91650390625,-0.32330322265625,-0.41900634765625
1760279382121,347198227,3427,30,-0.919921875,-0.32305908203125,-0.43048095703125
1760279382121,347198227,3427,31,-0.91552734375,-0.32012939453125,-0.42340087890625
1760279384717,347200764,3428,0,-0.91455078125,-0.32403564453125,-0.42413330078125
1760279384717,347200764,3428,1,-0.916015625,-0.32281494140625,-0.43316650390625
1760279384717,347200764,3428,2,-0.91748046875,-0.32476806640625,-0.41607666015625
1760279384717,347200764,3428,3,-0.918701171875,-0.32720947265625,-0.41485595703125
1760279384717,347200764,3428,4,-0.916748046875,-0.32476806640625,-0.42169189453125
1760279384717,347200764,3428,5,-0.9189453125,-0.32672119140625,-0.41656494140625
1760279384717,347200764,3428,6,-0.91796875,-0.32843017578125,-0.41363525390625
1760279384717,347200764,3428,7,-0.917236328125,-0.32769775390625,-0.40997314453125
1760279384717,347200764,3428,8,-0.920654296875,-0.31915283203125,-0.42803955078125
1760279384717,347200764,3428,9,-0.90673828125,-0.30645751953125,-0.45489501953125
1760279384717,347200764,3428,10,-0.916259765625,-0.30328369140625,-0.46002197265625
1760279384717,347200764,3428,11,-0.911865234375,-0.29473876953125,-0.46636962890625
1760279384717,347200764,3428,12,-0.9111328125,-0.28375244140625,-0.47247314453125
1760279384717,347200764,3428,13,-0.90478515625,-0.29107666015625,-0.45440673828125
1760279384717,347200764,3428,14,-0.918212890625,-0.29669189453125,-0.47442626953125
1760279384717,347200764,3428,15,-0.912841796875,-0.29449462890625,-0.45220947265625
1760279384717,347200764,3428,16,-0.90869140625,-0.29449462890625,-0.46051025390625
1760279384717,347200764,3428,17,-0.911865234375,-0.29547119140625,-0.46368408203125
1760279384717,347200764,3428,18,-0.911376953125,-0.30328369140625,-0.45440673828125
1760279384717,347200764,3428,19,-0.91162109375,-0.30352783203125,-0.45074462890625
1760279384717,347200764,3428,20,-0.913818359375,-0.29620361328125,-0.45220947265625
1760279384717,347200764,3428,21,-0.913330078125,-0.29791259765625,-0.44976806640625
1760279384717,347200764,3428,22,-0.91455078125,-0.29937744140625,-0.45684814453125
1760279384717,347200764,3428,23,-0.9130859375,-0.30401611328125,-0.44708251953125
1760279384717,347200764,3428,24,-0.912353515625,-0.29840087890625,-0.45050048828125
1760279384717,347200764,3428,25,-0.91357421875,-0.30255126953125,-0.45196533203125
1760279384717,347200764,3428,26,-0.9091796875,-0.30401611328125,-0.44488525390625
1760279384717,347200764,3428,27,-0.91259765625,-0.30474853515625,-0.45196533203125
1760279384717,347200764,3428,28,-0.91259765625,-0.30670166015625,-0.44342041015625
1760279384717,347200764,3428,29,-0.91357421875,-0.30499267578125,-0.44805908203125
1760279384717,347200764,3428,30,-0.91259765625,-0.30474853515625,-0.44293212890625
1760279384717,347200764,3428,31,-0.9140625,-0.30718994140625,-0.44537353515625
1760279387316,347203301,3429,0,-0.9169921875,-0.30767822265625,-0.44195556640625
1760279387316,347203301,3429,1,-0.91357421875,-0.30303955078125,-0.44659423828125
1760279387316,347203301,3429,2,-0.911376953125,-0.30499267578125,-0.44927978515625
1760279387316,347203301,3429,3,-0.915771484375,-0.30694580078125,-0.44586181640625
1760279387316,347203301,3429,4,-0.91455078125,-0.30621337890625,-0.44927978515625
1760279387316,347203301,3429,5,-0.916015625,-0.30572509765625,-0.43853759765625
1760279387316,347203301,3429,6,-0.91748046875,-0.30792236328125,-0.43927001953125
1760279387316,347203301,3429,7,-0.917724609375,-0.30841064453125,-0.43902587890625
1760279387316,347203301,3429,8,-0.915283203125,-0.30792236328125,-0.43829345703125
1760279387316,347203301,3429,9,-0.914306640625,-0.30792236328125,-0.43145751953125
1760279387316,347203301,3429,10,-0.91748046875,-0.30889892578125,-0.44488525390625
1760279387316,347203301,3429,11,-0.9150390625,-0.30816650390625,-0.43829345703125
1760279387316,347203301,3429,12,-0.91650390625,-0.31036376953125,-0.43927001953125
1760279387316,347203301,3429,13,-0.91845703125,-0.30963134765625,-0.44390869140625
1760279387316,347203301,3429,14,-0.914306640625,-0.31060791015625,-0.43048095703125
1760279387316,347203301,3429,15,-0.917724609375,-0.30816650390625,-0.43927001953125
1760279387316,347203301,3429,16,-0.91650390625,-0.31085205078125,-0.43878173828125
1760279387316,347203301,3429,17,-0.917724609375,-0.31085205078125,-0.43487548828125
1760279387316,347203301,3429,18,-0.91455078125,-0.31280517578125,-0.42999267578125
1760279387316,347203301,3429,19,-0.916748046875,-0.31011962890625,-0.43927001953125
1760279387316,347203301,3429,20,-0.91748046875,-0.31060791015625,-0.43756103515625
1760279387316,347203301,3429,21,-0.913330078125,-0.30889892578125,-0.42828369140625
1760279387316,347203301,3429,22,-0.923828125,-0.31182861328125,-0.43634033203125
1760279387316,347203301,3429,23,-0.90869140625,-0.29669189453125,-0.44537353515625
1760279387316,347203301,3429,24,-0.910400390625,-0.29449462890625,-0.46759033203125
1760279387316,347203301,3429,25,-0.90625,-0.29034423828125,-0.47784423828125
1760279387316,347203301,3429,26,-0.9013671875,-0.29449462890625,-0.45953369140625
1760279387316,347203301,3429,27,-0.91015625,-0.30010986328125,-0.47955322265625
1760279387316,347203301,3429,28,-0.915283203125,-0.29254150390625,-0.47052001953125
1760279387316,347203301,3429,29,-0.906005859375,-0.29400634765625,-0.46051025390625
1760279387316,347203301,3429,30,-0.906494140625,-0.29620361328125,-0.46710205078125
1760279387316,347203301,3429,31,-0.91064453125,-0.30010986328125,-0.46099853515625
1760279389920,347205838,3430,0,-0.911865234375,-0.29864501953125,-0.46173095703125
1760279389920,347205838,3430,1,-0.90673828125,-0.30133056640625,-0.45684814453125
1760279389920,347205838,3430,2,-0.912841796875,-0.29962158203125,-0.45611572265625
1760279389920,347205838,3430,3,-0.91259765625,-0.30255126953125,-0.45928955078125
1760279389920,347205838,3430,4,-0.91064453125,-0.30523681640625,-0.45465087890625
1760279389920,347205838,3430,5,-0.90771484375,-0.30352783203125,-0.44830322265625
1760279389920,347205838,3430,6,-0.917724609375,-0.30133056640625,-0.46075439453125
1760279389920,347205838,3430,7,-0.912109375,-0.30181884765625,-0.45196533203125
1760279389920,347205838,3430,8,-0.91259765625,-0.30206298828125,-0.44830322265625
1760279389920,347205838,3430,9,-0.916259765625,-0.30474853515625,-0.44879150390625
1760279389920,347205838,3430,10,-0.9091796875,-0.30450439453125,-0.45513916015625
1760279389920,347205838,3430,11,-0.91259765625,-0.30718994140625,-0.44097900390625
1760279389920,347205838,3430,12,-0.917236328125,-0.30816650390625,-0.44830322265625
1760279389920,347205838,3430,13,-0.91552734375,-0.30645751953125,-0.44415283203125
1760279389920,347205838,3430,14,-0.913330078125,-0.30987548828125,-0.44537353515625
1760279389920,347205838,3430,15,-0.913818359375,-0.30841064453125,-0.44171142578125
1760279389920,347205838,3430,16,-0.915283203125,-0.30596923828125,-0.44781494140625
1760279389920,347205838,3430,17,-0.913330078125,-0.30694580078125,-0.44927978515625
1760279389920,347205838,3430,18,-0.9150390625,-0.31182861328125,-0.44244384765625
1760279389920,347205838,3430,19,-0.914306640625,-0.30841064453125,-0.44879150390625
1760279389920,347205838,3430,20,-0.912353515625,-0.31109619140625,-0.44097900390625
1760279389920,347205838,3430,21,-0.920654296875,-0.30816650390625,-0.43975830078125
1760279389920,347205838,3430,22,-0.916259765625,-0.30743408203125,-0.43658447265625
1760279389920,347205838,3430,23,-0.9169921875,-0.30841064453125,-0.44293212890625
1760279389920,347205838,3430,24,-0.916015625,-0.31036376953125,-0.44122314453125
1760279389920,347205838,3430,25,-0.9189453125,-0.30914306640625,-0.44244384765625
1760279389920,347205838,3430,26,-0.91748046875,-0.31182861328125,-0.43829345703125
1760279389920,347205838,3430,27,-0.911865234375,-0.31036376953125,-0.43756103515625
1760279389920,347205838,3430,28,-0.91650390625,-0.31524658203125,-0.43804931640625
1760279389920,347205838,3430,29,-0.9140625,-0.31036376953125,-0.44097900390625
1760279389920,347205838,3430,30,-0.918212890625,-0.31549072265625,-0.41925048828125
1760279389920,347205838,3430,31,-0.91796875,-0.31304931640625,-0.43341064453125
1760279392322,347208375,3431,0,-0.91748046875,-0.31793212890625,-0.42950439453125
1760279392322,347208375,3431,1,-0.915771484375,-0.31842041015625,-0.42413330078125
1760279392322,347208375,3431,2,-0.91943359375,-0.31768798828125,-0.43438720703125
1760279392322,347208375,3431,3,-0.916015625,-0.31280517578125,-0.43463134765625
1760279392322,347208375,3431,4,-0.912353515625,-0.32257080078125,-0.42486572265625
1760279392322,347208375,3431,5,-0.916015625,-0.32427978515625,-0.42340087890625
1760279392322,347208375,3431,6,-0.916748046875,-0.32550048828125,-0.43121337890625
1760279392322,347208375,3431,7,-0.91748046875,-0.32672119140625,-0.41046142578125
1760279392322,347208375,3431,8,-0.922119140625,-0.32305908203125,-0.41241455078125
1760279392322,347208375,3431,9,-0.91943359375,-0.32720947265625,-0.41534423828125
1760279392322,347208375,3431,10,-0.916748046875,-0.32672119140625,-0.41412353515625
1760279392322,347208375,3431,11,-0.916748046875,-0.32794189453125,-0.40509033203125
1760279392322,347208375,3431,12,-0.925048828125,-0.32891845703125,-0.40313720703125
1760279392322,347208375,3431,13,-0.923583984375,-0.33135986328125,-0.39874267578125
1760279392322,347208375,3431,14,-0.91943359375,-0.32989501953125,-0.40093994140625
1760279392322,347208375,3431,15,-0.923828125,-0.33160400390625,-0.41046142578125
1760279392322,347208375,3431,16,-0.921142578125,-0.33038330078125,-0.38677978515625
1760279392322,347208375,3431,17,-0.92626953125,-0.32794189453125,-0.39776611328125
1760279392322,347208375,3431,18,-0.925048828125,-0.32965087890625,-0.40338134765625
1760279392322,347208375,3431,19,-0.922119140625,-0.33111572265625,-0.39361572265625
1760279392322,347208375,3431,20,-0.924560546875,-0.33282470703125,-0.39678955078125
1760279392322,347208375,3431,21,-0.9296875,-0.33404541015625,-0.39093017578125
1760279392322,347208375,3431,22,-0.924072265625,-0.33526611328125,-0.39019775390625
1760279392322,347208375,3431,23,-0.923095703125,-0.33477783203125,-0.39117431640625
1760279392322,347208375,3431,24,-0.927001953125,-0.33233642578125,-0.38922119140625
1760279392322,347208375,3431,25,-0.927001953125,-0.33453369140625,-0.38287353515625
1760279392322,347208375,3431,26,-0.9228515625,-0.33331298828125,-0.38360595703125
1760279392322,347208375,3431,27,-0.927001953125,-0.33428955078125,-0.39337158203125
1760279392322,347208375,3431,28,-0.923828125,-0.33648681640625,-0.38409423828125
1760279392322,347208375,3431,29,-0.928466796875,-0.33209228515625,-0.37017822265625
1760279392322,347208375,3431,30,-0.928955078125,-0.33038330078125,-0.37554931640625
1760279392322,347208375,3431,31,-0.93115234375,-0.33648681640625,-0.37432861328125
1760279394721,347210912,3432,0,-0.93408203125,-0.33697509765625,-0.36163330078125
1760279394721,347210912,3432,1,-0.928955078125,-0.33477783203125,-0.36602783203125
1760279394721,347210912,3432,2,-0.931884765625,-0.33404541015625,-0.37261962890625
1760279394721,347210912,3432,3,-0.933349609375,-0.33502197265625,-0.37261962890625
1760279394721,347210912,3432,4,-0.932373046875,-0.33575439453125,-0.36749267578125
1760279394721,347210912,3432,5,-0.930908203125,-0.33966064453125,-0.37432861328125
1760279394721,347210912,3432,6,-0.933349609375,-0.33721923828125,-0.37139892578125
1760279394721,347210912,3432,7,-0.92724609375,-0.33404541015625,-0.37066650390625
1760279394721,347210912,3432,8,-0.9306640625,-0.33721923828125,-0.37408447265625
1760279394721,347210912,3432,9,-0.925537109375,-0.34088134765625,-0.36334228515625
1760279394721,347210912,3432,10,-0.931884765625,-0.33843994140625,-0.38287353515625
1760279394721,347210912,3432,11,-0.91796875,-0.32159423828125,-0.41339111328125
1760279394721,347210912,3432,12,-0.916259765625,-0.30181884765625,-0.45391845703125
1760279394721,347210912,3432,13,-0.92333984375,-0.31109619140625,-0.42510986328125
1760279394721,347210912,3432,14,-0.9091796875,-0.32012939453125,-0.39825439453125
1760279394721,347210912,3432,15,-0.926025390625,-0.32183837890625,-0.42486572265625
1760279394721,347210912,3432,16,-0.926025390625,-0.31207275390625,-0.43267822265625
1760279394721,347210912,3432,17,-0.911376953125,-0.31207275390625,-0.41607666015625
1760279394721,347210912,3432,18,-0.921630859375,-0.31549072265625,-0.43414306640625
1760279394721,347210912,3432,19,-0.921630859375,-0.32281494140625,-0.40411376953125
1760279394721,347210912,3432,20,-0.91748046875,-0.31793212890625,-0.39971923828125
1760279394721,347210912,3432,21,-0.928466796875,-0.31768798828125,-0.41851806640625
1760279394721,347210912,3432,22,-0.92041015625,-0.31475830078125,-0.42340087890625
1760279394721,347210912,3432,23,-0.919189453125,-0.31915283203125,-0.41387939453125
1760279394721,347210912,3432,24,-0.924560546875,-0.32061767578125,-0.41534423828125
1760279394721,347210912,3432,25,-0.919189453125,-0.31744384765625,-0.41510009765625
1760279394721,347210912,3432,26,-0.919921875,-0.31793212890625,-0.41729736328125
1760279394721,347210912,3432,27,-0.922607421875,-0.32061767578125,-0.41925048828125
1760279394721,347210912,3432,28,-0.91845703125,-0.32330322265625,-0.41558837890625
1760279394721,347210912,3432,29,-0.92333984375,-0.31915283203125,-0.41070556640625
1760279394721,347210912,3432,30,-0.91943359375,-0.31793212890625,-0.41265869140625
1760279394721,347210912,3432,31,-0.917724609375,-0.32305908203125,-0.41314697265625
1760279397522,347213449,3433,0,-0.922607421875,-0.32769775390625,-0.40533447265625
1760279397522,347213449,3433,1,-0.92041015625,-0.32305908203125,-0.41021728515625
1760279397522,347213449,3433,2,-0.921875,-0.32598876953125,-0.40338134765625
1760279397522,347213449,3433,3,-0.919921875,-0.32525634765625,-0.40582275390625
1760279397522,347213449,3433,4,-0.92138671875,-0.32598876953125,-0.40777587890625
1760279397522,347213449,3433,5,-0.92041015625,-0.32867431640625,-0.40142822265625
1760279397522,347213449,3433,6,-0.92041015625,-0.32647705078125,-0.40093994140625
1760279397522,347213449,3433,7,-0.9267578125,-0.32916259765625,-0.39312744140625
1760279397522,347213449,3433,8,-0.9248046875,-0.33135986328125,-0.38946533203125
1760279397522,347213449,3433,9,-0.925537109375,-0.33013916015625,-0.39190673828125
1760279397522,347213449,3433,10,-0.92431640625,-0.32720947265625,-0.39678955078125
1760279397522,347213449,3433,11,-0.92333984375,-0.32989501953125,-0.38946533203125
1760279397522,347213449,3433,12,-0.9248046875,-0.32623291015625,-0.39898681640625
1760279397522,347213449,3433,13,-0.926513671875,-0.33209228515625,-0.39215087890625
1760279397522,347213449,3433,14,-0.922119140625,-0.32989501953125,-0.38409423828125
1760279397522,347213449,3433,15,-0.926025390625,-0.32696533203125,-0.39703369140625
1760279397522,347213449,3433,16,-0.92724609375,-0.33038330078125,-0.38580322265625
1760279397522,347213449,3433,17,-0.923583984375,-0.33135986328125,-0.38922119140625
1760279397522,347213449,3433,18,-0.923095703125,-0.33038330078125,-0.38922119140625
1760279397522,347213449,3433,19,-0.92529296875,-0.33038330078125,-0.39117431640625
1760279397522,347213449,3433,20,-0.924560546875,-0.33038330078125,-0.38970947265625
1760279397522,347213449,3433,21,-0.92333984375,-0.33062744140625,-0.39434814453125
1760279397522,347213449,3433,22,-0.921875,-0.32720947265625,-0.40899658203125
1760279397522,347213449,3433,23,-0.9228515625,-0.33331298828125,-0.40533447265625
1760279397522,347213449,3433,24,-0.919677734375,-0.32745361328125,-0.39849853515625
1760279397522,347213449,3433,25,-0.923828125,-0.32550048828125,-0.40655517578125
1760279397522,347213449,3433,26,-0.921630859375,-0.33062744140625,-0.40069580078125
1760279397522,347213449,3433,27,-0.921630859375,-0.33038330078125,-0.39801025390625
1760279397522,347213449,3433,28,-0.92529296875,-0.33038330078125,-0.39508056640625
1760279397522,347213449,3433,29,-0.922607421875,-0.32574462890625,-0.42047119140625
1760279397522,347213449,3433,30,-0.9072265625,-0.29669189453125,-0.45513916015625
1760279397522,347213449,3433,31,-0.906982421875,-0.30645751953125,-0.46392822265625
1760279399905,347215986,3434,0,-0.90673828125,-0.31427001953125,-0.45123291015625
1760279399905,347215986,3434,1,-0.907958984375,-0.31500244140625,-0.45123291015625
1760279399905,347215986,3434,2,-0.911376953125,-0.30938720703125,-0.45806884765625
1760279399905,347215986,3434,3,-0.90576171875,-0.30914306640625,-0.45806884765625
1760279399905,347215986,3434,4,-0.907958984375,-0.31427001953125,-0.44586181640625
1760279399905,347215986,3434,5,-0.91357421875,-0.31500244140625,-0.44512939453125
1760279399905,347215986,3434,6,-0.913330078125,-0.31231689453125,-0.44854736328125
1760279399905,347215986,3434,7,-0.910400390625,-0.30914306640625,-0.44512939453125
1760279399905,347215986,3434,8,-0.91259765625,-0.31085205078125,-0.44805908203125
1760279399905,347215986,3434,9,-0.914794921875,-0.30889892578125,-0.44854736328125
1760279399905,347215986,3434,10,-0.911376953125,-0.31451416015625,-0.45220947265625
1760279399905,347215986,3434,11,-0.912109375,-0.30792236328125,-0.45440673828125
1760279399905,347215986,3434,12,-0.90771484375,-0.30767822265625,-0.45269775390625
1760279399905,347215986,3434,13,-0.90966796875,-0.31060791015625,-0.45147705078125
1760279399905,347215986,3434,14,-0.910888671875,-0.30963134765625,-0.44439697265625
1760279399905,347215986,3434,15,-0.913330078125,-0.30743408203125,-0.44732666015625
1760279399905,347215986,3434,16,-0.912109375,-0.31060791015625,-0.45001220703125
1760279399905,347215986,3434,17,-0.91015625,-0.31085205078125,-0.44464111328125
1760279399905,347215986,3434,18,-0.912109375,-0.31158447265625,-0.44512939453125
1760279399905,347215986,3434,19,-0.913818359375,-0.31329345703125,-0.45294189453125
1760279399905,347215986,3434,20,-0.9130859375,-0.31036376953125,-0.43951416015625
1760279399905,347215986,3434,21,-0.915283203125,-0.31134033203125,-0.44097900390625
1760279399905,347215986,3434,22,-0.91162109375,-0.31378173828125,-0.44244384765625
1760279399905,347215986,3434,23,-0.911865234375,-0.31573486328125,-0.43707275390625
1760279399905,347215986,3434,24,-0.913818359375,-0.31500244140625,-0.43585205078125
1760279399905,347215986,3434,25,-0.913818359375,-0.31280517578125,-0.44122314453125
1760279399905,347215986,3434,26,-0.91259765625,-0.31256103515625,-0.44342041015625
1760279399905,347215986,3434,27,-0.91552734375,-0.31500244140625,-0.43682861328125
1760279399905,347215986,3434,28,-0.913818359375,-0.31475830078125,-0.44488525390625
1760279399905,347215986,3434,29,-0.912841796875,-0.31793212890625,-0.42999267578125
1760279399905,347215986,3434,30,-0.916748046875,-0.31646728515625,-0.43756103515625
1760279399905,347215986,3434,31,-0.91552734375,-0.31744384765625,-0.43804931640625
1760279402322,347218523,3435,0,-0.9169921875,-0.31549072265625,-0.42218017578125
1760279402322,347218523,3435,1,-0.915771484375,-0.31524658203125,-0.42608642578125
1760279402322,347218523,3435,2,-0.917724609375,-0.31353759765625,-0.43560791015625
1760279402322,347218523,3435,3,-0.9140625,-0.31353759765625,-0.43707275390625
1760279402322,347218523,3435,4,-0.91064453125,-0.31549072265625,-0.43585205078125
1760279402322,347218523,3435,5,-0.919189453125,-0.31475830078125,-0.44268798828125
1760279402322,347218523,3435,6,-0.913330078125,-0.31744384765625,-0.43292236328125
1760279402322,347218523,3435,7,-0.9169921875,-0.31744384765625,-0.43023681640625
1760279402322,347218523,3435,8,-0.9189453125,-0.31549072265625,-0.43609619140625
1760279402322,347218523,3435,9,-0.91650390625,-0.32183837890625,-0.43218994140625
1760279402322,347218523,3435,10,-0.916748046875,-0.32183837890625,-0.42828369140625
1760279402322,347218523,3435,11,-0.914794921875,-0.31866455078125,-0.42681884765625
1760279402322,347218523,3435,12,-0.917236328125,-0.32281494140625,-0.42926025390625
1760279402322,347218523,3435,13,-0.91357421875,-0.32281494140625,-0.43194580078125
1760279402322,347218523,3435,14,-0.91552734375,-0.32330322265625,-0.42974853515625
1760279402322,347218523,3435,15,-0.91845703125,-0.31964111328125,-0.42340087890625
1760279402322,347218523,3435,16,-0.920166015625,-0.32305908203125,-0.41021728515625
1760279402322,347218523,3435,17,-0.922607421875,-0.32037353515625,-0.42950439453125
1760279402322,347218523,3435,18,-0.9150390625,-0.32427978515625,-0.41949462890625
1760279402322,347218523,3435,19,-0.919677734375,-0.32696533203125,-0.41046142578125
1760279402322,347218523,3435,20,-0.919921875,-0.32452392578125,-0.40509033203125
1760279402322,347218523,3435,21,-0.9189453125,-0.32427978515625,-0.42510986328125
1760279402322,347218523,3435,22,-0.918701171875,-0.32330322265625,-0.41998291015625
1760279402322,347218523,3435,23,-0.919921875,-0.32403564453125,-0.41534423828125
1760279402322,347218523,3435,24,-0.919189453125,-0.32452392578125,-0.42242431640625
1760279402322,347218523,3435,25,-0.921875,-0.32525634765625,-0.40216064453125
1760279402322,347218523,3435,26,-0.92529296875,-0.32623291015625,-0.40679931640625
1760279402322,347218523,3435,27,-0.922119140625,-0.32940673828125,-0.39752197265625
1760279402322,347218523,3435,28,-0.92041015625,-0.32867431640625,-0.39825439453125
1760279402322,347218523,3435,29,-0.921630859375,-0.32794189453125,-0.40948486328125
1760279402322,347218523,3435,30,-0.92431640625,-0.32769775390625,-0.39947509765625
1760279402322,347218523,3435,31,-0.91455078125,-0.32623291015625,-0.40655517578125
1760279404900,347221061,3436,0,-0.92431640625,-0.32843017578125,-0.40679931640625
1760279404900,347221061,3436,1,-0.926513671875,-0.32965087890625,-0.40216064453125
1760279404900,347221061,3436,2,-0.920654296875,-0.32965087890625,-0.38995361328125
1760279404900,347221061,3436,3,-0.923583984375,-0.32745361328125,-0.39727783203125
1760279404900,347221061,3436,4,-0.927734375,-0.32452392578125,-0.43975830078125
1760279404900,347221061,3436,5,-0.92822265625,-0.31890869140625,-0.39752197265625
1760279404900,347221061,3436,6,-0.916015625,-0.32110595703125,-0.40313720703125
1760279404900,347221061,3436,7,-0.919189453125,-0.31451416015625,-0.41461181640625
1760279404900,347221061,3436,8,-0.921875,-0.31988525390625,-0.41900634765625
1760279404900,347221061,3436,9,-0.922607421875,-0.31744384765625,-0.41534423828125
1760279404900,347221061,3436,10,-0.9208984375,-0.31964111328125,-0.43170166015625
1760279404900,347221061,3436,11,-0.91943359375,-0.31646728515625,-0.41949462890625
1760279404900,347221061,3436,12,-0.921875,-0.31549072265625,-0.41241455078125
1760279404900,347221061,3436,13,-0.921630859375,-0.31915283203125,-0.40997314453125
1760279404900,347221061,3436,14,-0.920166015625,-0.31890869140625,-0.40142822265625
1760279404900,347221061,3436,15,-0.92431640625,-0.32135009765625,-0.40606689453125
1760279404900,347221061,3436,16,-0.92431640625,-0.31939697265625,-0.40948486328125
1760279404900,347221061,3436,17,-0.920166015625,-0.32257080078125,-0.40338134765625
1760279404900,347221061,3436,18,-0.920654296875,-0.32379150390625,-0.40728759765625
1760279404900,347221061,3436,19,-0.925048828125,-0.32330322265625,-0.41168212890625
1760279404900,347221061,3436,20,-0.92529296875,-0.32183837890625,-0.40924072265625
1760279404900,347221061,3436,21,-0.921875,-0.32061767578125,-0.40411376953125
1760279404900,347221061,3436,22,-0.922607421875,-0.32379150390625,-0.40386962890625
1760279404900,347221061,3436,23,-0.924072265625,-0.32305908203125,-0.40264892578125
1760279404900,347221061,3436,24,-0.923583984375,-0.32232666015625,-0.39825439453125
1760279404900,347221061,3436,25,-0.923583984375,-0.31939697265625,-0.40191650390625
1760279404900,347221061,3436,26,-0.91943359375,-0.32501220703125,-0.40582275390625
1760279404900,347221061,3436,27,-0.93310546875,-0.32159423828125,-0.40997314453125
1760279404900,347221061,3436,28,-0.920654296875,-0.31768798828125,-0.40704345703125
1760279404900,347221061,3436,29,-0.9228515625,-0.30816650390625,-0.42169189453125
1760279404900,347221061,3436,30,-0.9267578125,-0.30572509765625,-0.42462158203125
1760279404900,347221061,3436,31,-0.923583984375,-0.29302978515625,-0.43780517578125
1760279407520,347223598,3437,0,-0.9150390625,-0.29547119140625,-0.41680908203125
1760279407520,347223598,3437,1,-0.9287109375,-0.29766845703125,-0.44146728515625
1760279407520,347223598,3437,2,-0.927490234375,-0.29522705078125,-0.43756103515625
1760279407520,347223598,3437,3,-0.91943359375,-0.29498291015625,-0.42828369140625
1760279407520,347223598,3437,4,-0.923095703125,-0.29742431640625,-0.42852783203125
1760279407520,347223598,3437,5,-0.922119140625,-0.30426025390625,-0.43634033203125
1760279407520,347223598,3437,6,-0.925537109375,-0.29742431640625,-0.41900634765625
1760279407520,347223598,3437,7,-0.92529296875,-0.29791259765625,-0.42486572265625
1760279407520,347223598,3437,8,-0.92333984375,-0.30059814453125,-0.41705322265625
1760279407520,347223598,3437,9,-0.92333984375,-0.30108642578125,-0.41802978515625
1760279407520,347223598,3437,10,-0.92529296875,-0.30084228515625,-0.41802978515625
1760279407520,347223598,3437,11,-0.924072265625,-0.30133056640625,-0.42144775390625
1760279407520,347223598,3437,12,-0.923828125,-0.30548095703125,-0.42291259765625
1760279407520,347223598,3437,13,-0.92626953125,-0.30303955078125,-0.42340087890625
1760279407520,347223598,3437,14,-0.922119140625,-0.30548095703125,-0.42071533203125
1760279407520,347223598,3437,15,-0.92529296875,-0.29962158203125,-0.41656494140625
1760279407520,347223598,3437,16,-0.923828125,-0.30328369140625,-0.42266845703125
1760279407520,347223598,3437,17,-0.924560546875,-0.30596923828125,-0.41558837890625
1760279407520,347223598,3437,18,-0.92431640625,-0.30596923828125,-0.40826416015625
1760279407520,347223598,3437,19,-0.928466796875,-0.30645751953125,-0.41534423828125
1760279407520,347223598,3437,20,-0.9296875,-0.30694580078125,-0.41119384765625
1760279407520,347223598,3437,21,-0.9228515625,-0.30670166015625,-0.41021728515625
1760279407520,347223598,3437,22,-0.9287109375,-0.30841064453125,-0.41168212890625
1760279407520,347223598,3437,23,-0.927978515625,-0.30792236328125,-0.40753173828125
1760279407520,347223598,3437,24,-0.926513671875,-0.30499267578125,-0.40753173828125
1760279407520,347223598,3437,25,-0.92822265625,-0.30987548828125,-0.40582275390625
1760279407520,347223598,3437,26,-0.9287109375,-0.31011962890625,-0.40313720703125
1760279407520,347223598,3437,27,-0.925537109375,-0.31109619140625,-0.39727783203125
1760279407520,347223598,3437,28,-0.9267578125,-0.31109619140625,-0.40899658203125
1760279407520,347223598,3437,29,-0.93017578125,-0.30816650390625,-0.40484619140625
1760279407520,347223598,3437,30,-0.927001953125,-0.30938720703125,-0.40728759765625
1760279407520,347223598,3437,31,-0.924072265625,-0.31060791015625,-0.40582275390625
1760279410123,347226135,3438,0,-0.933349609375,-0.31011962890625,-0.40850830078125
1760279410123,347226135,3438,1,-0.928466796875,-0.30230712890625,-0.40313720703125
1760279410123,347226135,3438,2,-0.923828125,-0.29278564453125,-0.43585205078125
1760279410123,347226135,3438,3,-0.92236328125,-0.29449462890625,-0.45538330078125
1760279410123,347226135,3438,4,-0.9091796875,-0.29376220703125,-0.43365478515625
1760279410123,347226135,3438,5,-0.930419921875,-0.29522705078125,-0.44268798828125
1760279410123,347226135,3438,6,-0.925048828125,-0.29302978515625,-0.43804931640625
1760279410123,347226135,3438,7,-0.919189453125,-0.29718017578125,-0.42926025390625
1760279410123,347226135,3438,8,-0.92041015625,-0.30157470703125,-0.43975830078125
1760279410123,347226135,3438,9,-0.919921875,-0.29791259765625,-0.42828369140625
1760279410123,347226135,3438,10,-0.921142578125,-0.29449462890625,-0.42535400390625
1760279410123,347226135,3438,11,-0.92626953125,-0.29595947265625,-0.43902587890625
1760279410123,347226135,3438,12,-0.920166015625,-0.29742431640625,-0.43194580078125
1760279410123,347226135,3438,13,-0.91943359375,-0.30377197265625,-0.42828369140625
1760279410123,347226135,3438,14,-0.92822265625,-0.30279541015625,-0.43414306640625
1760279410123,347226135,3438,15,-0.918701171875,-0.29888916015625,-0.42681884765625
