receivedPhoneTimestamp,respeckTimestamp,packetSeqNum,sampleSeqNum,accelX,accelY,accelZ
1759678287537,866068770,13572,0,-0.132568359375,-1.05377197265625,-0.04473876953125
1759678287537,866068770,13572,1,-0.1318359375,-1.04791259765625,-0.04058837890625
1759678287537,866068770,13572,2,-0.137939453125,-1.02984619140625,0.00164794921875
1759678287537,866068770,13572,3,-0.123779296875,-1.02716064453125,-0.03985595703125
1759678287537,866068770,13572,4,-0.15234375,-1.02227783203125,-0.02471923828125
1759678287537,866068770,13572,5,-0.125244140625,-1.03594970703125,-0.02105712890625
1759678287537,866068770,13572,6,-0.1376953125,-1.01617431640625,-0.03350830078125
1759678287537,866068770,13572,7,-0.132080078125,-1.01055908203125,-0.02886962890625
1759678287537,866068770,13572,8,-0.15283203125,-1.05865478515625,0.00384521484375
1759678287537,866068770,13572,9,-0.141357421875,-1.05670166015625,-0.06011962890625
1759678287537,866068770,13572,10,-0.150634765625,-1.03253173828125,-0.06915283203125
1759678287537,866068770,13572,11,-0.150634765625,-1.03204345703125,-0.01959228515625
1759678287537,866068770,13572,12,-0.112060546875,-1.01739501953125,-0.10699462890625
1759678287537,866068770,13572,13,-0.181640625,-1.01129150390625,-0.05352783203125
1759678287537,866068770,13572,14,-0.148193359375,-1.04888916015625,-0.08038330078125
1759678287537,866068770,13572,31,-0.21435546875,-1.04449462890625,-0.01300048828125
1759678290056,866071308,13573,0,-0.154296875,-1.00396728515625,-0.08135986328125
1759678290056,866071308,13573,1,-0.171875,-1.02886962890625,-0.02667236328125
1759678290056,866071308,13573,2,-0.176513671875,-1.02764892578125,-0.03570556640625
1759678290056,866071308,13573,3,-0.18896484375,-1.03887939453125,0.01068115234375
1759678290056,866071308,13573,4,-0.149169921875,-1.03204345703125,-0.07110595703125
1759678290056,866071308,13573,5,-0.150146484375,-0.98394775390625,-0.09600830078125
1759678290056,866071308,13573,6,-0.168212890625,-1.05743408203125,0.00433349609375
1759678290056,866071308,13573,7,-0.179931640625,-1.02447509765625,-0.03863525390625
1759678290056,866071308,13573,8,-0.140380859375,-1.00836181640625,-0.08599853515625
1759678290056,866071308,13573,9,-0.184814453125,-1.03253173828125,-0.01568603515625
1759678290056,866071308,13573,10,-0.1728515625,-1.03375244140625,-0.05718994140625
1759678290056,866071308,13573,11,-0.162109375,-0.99542236328125,-0.07574462890625
1759678290056,866071308,13573,12,-0.178955078125,-1.05059814453125,-0.02325439453125
1759678290056,866071308,13573,13,-0.164794921875,-1.01885986328125,-0.07330322265625
1759678290056,866071308,13573,14,-0.184326171875,-1.03302001953125,-0.05743408203125
1759678290056,866071308,13573,15,-0.1806640625,-1.05279541015625,-0.03155517578125
1759678290056,866071308,13573,16,-0.1767578125,-1.01251220703125,-0.02813720703125
1759678290056,866071308,13573,17,-0.189208984375,-0.99322509765625,-6.103515625e-05
1759678290056,866071308,13573,18,-0.193603515625,-1.04034423828125,0.03411865234375
1759678290056,866071308,13573,19,-0.1826171875,-1.02056884765625,-0.00518798828125
1759678290056,866071308,13573,20,-0.198486328125,-0.99981689453125,-0.01446533203125
1759678290056,866071308,13573,21,-0.201171875,-1.02374267578125,0.02386474609375
1759678290056,866071308,13573,22,-0.184814453125,-1.03326416015625,-0.04449462890625
1759678290056,866071308,13573,23,-0.208984375,-1.01153564453125,0.02581787109375
1759678290056,866071308,13573,24,-0.19580078125,-1.03228759765625,-0.00592041015625
1759678290056,866071308,13573,25,-0.189697265625,-1.00494384765625,-0.00103759765625
1759678290056,866071308,13573,26,-0.203369140625,-1.02056884765625,0.01556396484375
1759678290056,866071308,13573,27,-0.188720703125,-1.02398681640625,-0.02398681640625
1759678290056,866071308,13573,28,-0.203125,-1.01690673828125,0.00311279296875
1759678290056,866071308,13573,29,-0.19873046875,-1.02886962890625,0.01678466796875
1759678290056,866071308,13573,30,-0.183837890625,-1.01300048828125,-0.03985595703125
1759678290056,866071308,13573,31,-0.19921875,-1.01324462890625,-0.01617431640625
1759678292574,866073845,13574,0,-0.210693359375,-1.03912353515625,0.02337646484375
1759678292574,866073845,13574,1,-0.180908203125,-1.00762939453125,-0.04913330078125
1759678292574,866073845,13574,2,-0.1982421875,-1.01593017578125,-0.00445556640625
1759678292574,866073845,13574,3,-0.194091796875,-1.04254150390625,0.01873779296875
1759678292574,866073845,13574,4,-0.174072265625,-1.00347900390625,-0.05694580078125
1759678292574,866073845,13574,5,-0.18701171875,-1.02520751953125,-0.01226806640625
1759678292574,866073845,13574,6,-0.187744140625,-1.03497314453125,0.01214599609375
1759678292574,866073845,13574,7,-0.183837890625,-1.01275634765625,-0.03472900390625
1759678292574,866073845,13574,8,-0.1845703125,-1.01422119140625,-0.03961181640625
1759678292574,866073845,13574,9,-0.186767578125,-1.04791259765625,-6.103515625e-05
1759678292574,866073845,13574,10,-0.18896484375,-1.02960205078125,-0.00738525390625
1759678292574,866073845,13574,11,-0.1796875,-1.02593994140625,-0.02545166015625
1759678292574,866073845,13574,12,-0.17724609375,-1.01080322265625,-0.02667236328125
1759678292574,866073845,13574,13,-0.183349609375,-1.00128173828125,-0.02740478515625
1759678292574,866073845,13574,14,-0.1953125,-1.01837158203125,0.02362060546875
1759678292574,866073845,13574,15,-0.16455078125,-1.04571533203125,-0.07330322265625
1759678292574,866073845,13574,16,-0.166748046875,-1.01177978515625,-0.02130126953125
1759678292574,866073845,13574,17,-0.177734375,-1.02056884765625,0.00262451171875
1759678292574,866073845,13574,18,-0.1689453125,-1.02203369140625,-0.02789306640625
1759678292574,866073845,13574,19,-0.153076171875,-1.02154541015625,-0.04156494140625
1759678292574,866073845,13574,20,-0.185302734375,-1.02886962890625,0.02947998046875
1759678292574,866073845,13574,21,-0.166748046875,-1.03009033203125,-0.03594970703125
1759678292574,866073845,13574,22,-0.159912109375,-1.01251220703125,-0.02960205078125
1759678292574,866073845,13574,23,-0.1943359375,-1.03619384765625,0.03045654296875
1759678292574,866073845,13574,24,-0.17919921875,-1.02423095703125,-0.06158447265625
1759678292574,866073845,13574,25,-0.158935546875,-1.00787353515625,-0.04058837890625
1759678292574,866073845,13574,26,-0.16943359375,-1.03424072265625,0.00897216796875
1759678292574,866073845,13574,27,-0.162353515625,-1.02789306640625,-0.05621337890625
1759678292574,866073845,13574,28,-0.1640625,-1.01934814453125,-0.05059814453125
1759678292574,866073845,13574,29,-0.16796875,-1.02838134765625,-0.01495361328125
1759678292574,866073845,13574,30,-0.16259765625,-1.01690673828125,-0.02252197265625
1759678292574,866073845,13574,31,-0.166259765625,-1.03155517578125,-0.05035400390625
1759678295094,866076382,13575,0,-0.173828125,-1.03228759765625,-0.01861572265625
1759678295094,866076382,13575,1,-0.16650390625,-1.02349853515625,-0.02471923828125
1759678295094,866076382,13575,2,-0.17919921875,-1.01837158203125,-0.02325439453125
1759678295094,866076382,13575,3,-0.181640625,-1.01544189453125,-0.02178955078125
1759678295094,866076382,13575,4,-0.1875,-1.02325439453125,-0.01129150390625
1759678295094,866076382,13575,5,-0.155517578125,-1.03253173828125,-0.04473876953125
1759678295094,866076382,13575,6,-0.177734375,-1.02008056640625,-0.02716064453125
1759678295094,866076382,13575,7,-0.18896484375,-1.02008056640625,-0.01153564453125
1759678295094,866076382,13575,8,-0.195556640625,-1.02642822265625,-0.01031494140625
1759678295094,866076382,13575,9,-0.165771484375,-1.02569580078125,-0.05743408203125
1759678295094,866076382,13575,10,-0.197021484375,-1.02178955078125,-0.02081298828125
1759678295094,866076382,13575,11,-0.194091796875,-1.02471923828125,-0.00885009765625
1759678295094,866076382,13575,12,-0.1953125,-1.02227783203125,-0.03277587890625
1759678295094,866076382,13575,13,-0.17138671875,-1.02227783203125,-0.04815673828125
1759678295094,866076382,13575,14,-0.19970703125,-1.01715087890625,-0.02593994140625
1759678295094,866076382,13575,15,-0.201171875,-1.02056884765625,-0.01690673828125
1759678295094,866076382,13575,16,-0.173095703125,-1.02789306640625,-0.04132080078125
1759678295094,866076382,13575,17,-0.186767578125,-1.01861572265625,-0.04620361328125
1759678295094,866076382,13575,18,-0.19482421875,-1.02886962890625,-0.02105712890625
1759678295094,866076382,13575,19,-0.185791015625,-1.02178955078125,-0.03057861328125
1759678295094,866076382,13575,20,-0.189453125,-1.02252197265625,-0.03009033203125
1759678295094,866076382,13575,21,-0.18798828125,-1.01470947265625,-0.04376220703125
1759678295094,866076382,13575,22,-0.197998046875,-1.02276611328125,-0.01983642578125
1759678295094,866076382,13575,23,-0.1904296875,-1.02911376953125,-0.05865478515625
1759678295094,866076382,13575,24,-0.183837890625,-1.01129150390625,-0.03863525390625
1759678295094,866076382,13575,25,-0.216552734375,-1.02252197265625,-0.00567626953125
1759678295094,866076382,13575,26,-0.177734375,-1.02178955078125,-0.05889892578125
1759678295094,866076382,13575,27,-0.187255859375,-1.01348876953125,-0.04547119140625
1759678295094,866076382,13575,28,-0.195556640625,-1.03497314453125,-0.01617431640625
1759678295094,866076382,13575,29,-0.18017578125,-1.02008056640625,-0.04400634765625
1759678295094,866076382,13575,30,-0.17578125,-1.01422119140625,-0.05596923828125
1759678295094,866076382,13575,31,-0.20068359375,-1.02569580078125,-0.01739501953125
1759678297789,866078919,13576,0,-0.1982421875,-1.03057861328125,-0.01446533203125
1759678297789,866078919,13576,1,-0.1806640625,-1.01446533203125,-0.05108642578125
1759678297789,866078919,13576,2,-0.19140625,-1.02154541015625,-0.03887939453125
1759678297789,866078919,13576,3,-0.18896484375,-1.02984619140625,-0.01934814453125
1759678297789,866078919,13576,4,-0.185791015625,-1.02130126953125,-0.03326416015625
1759678297789,866078919,13576,5,-0.18798828125,-1.02520751953125,-0.02227783203125
1759678297789,866078919,13576,6,-0.189208984375,-1.02105712890625,-0.03277587890625
1759678297789,866078919,13576,7,-0.19384765625,-1.02178955078125,-0.02301025390625
1759678297789,866078919,13576,8,-0.1982421875,-1.02154541015625,-0.01519775390625
1759678297789,866078919,13576,9,-0.190185546875,-1.00103759765625,-0.04229736328125
1759678297789,866078919,13576,10,-0.177490234375,-1.03179931640625,-0.04815673828125
1759678297789,866078919,13576,11,-0.208740234375,-1.01788330078125,0.00140380859375
1759678297789,866078919,13576,12,-0.181884765625,-1.03155517578125,-0.04693603515625
1759678297789,866078919,13576,13,-0.177734375,-1.01641845703125,-0.04473876953125
1759678297789,866078919,13576,14,-0.20947265625,-1.02374267578125,-0.01495361328125
1759678297789,866078919,13576,15,-0.173095703125,-1.02301025390625,-0.05816650390625
1759678297789,866078919,13576,16,-0.20361328125,-1.01568603515625,-0.01226806640625
1759678297789,866078919,13576,17,-0.188232421875,-1.02349853515625,-0.04034423828125
1759678297789,866078919,13576,18,-0.176025390625,-1.01788330078125,-0.04742431640625
1759678297789,866078919,13576,19,-0.199462890625,-1.02398681640625,-0.04278564453125
1759678297789,866078919,13576,20,-0.185791015625,-1.03155517578125,-0.02911376953125
1759678297789,866078919,13576,21,-0.18896484375,-1.02325439453125,-0.02618408203125
1759678297789,866078919,13576,22,-0.189697265625,-1.02178955078125,-0.03106689453125
1759678297789,866078919,13576,23,-0.186279296875,-1.01690673828125,-0.02667236328125
1759678297789,866078919,13576,24,-0.18603515625,-1.01617431640625,-0.03863525390625
1759678297789,866078919,13576,25,-0.1884765625,-1.01324462890625,-0.03570556640625
1759678297789,866078919,13576,26,-0.19091796875,-1.01934814453125,-0.03204345703125
1759678297789,866078919,13576,27,-0.193603515625,-1.01348876953125,-0.03619384765625
1759678297789,866078919,13576,28,-0.189697265625,-1.02008056640625,-0.02886962890625
1759678297789,866078919,13576,29,-0.189697265625,-1.03302001953125,-0.04864501953125
1759678297789,866078919,13576,30,-0.18603515625,-1.01763916015625,-0.04278564453125
1759678297789,866078919,13576,31,-0.1982421875,-1.02154541015625,-0.01470947265625
1759678300315,866081456,13577,0,-0.193115234375,-1.01593017578125,-0.02911376953125
1759678300315,866081456,13577,1,-0.1806640625,-1.02691650390625,-0.05059814453125
1759678300315,866081456,13577,2,-0.19287109375,-1.01837158203125,-0.02691650390625
1759678300315,866081456,13577,3,-0.19384765625,-1.02252197265625,-0.01739501953125
1759678300315,866081456,13577,4,-0.18701171875,-1.02886962890625,-0.02740478515625
1759678300315,866081456,13577,5,-0.1806640625,-1.01495361328125,-0.04888916015625
1759678300315,866081456,13577,6,-0.2021484375,-1.01715087890625,-0.01666259765625
1759678300315,866081456,13577,7,-0.1708984375,-1.03472900390625,-0.02764892578125
1759678300315,866081456,13577,8,-0.182373046875,-1.01031494140625,-0.04425048828125
1759678300315,866081456,13577,9,-0.179443359375,-1.02008056640625,-0.04693603515625
1759678300315,866081456,13577,10,-0.177734375,-1.03302001953125,-0.03350830078125
1759678300315,866081456,13577,11,-0.182373046875,-1.03009033203125,-0.03961181640625
1759678300315,866081456,13577,12,-0.178955078125,-1.02813720703125,-0.02886962890625
1759678300315,866081456,13577,13,-0.184326171875,-1.01788330078125,-0.02862548828125
1759678300315,866081456,13577,14,-0.18212890625,-1.01763916015625,-0.02227783203125
1759678300315,866081456,13577,15,-0.189697265625,-1.01153564453125,-0.02911376953125
1759678300315,866081456,13577,16,-0.194091796875,-1.01739501953125,-0.01715087890625
1759678300315,866081456,13577,17,-0.17822265625,-1.02716064453125,-0.04937744140625
1759678300315,866081456,13577,18,-0.20849609375,-1.01641845703125,-0.00054931640625
1759678300315,866081456,13577,19,-0.18798828125,-1.02447509765625,-0.03253173828125
1759678300315,866081456,13577,20,-0.18408203125,-1.02423095703125,-0.01934814453125
1759678300315,866081456,13577,21,-0.205078125,-1.03155517578125,-0.00860595703125
1759678300315,866081456,13577,22,-0.183837890625,-1.00982666015625,-0.06475830078125
1759678300315,866081456,13577,23,-0.21484375,-1.01861572265625,-0.00860595703125
1759678300315,866081456,13577,24,-0.189697265625,-1.01300048828125,-0.06500244140625
1759678300315,866081456,13577,25,-0.18408203125,-1.02032470703125,-0.05010986328125
1759678300315,866081456,13577,26,-0.180419921875,-1.03570556640625,-0.03448486328125
1759678300315,866081456,13577,27,-0.205810546875,-1.02081298828125,-0.04278564453125
1759678300315,866081456,13577,28,-0.199462890625,-1.02374267578125,-0.03399658203125
1759678300315,866081456,13577,29,-0.197021484375,-1.01812744140625,-0.03594970703125
1759678300315,866081456,13577,30,-0.197021484375,-1.01641845703125,-0.03570556640625
1759678300315,866081456,13577,31,-0.208251953125,-1.01226806640625,-0.03277587890625
1759678302839,866083993,13578,0,-0.19482421875,-1.02520751953125,-0.02716064453125
1759678302839,866083993,13578,1,-0.1884765625,-1.02130126953125,-0.05401611328125
1759678302839,866083993,13578,2,-0.212646484375,-1.01739501953125,-0.02154541015625
1759678302839,866083993,13578,3,-0.193115234375,-1.03326416015625,-0.03546142578125
1759678302839,866083993,13578,4,-0.181640625,-1.01226806640625,-0.06475830078125
1759678302839,866083993,13578,5,-0.20556640625,-1.02642822265625,-0.01177978515625
1759678302839,866083993,13578,6,-0.1845703125,-1.02252197265625,-0.04571533203125
1759678302839,866083993,13578,7,-0.185302734375,-1.01055908203125,-0.05792236328125
1759678302839,866083993,13578,8,-0.206298828125,-1.02886962890625,-0.01202392578125
1759678302839,866083993,13578,9,-0.166015625,-1.02764892578125,-0.04815673828125
1759678302839,866083993,13578,10,-0.181884765625,-1.00689697265625,-0.06280517578125
1759678302839,866083993,13578,11,-0.204833984375,-1.03228759765625,-0.02423095703125
1759678302839,866083993,13578,12,-0.194091796875,-1.02056884765625,-0.03375244140625
1759678302839,866083993,13578,13,-0.185546875,-1.01910400390625,-0.03814697265625
1759678302839,866083993,13578,14,-0.1884765625,-1.03643798828125,-0.02984619140625
1759678302839,866083993,13578,15,-0.18701171875,-1.02130126953125,-0.03448486328125
1759678302839,866083993,13578,16,-0.190673828125,-1.01470947265625,-0.03814697265625
1759678302839,866083993,13578,17,-0.197021484375,-1.00909423828125,-0.02618408203125
1759678302839,866083993,13578,18,-0.180419921875,-1.04058837890625,-0.02520751953125
1759678302839,866083993,13578,19,-0.1875,-1.02520751953125,-0.04180908203125
1759678302839,866083993,13578,20,-0.208251953125,-1.01153564453125,-0.00177001953125
1759678302839,866083993,13578,21,-0.205078125,-1.03057861328125,-0.02886962890625
1759678302839,866083993,13578,22,-0.17333984375,-1.01324462890625,-0.04254150390625
1759678302839,866083993,13578,23,-0.221923828125,-1.04449462890625,0.00457763671875
1759678302839,866083993,13578,24,-0.180419921875,-0.99566650390625,-0.08258056640625
1759678302839,866083993,13578,25,-0.18896484375,-1.01055908203125,-0.05474853515625
1759678302839,866083993,13578,26,-0.18994140625,-1.02325439453125,-0.04693603515625
1759678302839,866083993,13578,27,-0.1806640625,-1.01715087890625,-0.07720947265625
1759678302839,866083993,13578,28,-0.178955078125,-1.02642822265625,-0.06939697265625
1759678302839,866083993,13578,29,-0.187744140625,-1.03033447265625,-0.05035400390625
1759678302839,866083993,13578,30,-0.1904296875,-1.03009033203125,-0.04351806640625
1759678302839,866083993,13578,31,-0.179443359375,-1.02691650390625,-0.03717041015625
1759678305353,866086530,13579,0,-0.190185546875,-1.01934814453125,-0.03741455078125
1759678305353,866086530,13579,1,-0.193603515625,-1.01788330078125,-0.04010009765625
1759678305353,866086530,13579,2,-0.19091796875,-1.02032470703125,-0.04449462890625
1759678305353,866086530,13579,3,-0.201416015625,-1.02227783203125,-0.04327392578125
1759678305353,866086530,13579,4,-0.20166015625,-1.01593017578125,-0.02496337890625
1759678305353,866086530,13579,5,-0.186279296875,-1.02252197265625,-0.08453369140625
1759678305353,866086530,13579,6,-0.206298828125,-1.01910400390625,-0.04888916015625
1759678305353,866086530,13579,7,-0.190673828125,-1.02178955078125,-0.05987548828125
1759678305353,866086530,13579,8,-0.189697265625,-1.01104736328125,-0.07281494140625
1759678305353,866086530,13579,9,-0.202880859375,-1.02911376953125,-0.04327392578125
1759678305353,866086530,13579,10,-0.187744140625,-1.02130126953125,-0.08453369140625
1759678305353,866086530,13579,11,-0.193603515625,-1.01446533203125,-0.06060791015625
1759678305353,866086530,13579,12,-0.190185546875,-1.02862548828125,-0.04620361328125
1759678305353,866086530,13579,13,-0.177490234375,-1.01031494140625,-0.09014892578125
1759678305353,866086530,13579,14,-0.189453125,-1.02325439453125,-0.06085205078125
1759678305353,866086530,13579,15,-0.19091796875,-1.02960205078125,-0.06182861328125
1759678305353,866086530,13579,16,-0.1904296875,-1.02325439453125,-0.04718017578125
1759678305353,866086530,13579,17,-0.19287109375,-1.02618408203125,-0.04888916015625
1759678305353,866086530,13579,18,-0.192138671875,-1.02130126953125,-0.04400634765625
1759678305353,866086530,13579,19,-0.1923828125,-1.02056884765625,-0.05157470703125
1759678305353,866086530,13579,20,-0.19287109375,-1.01959228515625,-0.04693603515625
1759678305353,866086530,13579,21,-0.19970703125,-1.03424072265625,-0.01470947265625
1759678305353,866086530,13579,22,-0.1787109375,-1.01593017578125,-0.06597900390625
1759678305353,866086530,13579,23,-0.197509765625,-1.02374267578125,-0.05474853515625
1759678305353,866086530,13579,24,-0.203369140625,-1.01495361328125,-0.01422119140625
1759678305353,866086530,13579,25,-0.191650390625,-1.02813720703125,-0.03131103515625
1759678305353,866086530,13579,26,-0.186767578125,-1.00811767578125,-0.05499267578125
1759678305353,866086530,13579,27,-0.205322265625,-1.02130126953125,-0.00616455078125
1759678305353,866086530,13579,28,-0.182373046875,-1.01885986328125,-0.04278564453125
1759678305353,866086530,13579,29,-0.18359375,-1.02130126953125,-0.04132080078125
1759678305353,866086530,13579,30,-0.21240234375,-1.01959228515625,-0.00323486328125
1759678305353,866086530,13579,31,-0.1865234375,-1.01837158203125,-0.03497314453125
1759678307869,866089067,13580,0,-0.19970703125,-1.02130126953125,-0.03326416015625
1759678307869,866089067,13580,1,-0.201416015625,-1.02154541015625,-0.02349853515625
1759678307869,866089067,13580,2,-0.197998046875,-1.03033447265625,-0.02496337890625
1759678307869,866089067,13580,3,-0.19775390625,-1.01837158203125,-0.02764892578125
1759678307869,866089067,13580,4,-0.19287109375,-1.02520751953125,-0.02276611328125
1759678307869,866089067,13580,5,-0.1962890625,-1.01202392578125,-0.02862548828125
1759678307869,866089067,13580,6,-0.20703125,-1.01763916015625,-0.00030517578125
1759678307869,866089067,13580,7,-0.202392578125,-1.01617431640625,-0.00958251953125
1759678307869,866089067,13580,8,-0.183837890625,-1.02813720703125,-0.03546142578125
1759678307869,866089067,13580,9,-0.197998046875,-1.00933837890625,-0.00836181640625
1759678307869,866089067,13580,10,-0.198974609375,-1.01568603515625,-0.02398681640625
1759678307869,866089067,13580,11,-0.176513671875,-1.03228759765625,-0.02471923828125
1759678307869,866089067,13580,12,-0.184326171875,-1.01275634765625,-0.02813720703125
1759678307869,866089067,13580,13,-0.1923828125,-1.02301025390625,-0.01812744140625
1759678307869,866089067,13580,14,-0.177490234375,-1.01666259765625,-0.03912353515625
1759678307869,866089067,13580,15,-0.181396484375,-1.02862548828125,-0.04669189453125
1759678307869,866089067,13580,16,-0.189697265625,-1.02203369140625,-0.01885986328125
1759678307869,866089067,13580,17,-0.1865234375,-1.02178955078125,-0.03985595703125
1759678307869,866089067,13580,18,-0.172607421875,-1.01959228515625,-0.05523681640625
1759678307869,866089067,13580,19,-0.17333984375,-1.02740478515625,-0.04669189453125
1759678307869,866089067,13580,20,-0.173828125,-1.02496337890625,-0.05548095703125
1759678307869,866089067,13580,21,-0.173583984375,-1.03302001953125,-0.03936767578125
1759678307869,866089067,13580,22,-0.165771484375,-1.03033447265625,-0.04229736328125
1759678307869,866089067,13580,23,-0.164306640625,-1.01983642578125,-0.02349853515625
1759678307869,866089067,13580,24,-0.171875,-1.01739501953125,0.00262451171875
1759678307869,866089067,13580,25,-0.129150390625,-1.03057861328125,-0.02691650390625
1759678307869,866089067,13580,26,-0.155517578125,-1.01690673828125,-0.02838134765625
1759678307869,866089067,13580,27,-0.16943359375,-1.02398681640625,-0.00860595703125
1759678307869,866089067,13580,28,-0.1650390625,-1.03472900390625,-0.02642822265625
1759678307869,866089067,13580,29,-0.1474609375,-1.01837158203125,-0.06231689453125
1759678307869,866089067,13580,30,-0.180908203125,-1.02862548828125,-0.01324462890625
1759678307869,866089067,13580,31,-0.191162109375,-1.03570556640625,-0.00640869140625
1759678310389,866091604,13581,0,-0.154296875,-1.01519775390625,-0.05963134765625
1759678310389,866091604,13581,1,-0.1875,-1.01885986328125,-0.02325439453125
1759678310389,866091604,13581,2,-0.181640625,-1.03643798828125,-0.00762939453125
1759678310389,866091604,13581,3,-0.162109375,-1.01885986328125,-0.04376220703125
1759678310389,866091604,13581,4,-0.18408203125,-1.02276611328125,-0.03106689453125
1759678310389,866091604,13581,5,-0.177978515625,-1.02789306640625,-0.01885986328125
1759678310389,866091604,13581,6,-0.177978515625,-1.01885986328125,-0.02447509765625
1759678310389,866091604,13581,7,-0.174072265625,-1.02105712890625,-0.02960205078125
1759678310389,866091604,13581,8,-0.183837890625,-1.02838134765625,-0.01788330078125
1759678310389,866091604,13581,9,-0.1845703125,-1.01348876953125,-0.03106689453125
1759678310389,866091604,13581,10,-0.195556640625,-1.02716064453125,0.00238037109375
1759678310389,866091604,13581,11,-0.186279296875,-1.01617431640625,-0.02740478515625
1759678310389,866091604,13581,12,-0.16455078125,-1.02178955078125,-0.03302001953125
1759678310389,866091604,13581,13,-0.189453125,-1.01959228515625,-0.01348876953125
1759678310389,866091604,13581,14,-0.19140625,-1.02520751953125,-0.00299072265625
1759678310389,866091604,13581,15,-0.164794921875,-1.02374267578125,-0.03448486328125
1759678310389,866091604,13581,16,-0.179931640625,-1.01910400390625,-0.02593994140625
1759678310389,866091604,13581,17,-0.187744140625,-1.02423095703125,-0.00469970703125
1759678310389,866091604,13581,18,-0.16064453125,-1.03009033203125,-0.02789306640625
1759678310389,866091604,13581,19,-0.18212890625,-1.01324462890625,-0.02813720703125
1759678310389,866091604,13581,20,-0.19384765625,-1.03570556640625,-0.00689697265625
1759678310389,866091604,13581,21,-0.171630859375,-1.02081298828125,-0.03448486328125
1759678310389,866091604,13581,22,-0.17919921875,-1.02691650390625,-0.03179931640625
1759678310389,866091604,13581,23,-0.1806640625,-1.02862548828125,-0.01739501953125
1759678310389,866091604,13581,24,-0.17724609375,-1.03033447265625,-0.02154541015625
1759678310389,866091604,13581,25,-0.17041015625,-1.02691650390625,-0.01885986328125
1759678310389,866091604,13581,26,-0.177734375,-1.02984619140625,-0.02178955078125
1759678310389,866091604,13581,27,-0.190673828125,-1.01495361328125,-0.02056884765625
1759678310389,866091604,13581,28,-0.180419921875,-1.01251220703125,-0.02056884765625
1759678310389,866091604,13581,29,-0.190185546875,-1.00860595703125,-0.00469970703125
1759678310389,866091604,13581,30,-0.173583984375,-1.03619384765625,-0.02520751953125
1759678310389,866091604,13581,31,-0.17333984375,-1.03375244140625,-0.01519775390625
1759678312919,866094141,13582,0,-0.183349609375,-1.01544189453125,-0.00714111328125
1759678312919,866094141,13582,1,-0.189453125,-1.01397705078125,-0.00152587890625
1759678312919,866094141,13582,2,-0.17724609375,-1.02349853515625,-0.01519775390625
1759678312919,866094141,13582,3,-0.17724609375,-1.03717041015625,-0.01593017578125
1759678312919,866094141,13582,4,-0.179443359375,-1.01666259765625,-0.01593017578125
1759678312919,866094141,13582,5,-0.191650390625,-1.01275634765625,-0.00543212890625
1759678312919,866094141,13582,6,-0.1875,-1.02374267578125,-0.00469970703125
1759678312919,866094141,13582,7,-0.17529296875,-1.03106689453125,-0.02813720703125
1759678312919,866094141,13582,8,-0.19140625,-1.01641845703125,-0.02105712890625
1759678312919,866094141,13582,9,-0.185791015625,-1.01861572265625,-0.00152587890625
1759678312919,866094141,13582,10,-0.181396484375,-1.02398681640625,-0.01593017578125
1759678312919,866094141,13582,11,-0.1826171875,-1.01934814453125,-0.01910400390625
1759678312919,866094141,13582,12,-0.1845703125,-1.02764892578125,-0.01593017578125
1759678312919,866094141,13582,13,-0.189697265625,-1.02398681640625,-0.00811767578125
1759678312919,866094141,13582,14,-0.18701171875,-1.02789306640625,-0.00372314453125
1759678312919,866094141,13582,15,-0.169921875,-1.02569580078125,-0.00469970703125
1759678312919,866094141,13582,16,-0.19384765625,-1.02154541015625,-0.01104736328125
1759678312919,866094141,13582,17,-0.1796875,-1.01202392578125,-0.01007080078125
1759678312919,866094141,13582,18,-0.19287109375,-1.00787353515625,0.00726318359375
1759678312919,866094141,13582,19,-0.181884765625,-1.03887939453125,-0.00372314453125
1759678312919,866094141,13582,20,-0.171142578125,-1.01983642578125,-0.00177001953125
1759678312919,866094141,13582,21,-0.184814453125,-1.01055908203125,0.00091552734375
1759678312919,866094141,13582,22,-0.189208984375,-1.01837158203125,0.02459716796875
1759678312919,866094141,13582,23,-0.16796875,-1.02130126953125,-0.01617431640625
1759678312919,866094141,13582,24,-0.179443359375,-1.02203369140625,-0.00665283203125
1759678312919,866094141,13582,25,-0.183349609375,-1.02374267578125,0.03045654296875
1759678312919,866094141,13582,26,-0.191162109375,-1.01788330078125,0.00067138671875
1759678312919,866094141,13582,27,-0.16455078125,-1.02130126953125,-0.01544189453125
1759678312919,866094141,13582,28,-0.169921875,-1.02154541015625,0.00067138671875
1759678312919,866094141,13582,29,-0.183837890625,-1.02374267578125,0.01385498046875
1759678312919,866094141,13582,30,-0.172119140625,-1.02154541015625,-0.00494384765625
1759678312919,866094141,13582,31,-0.16943359375,-1.02813720703125,0.00091552734375
1759678315433,866096678,13583,0,-0.17529296875,-1.02252197265625,-0.00201416015625
1759678315433,866096678,13583,1,-0.17529296875,-1.01959228515625,0.00018310546875
1759678315433,866096678,13583,2,-0.17236328125,-1.03302001953125,0.01531982421875
1759678315433,866096678,13583,3,-0.176025390625,-1.02203369140625,-0.00079345703125
1759678315433,866096678,13583,4,-0.177001953125,-1.02349853515625,-0.00103759765625
1759678315433,866096678,13583,5,-0.171875,-1.01666259765625,-0.00469970703125
1759678315433,866096678,13583,6,-0.177001953125,-1.01593017578125,-0.00103759765625
1759678315433,866096678,13583,7,-0.18701171875,-1.02667236328125,-0.00201416015625
1759678315433,866096678,13583,8,-0.167724609375,-1.01300048828125,-0.01251220703125
1759678315433,866096678,13583,9,-0.161376953125,-1.03497314453125,-0.02618408203125
1759678315433,866096678,13583,10,-0.180419921875,-1.02276611328125,-0.00836181640625
1759678315433,866096678,13583,11,-0.17724609375,-1.02520751953125,0.00384521484375
1759678315433,866096678,13583,12,-0.1650390625,-1.01715087890625,-0.03814697265625
1759678315433,866096678,13583,13,-0.17236328125,-1.02545166015625,-0.03131103515625
1759678315433,866096678,13583,14,-0.181396484375,-1.02716064453125,0.00335693359375
1759678315433,866096678,13583,15,-0.173828125,-1.03424072265625,0.00408935546875
1759678315433,866096678,13583,16,-0.16748046875,-1.00836181640625,-0.03814697265625
1759678315433,866096678,13583,17,-0.1767578125,-1.02423095703125,-0.01104736328125
1759678315433,866096678,13583,18,-0.18701171875,-1.02593994140625,0.00408935546875
1759678315433,866096678,13583,19,-0.17138671875,-1.02154541015625,-0.02081298828125
1759678315433,866096678,13583,20,-0.17529296875,-1.02764892578125,-0.01177978515625
1759678315433,866096678,13583,21,-0.182373046875,-1.02276611328125,-0.01934814453125
1759678315433,866096678,13583,22,-0.179443359375,-1.02716064453125,-0.01031494140625
1759678315433,866096678,13583,23,-0.1748046875,-1.01593017578125,-0.00787353515625
1759678315433,866096678,13583,24,-0.177978515625,-1.02227783203125,-0.01251220703125
1759678315433,866096678,13583,25,-0.1787109375,-1.03179931640625,0.00164794921875
1759678315433,866096678,13583,26,-0.179443359375,-1.01690673828125,-0.00738525390625
1759678315433,866096678,13583,27,-0.1875,-1.02105712890625,0.01019287109375
1759678315433,866096678,13583,28,-0.179931640625,-1.03131103515625,0.01263427734375
1759678315433,866096678,13583,29,-0.173583984375,-1.01177978515625,-0.03106689453125
1759678315433,866096678,13583,30,-0.1884765625,-1.02447509765625,0.03118896484375
1759678315433,866096678,13583,31,-0.19091796875,-1.01739501953125,0.01409912109375
1759678318139,866099215,13584,0,-0.162109375,-1.02325439453125,-0.03082275390625
1759678318139,866099215,13584,1,-0.165771484375,-1.02447509765625,0.00897216796875
1759678318139,866099215,13584,2,-0.171142578125,-1.02618408203125,0.00262451171875
1759678318139,866099215,13584,3,-0.155029296875,-1.02056884765625,-0.02447509765625
1759678318139,866099215,13584,4,-0.164794921875,-1.02593994140625,-0.01153564453125
1759678318139,866099215,13584,5,-0.17431640625,-1.01788330078125,-0.00201416015625
