receivedPhoneTimestamp,respeckTimestamp,packetSeqNum,sampleSeqNum,accelX,accelY,accelZ
1759846760435,970088961,61041,26,0.21142578125,-0.02911376953125,-0.99761962890625
1759846760435,970088961,61041,27,0.20947265625,-0.03009033203125,-1.00201416015625
1759846760435,970088961,61041,28,0.20703125,-0.03033447265625,-0.99713134765625
1759846760435,970088961,61041,29,0.20751953125,-0.03155517578125,-1.00128173828125
1759846760435,970088961,61041,30,0.203857421875,-0.03448486328125,-1.00128173828125
1759846760435,970088961,61041,31,0.203369140625,-0.03790283203125,-1.00396728515625
1759846763135,970091504,61042,0,0.20556640625,-0.03106689453125,-1.00323486328125
1759846763135,970091504,61042,1,0.224609375,-0.04229736328125,-1.00054931640625
1759846763135,970091504,61042,2,0.229736328125,-0.04791259765625,-1.01422119140625
1759846763135,970091504,61042,3,0.255859375,-0.03594970703125,-1.03350830078125
1759846763135,970091504,61042,4,0.346923828125,-0.08282470703125,-0.88360595703125
1759846763135,970091504,61042,5,0.313232421875,-0.11212158203125,-0.93634033203125
1759846763135,970091504,61042,6,0.306396484375,-0.05718994140625,-1.07501220703125
1759846763135,970091504,61042,7,0.40478515625,-0.10650634765625,-0.92779541015625
1759846763135,970091504,61042,8,0.18701171875,-0.12481689453125,-0.79302978515625
1759846763135,970091504,61042,9,0.383056640625,-0.08917236328125,-1.08135986328125
1759846763135,970091504,61042,10,0.38232421875,-0.09161376953125,-0.97100830078125
1759846763135,970091504,61042,11,0.2548828125,-0.09918212890625,-0.86505126953125
1759846763135,970091504,61042,12,0.375,-0.09234619140625,-1.04302978515625
1759846763135,970091504,61042,13,0.322509765625,-0.10211181640625,-0.90240478515625
1759846763135,970091504,61042,14,0.330078125,-0.09356689453125,-0.94219970703125
1759846763135,970091504,61042,15,0.327880859375,-0.11676025390625,-0.94683837890625
1759846763135,970091504,61042,16,0.30517578125,-0.06329345703125,-0.99908447265625
1759846763135,970091504,61042,17,0.288330078125,-0.06036376953125,-1.00543212890625
1759846763135,970091504,61042,18,0.309814453125,-0.06646728515625,-0.96197509765625
1759846763135,970091504,61042,19,0.2841796875,-0.06866455078125,-0.98248291015625
1759846763135,970091504,61042,20,0.2646484375,-0.07257080078125,-0.98663330078125
1759846763135,970091504,61042,21,0.262939453125,-0.05084228515625,-1.00885009765625
1759846763135,970091504,61042,22,0.37890625,-0.02764892578125,-1.05255126953125
1759846763135,970091504,61042,23,0.26025390625,-0.12896728515625,-0.93927001953125
1759846763135,970091504,61042,24,0.229248046875,-0.11602783203125,-0.85284423828125
1759846763135,970091504,61042,25,0.345947265625,-0.06475830078125,-1.10845947265625
1759846763135,970091504,61042,26,0.345947265625,-0.13580322265625,-0.88287353515625
1759846763135,970091504,61042,27,0.222412109375,-0.10968017578125,-0.83453369140625
1759846763135,970091504,61042,28,0.402099609375,-0.13116455078125,-0.95123291015625
1759846763135,970091504,61042,29,0.35693359375,-0.03228759765625,-1.02203369140625
1759846763135,970091504,61042,30,0.26611328125,-0.03546142578125,-1.03253173828125
1759846763135,970091504,61042,31,0.27099609375,-0.04229736328125,-0.96783447265625
1759846765657,970094047,61043,0,0.249267578125,-0.04693603515625,-1.00152587890625
1759846765657,970094047,61043,1,0.31787109375,-0.05230712890625,-1.05841064453125
1759846765657,970094047,61043,2,0.309814453125,-0.10015869140625,-0.90850830078125
1759846765657,970094047,61043,3,0.276123046875,-0.12261962890625,-0.89459228515625
1759846765657,970094047,61043,4,0.341552734375,-0.06744384765625,-1.03936767578125
1759846765657,970094047,61043,5,0.401123046875,-0.12823486328125,-0.89874267578125
1759846765657,970094047,61043,6,0.286865234375,-0.12237548828125,-0.88458251953125
1759846765657,970094047,61043,7,0.329345703125,-0.08721923828125,-1.03814697265625
1759846765657,970094047,61043,8,0.328369140625,-0.10357666015625,-0.97198486328125
1759846765657,970094047,61043,9,0.31591796875,-0.11773681640625,-0.97222900390625
1759846765657,970094047,61043,10,0.239013671875,-0.12017822265625,-0.92169189453125
1759846765657,970094047,61043,11,0.373779296875,-0.09307861328125,-0.99053955078125
1759846765657,970094047,61043,12,0.302734375,-0.09283447265625,-1.00445556640625
1759846765657,970094047,61043,13,0.388671875,-0.15679931640625,-0.88360595703125
1759846765657,970094047,61043,14,0.404052734375,-0.14556884765625,-0.89703369140625
1759846765657,970094047,61043,15,0.37158203125,-0.09722900390625,-0.94146728515625
1759846765657,970094047,61043,16,0.351806640625,-0.06988525390625,-0.96441650390625
1759846765657,970094047,61043,17,0.27685546875,-0.05377197265625,-0.97882080078125
1759846765657,970094047,61043,18,0.250244140625,-0.05426025390625,-1.01422119140625
1759846765657,970094047,61043,19,0.26318359375,-0.05938720703125,-1.00128173828125
1759846765657,970094047,61043,20,0.2158203125,-0.06256103515625,-0.99981689453125
1759846765657,970094047,61043,21,0.30517578125,-0.01275634765625,-1.10845947265625
1759846765657,970094047,61043,22,0.3857421875,-0.14312744140625,-0.96588134765625
1759846765657,970094047,61043,23,0.15234375,-0.05474853515625,-0.68511962890625
1759846765657,970094047,61043,24,0.286865234375,-0.11749267578125,-1.08428955078125
1759846765657,970094047,61043,25,0.33642578125,-0.02496337890625,-1.11944580078125
1759846765657,970094047,61043,26,0.25146484375,-0.08209228515625,-0.82818603515625
1759846765657,970094047,61043,27,0.344482421875,-0.08380126953125,-0.99908447265625
1759846765657,970094047,61043,28,0.304443359375,-0.07232666015625,-0.96636962890625
1759846765657,970094047,61043,29,0.306884765625,-0.08282470703125,-0.97857666015625
1759846765657,970094047,61043,30,0.325439453125,-0.11285400390625,-0.97222900390625
1759846765657,970094047,61043,31,0.1923828125,-0.05767822265625,-0.95562744140625
1759846768175,970096590,61044,0,0.16455078125,-0.05035400390625,-1.04840087890625
1759846768175,970096590,61044,1,0.13330078125,-0.06304931640625,-1.04644775390625
1759846768175,970096590,61044,2,0.15380859375,-0.04449462890625,-0.97637939453125
1759846768175,970096590,61044,3,0.158935546875,-0.04815673828125,-1.02593994140625
1759846768175,970096590,61044,4,0.180908203125,-0.03863525390625,-1.01715087890625
1759846768175,970096590,61044,5,0.1923828125,-0.03472900390625,-0.99151611328125
1759846768175,970096590,61044,6,0.18896484375,-0.02447509765625,-1.01275634765625
1759846768175,970096590,61044,7,0.19970703125,-0.02593994140625,-0.99981689453125
1759846768175,970096590,61044,8,0.20703125,-0.02496337890625,-1.00714111328125
1759846768175,970096590,61044,9,0.141845703125,0.01165771484375,-1.09478759765625
1759846768175,970096590,61044,10,0.469482421875,-0.06378173828125,-0.89825439453125
1759846768175,970096590,61044,11,0.19287109375,-0.10260009765625,-0.85162353515625
1759846768175,970096590,61044,12,0.39501953125,-0.03692626953125,-1.11676025390625
1759846768175,970096590,61044,13,0.23779296875,-0.10552978515625,-0.84405517578125
1759846768175,970096590,61044,14,0.26025390625,-0.02520751953125,-1.09747314453125
1759846768175,970096590,61044,15,0.314697265625,-0.10284423828125,-0.92071533203125
1759846768175,970096590,61044,16,0.14794921875,-0.10235595703125,-0.83941650390625
1759846768175,970096590,61044,17,0.281005859375,-0.03350830078125,-1.19073486328125
1759846768175,970096590,61044,18,0.29345703125,-0.07354736328125,-0.95880126953125
1759846768175,970096590,61044,19,0.173828125,-0.09234619140625,-0.88800048828125
1759846768175,970096590,61044,20,0.2607421875,-0.07403564453125,-1.12701416015625
1759846768175,970096590,61044,21,0.288818359375,-0.06890869140625,-0.95562744140625
1759846768175,970096590,61044,22,0.18603515625,-0.08624267578125,-0.93829345703125
1759846768175,970096590,61044,23,0.242431640625,-0.05303955078125,-1.10113525390625
1759846768175,970096590,61044,24,0.27490234375,-0.08526611328125,-0.95562744140625
1759846768175,970096590,61044,25,0.223876953125,-0.14361572265625,-0.83331298828125
1759846768175,970096590,61044,26,0.29296875,-0.07476806640625,-0.95758056640625
1759846768175,970096590,61044,27,0.269287109375,-0.04180908203125,-1.12115478515625
1759846768175,970096590,61044,28,0.289794921875,-0.06378173828125,-0.99761962890625
1759846768175,970096590,61044,29,0.273193359375,-0.09185791015625,-0.89385986328125
1759846768175,970096590,61044,30,0.288818359375,-0.08477783203125,-0.97613525390625
1759846768175,970096590,61044,31,0.24365234375,-0.06817626953125,-1.02886962890625
1759846770696,970099133,61045,0,0.238525390625,-0.07037353515625,-0.97491455078125
1759846770696,970099133,61045,1,0.1982421875,-0.06988525390625,-0.99981689453125
1759846770696,970099133,61045,2,0.17724609375,-0.06744384765625,-1.01837158203125
1759846770696,970099133,61045,3,0.172119140625,-0.06280517578125,-0.99542236328125
1759846770696,970099133,61045,4,0.161865234375,-0.05206298828125,-1.02789306640625
1759846770696,970099133,61045,5,0.157470703125,-0.06256103515625,-1.02838134765625
1759846770696,970099133,61045,6,0.20166015625,-0.07354736328125,-0.97320556640625
1759846770696,970099133,61045,7,0.199951171875,-0.06695556640625,-0.97808837890625
1759846770696,970099133,61045,8,0.16552734375,-0.05548095703125,-1.03668212890625
1759846770696,970099133,61045,9,0.1767578125,-0.05987548828125,-1.00177001953125
1759846770696,970099133,61045,10,0.19873046875,-0.06378173828125,-0.98394775390625
1759846770696,970099133,61045,11,0.188720703125,-0.05255126953125,-1.01202392578125
1759846775735,970104219,61047,9,0.0947265625,-0.03765869140625,-1.01544189453125
1759846775735,970104219,61047,10,0.085205078125,-0.02935791015625,-1.02374267578125
1759846775735,970104219,61047,11,0.079833984375,-0.01690673828125,-1.02789306640625
1759846775735,970104219,61047,12,0.0908203125,-0.01275634765625,-1.02154541015625
1759846775735,970104219,61047,13,0.09423828125,-0.03253173828125,-1.01226806640625
1759846775735,970104219,61047,14,0.085693359375,-0.04229736328125,-1.02398681640625
1759846775735,970104219,61047,15,0.085205078125,-0.03985595703125,-1.01666259765625
1759846775735,970104219,61047,16,0.09765625,-0.03302001953125,-1.04034423828125
1759846775735,970104219,61047,17,0.1826171875,-0.03839111328125,-1.01470947265625
1759846775735,970104219,61047,18,0.197509765625,-0.06793212890625,-0.96197509765625
1759846775735,970104219,61047,19,0.227294921875,-0.06353759765625,-0.99664306640625
1759846775735,970104219,61047,20,0.22802734375,-0.05474853515625,-1.00811767578125
1759846775735,970104219,61047,21,0.26416015625,-0.00616455078125,-1.07135009765625
1759846775735,970104219,61047,22,0.33349609375,-0.08306884765625,-0.93048095703125
1759846775735,970104219,61047,23,0.23583984375,-0.10626220703125,-0.81207275390625
1759846775735,970104219,61047,24,0.2841796875,-0.06597900390625,-1.03009033203125
1759846775735,970104219,61047,25,0.319580078125,-0.02252197265625,-1.11456298828125
1759846775735,970104219,61047,26,0.248779296875,-0.07745361328125,-0.85406494140625
1759846775735,970104219,61047,27,0.239501953125,-0.07818603515625,-0.98370361328125
1759846775735,970104219,61047,28,0.312255859375,-0.04791259765625,-1.07427978515625
1759846775735,970104219,61047,29,0.2177734375,-0.07745361328125,-0.86651611328125
1759846775735,970104219,61047,30,0.284423828125,-0.06280517578125,-1.04669189453125
1759846775735,970104219,61047,31,0.260986328125,-0.07769775390625,-0.95098876953125
1759846778256,970106762,61048,0,0.24609375,-0.06402587890625,-0.98883056640625
1759846778256,970106762,61048,1,0.229248046875,-0.04937744140625,-1.06109619140625
1759846778256,970106762,61048,2,0.279541015625,-0.07183837890625,-0.89093017578125
1759846778256,970106762,61048,3,0.225830078125,-0.06500244140625,-1.00079345703125
1759846778256,970106762,61048,4,0.193603515625,-0.04425048828125,-1.06353759765625
1759846778256,970106762,61048,5,0.26904296875,-0.06451416015625,-0.95245361328125
1759846778256,970106762,61048,6,0.26171875,-0.07696533203125,-0.93682861328125
1759846778256,970106762,61048,7,0.2431640625,-0.06085205078125,-0.99029541015625
1759846778256,970106762,61048,8,0.19482421875,-0.04156494140625,-1.03961181640625
1759846778256,970106762,61048,9,0.200439453125,-0.04205322265625,-1.02423095703125
1759846778256,970106762,61048,10,0.2138671875,-0.03448486328125,-0.96026611328125
1759846778256,970106762,61048,11,0.176025390625,-0.04107666015625,-1.02520751953125
1759846778256,970106762,61048,12,0.16552734375,-0.04376220703125,-1.04888916015625
1759846778256,970106762,61048,13,0.27490234375,0.04608154296875,-1.22320556640625
1759846778256,970106762,61048,14,0.43798828125,-0.08038330078125,-0.86676025390625
1759846778256,970106762,61048,15,0.0546875,-0.11749267578125,-0.72174072265625
1759846778256,970106762,61048,16,0.347412109375,-0.15655517578125,-1.03741455078125
1759846778256,970106762,61048,17,0.176025390625,-0.14874267578125,-0.68170166015625
1759846778256,970106762,61048,18,0.335693359375,0.02703857421875,-1.18682861328125
1759846778256,970106762,61048,19,0.026123046875,-0.05645751953125,-1.25250244140625
1759846778256,970106762,61048,20,0.453125,0.11322021484375,-0.89971923828125
1759846778256,970106762,61048,21,0.1708984375,-0.13092041015625,-0.74005126953125
1759846778256,970106762,61048,22,0.318115234375,-0.11627197265625,-1.08111572265625
1759846778256,970106762,61048,23,0.295166015625,-0.03350830078125,-1.12457275390625
1759846778256,970106762,61048,24,0.2666015625,-0.04986572265625,-0.86041259765625
1759846778256,970106762,61048,25,0.20849609375,-0.09234619140625,-0.92388916015625
1759846778256,970106762,61048,26,0.26171875,-0.06060791015625,-0.99127197265625
1759846778256,970106762,61048,27,0.2158203125,-0.02838134765625,-1.02276611328125
1759846778256,970106762,61048,28,0.166015625,-0.02398681640625,-1.05841064453125
1759846778256,970106762,61048,29,0.18994140625,-0.04132080078125,-0.99151611328125
1759846778256,970106762,61048,30,0.189208984375,-0.05303955078125,-0.98126220703125
1759846778256,970106762,61048,31,0.154541015625,-0.03472900390625,-1.01275634765625
1759846780956,970109305,61049,0,0.130126953125,-0.03082275390625,-1.02740478515625
1759846780956,970109305,61049,1,0.125732421875,-0.04156494140625,-0.99835205078125
1759846780956,970109305,61049,2,0.07470703125,-0.04156494140625,-1.02178955078125
1759846780956,970109305,61049,3,0.051025390625,-0.02618408203125,-1.04083251953125
1759846780956,970109305,61049,4,0.065673828125,-0.02545166015625,-1.06036376953125
1759846780956,970109305,61049,5,0.242919921875,0.00726318359375,-1.04302978515625
1759846780956,970109305,61049,6,0.2421875,-0.09454345703125,-0.90826416015625
1759846780956,970109305,61049,7,0.284912109375,-0.09112548828125,-0.93707275390625
1759846780956,970109305,61049,8,0.33935546875,-0.06793212890625,-1.00396728515625
1759846780956,970109305,61049,9,0.303955078125,-0.06744384765625,-0.95245361328125
1759846780956,970109305,61049,10,0.2822265625,-0.05523681640625,-1.02642822265625
1759846780956,970109305,61049,11,0.292236328125,-0.03228759765625,-1.04791259765625
1759846780956,970109305,61049,12,0.203857421875,-0.11920166015625,-0.80548095703125
1759846780956,970109305,61049,13,0.277099609375,-0.12750244140625,-0.85675048828125
1759846780956,970109305,61049,14,0.28759765625,-0.02545166015625,-1.04913330078125
1759846780956,970109305,61049,15,0.13330078125,0.00848388671875,-1.11212158203125
1759846780956,970109305,61049,16,0.11669921875,0.01287841796875,-1.02886962890625
1759846780956,970109305,61049,17,0.137451171875,0.00164794921875,-1.00958251953125
1759846780956,970109305,61049,18,0.139404296875,-0.02130126953125,-1.03106689453125
1759846780956,970109305,61049,19,0.244140625,-0.01177978515625,-0.97686767578125
1759846780956,970109305,61049,20,0.250244140625,-0.05108642578125,-0.97393798828125
1759846780956,970109305,61049,21,0.3037109375,-0.06182861328125,-0.98687744140625
1759846780956,970109305,61049,22,0.31201171875,0.00726318359375,-1.13140869140625
1759846780956,970109305,61049,23,0.4501953125,-0.11431884765625,-0.89239501953125
1759846780956,970109305,61049,24,0.125244140625,-0.11578369140625,-0.66339111328125
1759846780956,970109305,61049,25,0.333740234375,-0.06842041015625,-1.18096923828125
1759846780956,970109305,61049,26,0.3935546875,-0.11016845703125,-0.95050048828125
1759846780956,970109305,61049,27,0.125732421875,-0.07135009765625,-0.74468994140625
1759846780956,970109305,61049,28,0.36767578125,-0.07110595703125,-1.06524658203125
1759846780956,970109305,61049,29,0.170166015625,0.04608154296875,-1.13824462890625
1759846780956,970109305,61049,30,0.1728515625,0.00994873046875,-1.02154541015625
1759846780956,970109305,61049,31,0.205078125,-0.01226806640625,-0.97808837890625
1759846783475,970111848,61050,0,0.207763671875,-0.01226806640625,-1.00543212890625
1759846783475,970111848,61050,1,0.234130859375,-0.01519775390625,-0.97369384765625
1759846783475,970111848,61050,2,0.1982421875,-0.00909423828125,-1.01226806640625
1759846783475,970111848,61050,3,0.210693359375,0.00994873046875,-1.11602783203125
1759846783475,970111848,61050,4,0.340087890625,-0.02008056640625,-0.95953369140625
1759846783475,970111848,61050,5,0.186279296875,-0.12701416015625,-0.79180908203125
1759846783475,970111848,61050,6,0.32861328125,-0.06768798828125,-1.06451416015625
1759846783475,970111848,61050,7,0.325927734375,-0.08013916015625,-0.96099853515625
1759846783475,970111848,61050,8,0.254150390625,-0.02325439453125,-1.01129150390625
1759846783475,970111848,61050,9,0.34716796875,-0.07012939453125,-1.00958251953125
1759846783475,970111848,61050,10,0.225830078125,-0.10675048828125,-0.84674072265625
1759846783475,970111848,61050,11,0.28271484375,-0.04107666015625,-1.14190673828125
1759846783475,970111848,61050,12,0.3154296875,-0.12823486328125,-0.85772705078125
1759846783475,970111848,61050,13,0.116943359375,-0.08599853515625,-0.85943603515625
1759846783475,970111848,61050,14,0.4130859375,-0.12188720703125,-1.03546142578125
1759846783475,970111848,61050,15,0.206787109375,-0.04522705078125,-0.93756103515625
1759846783475,970111848,61050,16,0.204833984375,-0.02203369140625,-1.10064697265625
1759846783475,970111848,61050,17,0.15771484375,-0.02276611328125,-1.06939697265625
1759846783475,970111848,61050,18,0.164794921875,-0.00347900390625,-1.09429931640625
1759846783475,970111848,61050,19,0.298095703125,-0.08697509765625,-0.88653564453125
1759846783475,970111848,61050,20,0.255859375,-0.07550048828125,-0.94903564453125
1759846783475,970111848,61050,21,0.3173828125,-0.05303955078125,-1.04058837890625
1759846783475,970111848,61050,22,0.328369140625,-0.01861572265625,-1.05157470703125
1759846783475,970111848,61050,23,0.225341796875,-0.12359619140625,-0.73858642578125
1759846783475,970111848,61050,24,0.21533203125,-0.13287353515625,-0.92559814453125
1759846783475,970111848,61050,25,0.35302734375,-0.07183837890625,-1.10552978515625
1759846783475,970111848,61050,26,0.265869140625,-0.02618408203125,-1.04107666015625
1759846783475,970111848,61050,27,0.2373046875,-0.08233642578125,-0.94757080078125
1759846783475,970111848,61050,28,0.234130859375,-0.10650634765625,-0.95196533203125
1759846783475,970111848,61050,29,0.2236328125,-0.04278564453125,-1.10992431640625
1759846783475,970111848,61050,30,0.344482421875,-0.06182861328125,-1.05694580078125
1759846783475,970111848,61050,31,0.155517578125,-0.09014892578125,-0.79229736328125
1759846785996,970114391,61051,0,0.296630859375,-0.10626220703125,-1.00762939453125
1759846785996,970114391,61051,1,0.33349609375,-0.07769775390625,-1.01666259765625
1759846785996,970114391,61051,2,0.243408203125,-0.09674072265625,-0.81573486328125
1759846785996,970114391,61051,3,0.246337890625,-0.09649658203125,-1.01397705078125
1759846785996,970114391,61051,4,0.29296875,-0.02325439453125,-1.14215087890625
1759846785996,970114391,61051,5,0.228271484375,-0.04815673828125,-0.90167236328125
1759846785996,970114391,61051,6,0.290283203125,-0.04815673828125,-1.05767822265625
1759846785996,970114391,61051,7,0.348388671875,-0.09625244140625,-0.93707275390625
1759846785996,970114391,61051,8,0.24169921875,-0.09014892578125,-0.87701416015625
1759846785996,970114391,61051,9,0.367919921875,-0.07818603515625,-1.07989501953125
1759846785996,970114391,61051,10,0.361083984375,-0.07257080078125,-0.95294189453125
1759846785996,970114391,61051,11,0.158935546875,-0.10089111328125,-0.81256103515625
1759846785996,970114391,61051,12,0.329345703125,-0.10943603515625,-1.11505126953125
1759846785996,970114391,61051,13,0.237060546875,-0.10430908203125,-0.95416259765625
1759846785996,970114391,61051,14,0.227294921875,-0.09722900390625,-0.96710205078125
1759846785996,970114391,61051,15,0.2412109375,-0.07354736328125,-1.06036376953125
1759846785996,970114391,61051,16,0.271240234375,-0.06890869140625,-0.99346923828125
1759846785996,970114391,61051,17,0.181640625,-0.10552978515625,-0.89508056640625
1759846785996,970114391,61051,18,0.331787109375,-0.07452392578125,-1.17242431640625
1759846785996,970114391,61051,19,0.24755859375,-0.10064697265625,-0.80133056640625
1759846785996,970114391,61051,20,0.13720703125,-0.09210205078125,-0.96661376953125
1759846785996,970114391,61051,21,0.460205078125,-0.07403564453125,-1.23345947265625
1759846785996,970114391,61051,22,0.092529296875,-0.08160400390625,-0.69317626953125
1759846785996,970114391,61051,23,0.23095703125,-0.08746337890625,-1.16485595703125
1759846785996,970114391,61051,24,0.40087890625,-0.11334228515625,-0.97930908203125
1759846785996,970114391,61051,25,0.07568359375,-0.06475830078125,-0.79302978515625
1759846785996,970114391,61051,26,0.403564453125,-0.11114501953125,-1.20806884765625
1759846785996,970114391,61051,27,0.21142578125,-0.08477783203125,-0.82037353515625
1759846785996,970114391,61051,28,0.247802734375,-0.11944580078125,-0.85308837890625
1759846785996,970114391,61051,29,0.315185546875,-0.04327392578125,-1.05181884765625
1759846785996,970114391,61051,30,0.244384765625,-0.01104736328125,-1.11773681640625
1759846785996,970114391,61051,31,0.213623046875,-0.03692626953125,-1.07550048828125
1759846788516,970116934,61052,0,0.28857421875,0.02239990234375,-1.11236572265625
1759846788516,970116934,61052,1,0.256103515625,-0.09820556640625,-0.84527587890625
1759846788516,970116934,61052,2,0.19921875,-0.08111572265625,-0.94024658203125
1759846788516,970116934,61052,3,0.34423828125,-0.18365478515625,-0.88970947265625
1759846788516,970116934,61052,4,0.238525390625,-0.11358642578125,-0.79156494140625
1759846788516,970116934,61052,5,0.33935546875,-0.00494384765625,-1.10308837890625
1759846788516,970116934,61052,6,0.10595703125,0.02825927734375,-1.15802001953125
1759846788516,970116934,61052,7,0.1630859375,-0.01129150390625,-1.07135009765625
1759846788516,970116934,61052,8,0.279541015625,-0.01324462890625,-0.94732666015625
1759846788516,970116934,61052,9,0.239990234375,-0.08648681640625,-0.98736572265625
1759846788516,970116934,61052,10,0.373291015625,-0.02325439453125,-1.12945556640625
1759846788516,970116934,61052,11,0.30908203125,-0.09796142578125,-0.81866455078125
1759846788516,970116934,61052,12,0.079345703125,-0.13897705078125,-0.75958251953125
1759846788516,970116934,61052,13,0.358642578125,-0.08673095703125,-1.22027587890625
1759846788516,970116934,61052,14,0.2705078125,-0.11651611328125,-0.85015869140625
1759846788516,970116934,61052,15,0.145751953125,-0.08282470703125,-0.77227783203125
1759846788516,970116934,61052,16,0.397705078125,-0.04547119140625,-1.11578369140625
1759846788516,970116934,61052,17,0.1318359375,0.03656005859375,-1.13824462890625
1759846788516,970116934,61052,18,0.124755859375,0.01361083984375,-1.02496337890625
1759846788516,970116934,61052,19,0.1455078125,-0.01055908203125,-0.99395751953125
1759846788516,970116934,61052,20,0.13623046875,-0.01226806640625,-1.02130126953125
1759846788516,970116934,61052,21,0.144775390625,-0.01031494140625,-1.00640869140625
1759846788516,970116934,61052,22,0.15283203125,-0.00079345703125,-1.00421142578125
1759846788516,970116934,61052,23,0.155517578125,-0.00347900390625,-1.01593017578125
1759846788516,970116934,61052,24,0.17333984375,0.01971435546875,-1.11944580078125
1759846788516,970116934,61052,25,0.435302734375,0.04656982421875,-1.09332275390625
1759846788516,970116934,61052,26,0.10400390625,-0.14337158203125,-0.62481689453125
1759846788516,970116934,61052,27,0.1845703125,-0.11114501953125,-0.96490478515625
1759846788516,970116934,61052,28,0.41552734375,-0.01861572265625,-1.23565673828125
1759846788516,970116934,61052,29,0.187255859375,-0.07159423828125,-0.78546142578125
1759846788516,970116934,61052,30,0.208984375,-0.03521728515625,-1.05230712890625
1759846788516,970116934,61052,31,0.33837890625,-0.04180908203125,-1.11480712890625
1759846791036,970119478,61053,0,0.224365234375,-0.08135986328125,-0.81182861328125
1759846791036,970119478,61053,1,0.2451171875,-0.10333251953125,-0.93170166015625
1759846791036,970119478,61053,2,0.270263671875,-0.10211181640625,-0.96490478515625
1759846791036,970119478,61053,3,0.28759765625,0.02557373046875,-1.06964111328125
1759846791036,970119478,61053,4,0.18505859375,-0.00347900390625,-1.05157470703125
1759846791036,970119478,61053,5,0.177001953125,-0.00885009765625,-1.00469970703125
1759846791036,970119478,61053,6,0.16650390625,-0.01959228515625,-1.01397705078125
1759846791036,970119478,61053,7,0.1669921875,-0.02154541015625,-1.00567626953125
1759846791036,970119478,61053,8,0.176025390625,-0.01593017578125,-1.00445556640625
1759846791036,970119478,61053,9,0.172607421875,-0.01275634765625,-1.00616455078125
1759846791036,970119478,61053,10,0.1728515625,-0.01129150390625,-1.02593994140625
1759846791036,970119478,61053,11,0.228759765625,0.04705810546875,-1.14849853515625
1759846791036,970119478,61053,12,0.41455078125,-0.02325439453125,-1.07720947265625
1759846791036,970119478,61053,13,0.14013671875,-0.08331298828125,-0.66046142578125
1759846791036,970119478,61053,14,0.179443359375,-0.15509033203125,-0.91485595703125
1759846791036,970119478,61053,15,0.403564453125,-0.05059814453125,-1.16461181640625
1759846791036,970119478,61053,16,0.180419921875,-0.09063720703125,-0.80621337890625
1759846791036,970119478,61053,17,0.225830078125,-0.09576416015625,-0.90484619140625
1759846791036,970119478,61053,18,0.331787109375,0.00555419921875,-1.10333251953125
1759846791036,970119478,61053,19,0.186767578125,-0.01080322265625,-1.06964111328125
1759846791036,970119478,61053,20,0.18017578125,-0.02178955078125,-1.01568603515625
1759846791036,970119478,61053,21,0.196044921875,-0.03741455078125,-1.00396728515625
1759846791036,970119478,61053,22,0.214599609375,-0.04376220703125,-1.00640869140625
1759846791036,970119478,61053,23,0.227294921875,-0.04766845703125,-0.97760009765625
1759846791036,970119478,61053,24,0.23193359375,-0.02569580078125,-1.03985595703125
1759846791036,970119478,61053,25,0.2783203125,-0.05938720703125,-0.96588134765625
1759846791036,970119478,61053,26,0.233154296875,-0.09356689453125,-0.88409423828125
1759846791036,970119478,61053,27,0.27001953125,-0.05645751953125,-1.00225830078125
1759846791036,970119478,61053,28,0.204833984375,-0.04132080078125,-1.00885009765625
1759846791036,970119478,61053,29,0.150146484375,-0.01666259765625,-1.03326416015625
1759846791036,970119478,61053,30,0.1435546875,-0.01568603515625,-1.03326416015625
1759846791036,970119478,61053,31,0.1591796875,-0.02569580078125,-1.00543212890625
1759846793559,970122021,61054,0,0.162841796875,-0.02252197265625,-1.01129150390625
1759846793559,970122021,61054,1,0.167236328125,-0.01788330078125,-1.01275634765625
1759846793559,970122021,61054,2,0.179443359375,-0.01348876953125,-1.02178955078125
1759846793559,970122021,61054,3,0.2119140625,-0.02227783203125,-1.03424072265625
1759846793559,970122021,61054,4,0.36767578125,0.00921630859375,-1.06158447265625
1759846793559,970122021,61054,5,0.22314453125,-0.11260986328125,-0.76617431640625
1759846793559,970122021,61054,6,0.20458984375,-0.10040283203125,-0.96246337890625
1759846793559,970122021,61054,7,0.412109375,-0.02618408203125,-1.18438720703125
1759846793559,970122021,61054,8,0.17626953125,-0.10089111328125,-0.75079345703125
1759846793559,970122021,61054,9,0.197021484375,-0.08135986328125,-1.01226806640625
1759846793559,970122021,61054,10,0.32080078125,-0.09332275390625,-1.03790283203125
1759846793559,970122021,61054,11,0.17822265625,-0.08355712890625,-0.89581298828125
1759846793559,970122021,61054,12,0.28125,-0.02764892578125,-1.24151611328125
1759846793559,970122021,61054,13,0.252197265625,-0.10675048828125,-0.87042236328125
1759846793559,970122021,61054,14,0.1533203125,-0.12579345703125,-0.83331298828125
1759846793559,970122021,61054,15,0.287353515625,-0.09625244140625,-1.07281494140625
1759846793559,970122021,61054,16,0.233642578125,-0.07720947265625,-1.00079345703125
1759846793559,970122021,61054,17,0.2373046875,-0.07769775390625,-0.98394775390625
1759846793559,970122021,61054,18,0.23974609375,-0.07257080078125,-1.02227783203125
1759846793559,970122021,61054,19,0.235107421875,-0.06817626953125,-0.99566650390625
1759846793559,970122021,61054,20,0.238525390625,-0.07012939453125,-0.97393798828125
1759846793559,970122021,61054,21,0.233642578125,-0.07061767578125,-0.99420166015625
1759846793559,970122021,61054,22,0.229736328125,-0.06011962890625,-1.01226806640625
1759846793559,970122021,61054,23,0.24365234375,-0.05303955078125,-0.98028564453125
1759846793559,970122021,61054,24,0.26171875,-0.04254150390625,-0.95782470703125
1759846793559,970122021,61054,25,0.232421875,-0.03448486328125,-1.02545166015625
1759846793559,970122021,61054,26,0.262939453125,-0.04473876953125,-0.98443603515625
