receivedPhoneTimestamp,respeckTimestamp,packetSeqNum,sampleSeqNum,accelX,accelY,accelZ
1759871759564,967230218,6511,7,-0.122802734375,-1.02130126953125,0.00115966796875
1759871759564,967230218,6511,8,-0.224365234375,-0.99078369140625,0.04144287109375
1759871759564,967230218,6511,9,-0.214599609375,-1.00860595703125,0.05389404296875
1759871759564,967230218,6511,10,-0.166015625,-1.04937744140625,0.02337646484375
1759871759564,967230218,6511,11,-0.167236328125,-1.05010986328125,0.03118896484375
1759871759564,967230218,6511,12,-0.109375,-1.02032470703125,0.01922607421875
1759871759564,967230218,6511,13,-0.098876953125,-1.03204345703125,0.00872802734375
1759871759564,967230218,6511,14,-0.20703125,-1.01373291015625,0.00311279296875
1759871759564,967230218,6511,15,-0.171142578125,-1.07330322265625,0.02386474609375
1759871759564,967230218,6511,16,-0.123046875,-1.08575439453125,-0.03570556640625
1759871759564,967230218,6511,17,-0.20654296875,-1.03741455078125,0.03973388671875
1759871759564,967230218,6511,18,-0.153564453125,-1.02154541015625,0.02728271484375
1759871759564,967230218,6511,19,-0.182373046875,-1.08282470703125,-0.07403564453125
1759871759564,967230218,6511,20,-0.224365234375,-0.94146728515625,-0.00787353515625
1759871759564,967230218,6511,21,-0.2646484375,-0.95098876953125,-0.03204345703125
1759871759564,967230218,6511,22,-0.2353515625,-1.00225830078125,-0.07965087890625
1759871759564,967230218,6511,23,-0.31640625,-1.07794189453125,0.01312255859375
1759871759564,967230218,6511,24,-0.341796875,-0.98809814453125,0.05731201171875
1759871759564,967230218,6511,25,-0.252685546875,-0.99224853515625,-0.04815673828125
1759871759564,967230218,6511,26,-0.2880859375,-0.99688720703125,-0.02911376953125
1759871759564,967230218,6511,27,-0.292236328125,-1.01324462890625,-0.02960205078125
1759871759564,967230218,6511,28,-0.218994140625,-1.03375244140625,0.01678466796875
1759871759564,967230218,6511,29,-0.241943359375,-1.00592041015625,0.04608154296875
1759871759564,967230218,6511,30,-0.282958984375,-1.03253173828125,0.00115966796875
1759871759564,967230218,6511,31,-0.32958984375,-0.97491455078125,-0.00933837890625
1759871762086,967232755,6512,0,-0.2412109375,-1.01959228515625,-0.04522705078125
1759871762086,967232755,6512,1,-0.227783203125,-1.01617431640625,-0.03594970703125
1759871762086,967232755,6512,2,-0.207763671875,-1.03131103515625,0.01409912109375
1759871762086,967232755,6512,3,-0.356201171875,-0.98492431640625,0.06414794921875
1759871762086,967232755,6512,4,-0.19921875,-1.09454345703125,-0.03155517578125
1759871762086,967232755,6512,5,-0.22412109375,-0.98541259765625,-0.04229736328125
1759871762086,967232755,6512,6,-0.132568359375,-0.94537353515625,-0.03253173828125
1759871762086,967232755,6512,7,-0.123291015625,-1.05718994140625,0.02484130859375
1759871762086,967232755,6512,8,-0.237548828125,-1.04962158203125,0.03851318359375
1759871762086,967232755,6512,9,-0.30078125,-1.03594970703125,0.07049560546875
1759871762086,967232755,6512,10,-0.1396484375,-1.03741455078125,0.03997802734375
1759871762086,967232755,6512,11,-0.16845703125,-1.00299072265625,0.04315185546875
1759871762086,967232755,6512,12,-0.259033203125,-0.99078369140625,0.04559326171875
1759871762086,967232755,6512,13,-0.25732421875,-1.00640869140625,0.07635498046875
1759871762086,967232755,6512,14,-0.218505859375,-1.01885986328125,0.05242919921875
1759871762086,967232755,6512,15,-0.152099609375,-1.03326416015625,0.02557373046875
1759871762086,967232755,6512,16,-0.176025390625,-1.02764892578125,0.07147216796875
1759871762086,967232755,6512,17,-0.24365234375,-0.99639892578125,0.08319091796875
1759871762086,967232755,6512,18,-0.22216796875,-1.03448486328125,0.09613037109375
1759871762086,967232755,6512,19,-0.21826171875,-1.02056884765625,0.04901123046875
1759871762086,967232755,6512,20,-0.16796875,-1.03692626953125,0.01873779296875
1759871762086,967232755,6512,21,-0.197998046875,-1.00958251953125,0.04559326171875
1759871762086,967232755,6512,22,-0.24072265625,-1.02301025390625,0.03802490234375
1759871762086,967232755,6512,23,-0.283203125,-0.98736572265625,0.03411865234375
1759871762086,967232755,6512,24,-0.208251953125,-1.00372314453125,0.00775146484375
1759871762086,967232755,6512,25,-0.25732421875,-1.03546142578125,-0.01519775390625
1759871762086,967232755,6512,26,-0.25537109375,-1.04473876953125,-0.02301025390625
1759871762086,967232755,6512,27,-0.189453125,-1.02496337890625,-0.04449462890625
1759871762086,967232755,6512,28,-0.21826171875,-1.01690673828125,-0.00689697265625
1759871762086,967232755,6512,29,-0.28662109375,-1.00714111328125,0.02899169921875
1759871762086,967232755,6512,30,-0.170654296875,-1.02301025390625,-0.00592041015625
1759871762086,967232755,6512,31,-0.205322265625,-1.02691650390625,-0.00811767578125
1759871764610,967235292,6513,0,-0.24169921875,-1.02471923828125,0.00018310546875
1759871764610,967235292,6513,1,-0.19287109375,-1.02276611328125,-0.02764892578125
1759871764610,967235292,6513,2,-0.160400390625,-1.01495361328125,-0.02569580078125
1759871764610,967235292,6513,3,-0.176025390625,-1.01861572265625,-0.00665283203125
1759871764610,967235292,6513,4,-0.22900390625,-1.01055908203125,0.01995849609375
1759871764610,967235292,6513,5,-0.20068359375,-1.04302978515625,0.01239013671875
1759871764610,967235292,6513,6,-0.21142578125,-1.02276611328125,-0.00421142578125
1759871764610,967235292,6513,7,-0.179931640625,-1.03350830078125,0.00677490234375
1759871764610,967235292,6513,8,-0.210693359375,-1.04083251953125,0.01141357421875
1759871764610,967235292,6513,9,-0.20751953125,-1.04058837890625,-0.02984619140625
1759871764610,967235292,6513,10,-0.18798828125,-0.99078369140625,0.03656005859375
1759871764610,967235292,6513,11,-0.14111328125,-1.01275634765625,0.01239013671875
1759871764610,967235292,6513,12,-0.179931640625,-1.02008056640625,-0.00079345703125
1759871764610,967235292,6513,13,-0.18359375,-1.03961181640625,0.03729248046875
1759871764610,967235292,6513,14,-0.178466796875,-1.03009033203125,0.02166748046875
1759871764610,967235292,6513,15,-0.181396484375,-1.03375244140625,0.01995849609375
1759871764610,967235292,6513,16,-0.186279296875,-1.01690673828125,0.01800537109375
1759871764610,967235292,6513,17,-0.158447265625,-1.03424072265625,0.01727294921875
1759871764610,967235292,6513,18,-0.171875,-1.03448486328125,-0.00616455078125
1759871764610,967235292,6513,19,-0.218994140625,-1.02301025390625,0.02752685546875
1759871764610,967235292,6513,20,-0.169921875,-1.02252197265625,0.01629638671875
1759871764610,967235292,6513,21,-0.16845703125,-1.03448486328125,0.01190185546875
1759871764610,967235292,6513,22,-0.179931640625,-1.01715087890625,0.00335693359375
1759871764610,967235292,6513,23,-0.19384765625,-1.02862548828125,-0.00372314453125
1759871764610,967235292,6513,24,-0.220947265625,-1.02984619140625,0.00286865234375
1759871764610,967235292,6513,25,-0.21240234375,-1.01934814453125,0.02996826171875
1759871764610,967235292,6513,26,-0.169677734375,-1.00787353515625,0.02508544921875
1759871764610,967235292,6513,27,-0.171142578125,-1.03204345703125,0.02484130859375
1759871764610,967235292,6513,28,-0.2021484375,-1.02349853515625,0.02435302734375
1759871764610,967235292,6513,29,-0.209716796875,-1.02130126953125,0.02069091796875
1759871764610,967235292,6513,30,-0.15771484375,-1.03009033203125,0.00701904296875
1759871764610,967235292,6513,31,-0.19580078125,-1.02374267578125,0.03289794921875
1759871767125,967237829,6514,0,-0.218994140625,-1.02276611328125,0.03167724609375
1759871767125,967237829,6514,1,-0.202392578125,-1.02520751953125,0.00872802734375
1759871767125,967237829,6514,2,-0.22314453125,-1.02862548828125,0.04168701171875
1759871767125,967237829,6514,3,-0.22265625,-1.00836181640625,0.04730224609375
1759871767125,967237829,6514,4,-0.160888671875,-1.02056884765625,0.02362060546875
1759871767125,967237829,6514,5,-0.160400390625,-1.02203369140625,0.01605224609375
1759871767125,967237829,6514,6,-0.1962890625,-1.02935791015625,0.02264404296875
1759871767125,967237829,6514,7,-0.190673828125,-1.02008056640625,0.01654052734375
1759871767125,967237829,6514,8,-0.23974609375,-1.03717041015625,0.05706787109375
1759871767125,967237829,6514,9,-0.195068359375,-1.00054931640625,0.05096435546875
1759871767125,967237829,6514,10,-0.2119140625,-1.02203369140625,0.05828857421875
1759871767125,967237829,6514,11,-0.206787109375,-1.02642822265625,0.03631591796875
1759871767125,967237829,6514,12,-0.216064453125,-1.00762939453125,0.03094482421875
1759871767125,967237829,6514,13,-0.183837890625,-1.02642822265625,0.02386474609375
1759871767125,967237829,6514,14,-0.22900390625,-1.01910400390625,0.04559326171875
1759871767125,967237829,6514,15,-0.21533203125,-1.01690673828125,0.03485107421875
1759871767125,967237829,6514,16,-0.196044921875,-1.02593994140625,0.04437255859375
1759871767125,967237829,6514,17,-0.230712890625,-1.01983642578125,0.05633544921875
1759871767125,967237829,6514,18,-0.288818359375,-1.05352783203125,0.02288818359375
1759871767125,967237829,6514,19,-0.1337890625,-1.00079345703125,-0.00225830078125
1759871767125,967237829,6514,20,-0.142333984375,-1.01104736328125,-0.01422119140625
1759871767125,967237829,6514,21,-0.1630859375,-1.00958251953125,0.02752685546875
1759871767125,967237829,6514,22,-0.23486328125,-1.02276611328125,0.03680419921875
1759871767125,967237829,6514,23,-0.20849609375,-1.04400634765625,0.03240966796875
1759871767125,967237829,6514,24,-0.194091796875,-1.02398681640625,0.02215576171875
1759871767125,967237829,6514,25,-0.22314453125,-1.01397705078125,0.03631591796875
1759871767125,967237829,6514,26,-0.19775390625,-1.02276611328125,0.02630615234375
1759871767125,967237829,6514,27,-0.2119140625,-1.01104736328125,0.03216552734375
1759871767125,967237829,6514,28,-0.219482421875,-1.02349853515625,0.03485107421875
1759871767125,967237829,6514,29,-0.224365234375,-1.01837158203125,0.03826904296875
1759871767125,967237829,6514,30,-0.210693359375,-1.01690673828125,0.03460693359375
1759871767125,967237829,6514,31,-0.222412109375,-1.01226806640625,0.03436279296875
1759871769636,967240367,6515,0,-0.224365234375,-1.03497314453125,0.03436279296875
1759871769636,967240367,6515,1,-0.244140625,-1.00372314453125,0.04071044921875
1759871769636,967240367,6515,2,-0.235107421875,-1.02203369140625,0.03387451171875
1759871769636,967240367,6515,3,-0.2294921875,-1.01446533203125,0.04510498046875
1759871769636,967240367,6515,4,-0.236083984375,-1.01324462890625,0.05487060546875
1759871769636,967240367,6515,5,-0.224853515625,-1.04034423828125,-0.00054931640625
1759871769636,967240367,6515,6,-0.248291015625,-1.01544189453125,0.06854248046875
1759871769636,967240367,6515,7,-0.21630859375,-1.00421142578125,-0.00250244140625
1759871769636,967240367,6515,8,-0.218505859375,-1.02545166015625,0.03875732421875
1759871769636,967240367,6515,9,-0.196044921875,-1.01983642578125,0.01898193359375
1759871769636,967240367,6515,10,-0.208984375,-1.02325439453125,0.04217529296875
1759871769636,967240367,6515,11,-0.209228515625,-1.01251220703125,0.01800537109375
1759871769636,967240367,6515,12,-0.1953125,-1.01690673828125,0.04681396484375
1759871769636,967240367,6515,13,-0.170166015625,-1.03472900390625,-0.00347900390625
1759871769636,967240367,6515,14,-0.221923828125,-1.00640869140625,0.03167724609375
1759871769636,967240367,6515,15,-0.170166015625,-1.04498291015625,0.00946044921875
1759871769636,967240367,6515,16,-0.153564453125,-1.02325439453125,-0.00860595703125
1759871769636,967240367,6515,17,-0.20263671875,-1.02740478515625,0.03363037109375
1759871769636,967240367,6515,18,-0.202880859375,-1.04254150390625,0.04559326171875
1759871769636,967240367,6515,19,-0.168701171875,-1.01495361328125,0.00775146484375
1759871769636,967240367,6515,20,-0.182373046875,-1.00933837890625,0.03411865234375
1759871769636,967240367,6515,21,-0.206787109375,-1.02642822265625,0.03851318359375
1759871769636,967240367,6515,22,-0.192138671875,-1.01300048828125,0.04315185546875
1759871769636,967240367,6515,23,-0.19287109375,-1.02886962890625,0.04803466796875
1759871769636,967240367,6515,24,-0.202880859375,-1.03033447265625,0.05023193359375
1759871769636,967240367,6515,25,-0.220947265625,-1.00958251953125,0.05291748046875
1759871769636,967240367,6515,26,-0.205078125,-1.01959228515625,0.06170654296875
1759871769636,967240367,6515,27,-0.20166015625,-1.02105712890625,0.03216552734375
1759871769636,967240367,6515,28,-0.230712890625,-1.01422119140625,0.04925537109375
1759871769636,967240367,6515,29,-0.20068359375,-1.02032470703125,0.04486083984375
1759871769636,967240367,6515,30,-0.191650390625,-1.03521728515625,0.05413818359375
1759871769636,967240367,6515,31,-0.181884765625,-1.01519775390625,0.01409912109375
1759871772346,967242904,6516,0,-0.216064453125,-1.02008056640625,0.05072021484375
1759871772346,967242904,6516,1,-0.22265625,-1.01055908203125,0.03924560546875
1759871772346,967242904,6516,2,-0.21923828125,-1.01739501953125,0.04437255859375
1759871772346,967242904,6516,3,-0.21240234375,-1.02496337890625,0.05023193359375
1759871772346,967242904,6516,4,-0.233642578125,-1.02545166015625,0.05633544921875
1759871772346,967242904,6516,5,-0.21044921875,-1.01080322265625,0.05487060546875
1759871772346,967242904,6516,6,-0.2236328125,-1.01617431640625,0.04779052734375
1759871772346,967242904,6516,7,-0.213623046875,-1.02008056640625,0.04364013671875
1759871772346,967242904,6516,8,-0.210693359375,-1.01641845703125,0.05218505859375
1759871772346,967242904,6516,9,-0.21044921875,-1.01788330078125,0.05023193359375
1759871772346,967242904,6516,10,-0.22021484375,-1.01983642578125,0.05584716796875
1759871772346,967242904,6516,11,-0.21630859375,-1.02056884765625,0.05413818359375
1759871772346,967242904,6516,12,-0.22314453125,-1.01617431640625,0.05975341796875
1759871772346,967242904,6516,13,-0.22705078125,-1.01690673828125,0.05633544921875
1759871772346,967242904,6516,14,-0.225830078125,-1.01568603515625,0.06829833984375
1759871772346,967242904,6516,15,-0.202880859375,-1.02154541015625,0.04852294921875
1759871772346,967242904,6516,16,-0.215576171875,-1.01519775390625,0.04705810546875
1759871772346,967242904,6516,17,-0.237060546875,-1.01739501953125,0.06536865234375
1759871772346,967242904,6516,18,-0.205810546875,-1.01129150390625,0.05120849609375
1759871772346,967242904,6516,19,-0.218994140625,-1.01861572265625,0.05511474609375
1759871772346,967242904,6516,20,-0.1982421875,-1.03082275390625,0.05364990234375
1759871772346,967242904,6516,21,-0.19775390625,-1.01300048828125,0.04315185546875
1759871772346,967242904,6516,22,-0.203369140625,-1.02105712890625,0.04315185546875
1759871772346,967242904,6516,23,-0.2255859375,-1.02154541015625,0.05609130859375
1759871772346,967242904,6516,24,-0.223876953125,-1.01202392578125,0.04998779296875
1759871772346,967242904,6516,25,-0.221923828125,-1.01617431640625,0.05804443359375
1759871772346,967242904,6516,26,-0.2216796875,-1.02301025390625,0.05340576171875
1759871772346,967242904,6516,27,-0.21826171875,-1.01934814453125,0.04217529296875
1759871772346,967242904,6516,28,-0.215576171875,-1.02056884765625,0.03875732421875
1759871772346,967242904,6516,29,-0.211669921875,-1.02325439453125,0.03167724609375
1759871772346,967242904,6516,30,-0.207275390625,-1.02740478515625,0.01165771484375
1759871772346,967242904,6516,31,-0.216552734375,-1.01715087890625,0.02313232421875
1759871774866,967245435,6517,0,-0.209228515625,-1.01690673828125,0.02532958984375
1759871774866,967245435,6517,1,-0.195556640625,-1.01324462890625,0.03265380859375
1759871774866,967245435,6517,2,-0.187255859375,-1.02838134765625,0.01727294921875
1759871774866,967245435,6517,3,-0.197265625,-1.02593994140625,0.01507568359375
1759871774866,967245435,6517,4,-0.216552734375,-1.02447509765625,0.02923583984375
1759871774866,967245435,6517,5,-0.203369140625,-1.02740478515625,0.01971435546875
1759871774866,967245435,6517,6,-0.201171875,-1.01861572265625,0.01239013671875
1759871774866,967245435,6517,7,-0.2138671875,-1.03009033203125,0.01605224609375
1759871774866,967245435,6517,8,-0.20947265625,-1.02130126953125,0.00994873046875
1759871774866,967245435,6517,9,-0.15869140625,-1.01275634765625,0.00531005859375
1759871774866,967245435,6517,10,-0.167236328125,-1.02886962890625,-0.00323486328125
1759871774866,967245435,6517,11,-0.1708984375,-1.02862548828125,0.00457763671875
1759871774866,967245435,6517,12,-0.189453125,-1.02398681640625,0.01922607421875
1759871774866,967245435,6517,13,-0.1806640625,-1.03106689453125,0.01995849609375
1759871774866,967245435,6517,14,-0.180419921875,-1.01934814453125,0.02044677734375
1759871774866,967245435,6517,15,-0.178466796875,-1.02203369140625,0.02923583984375
1759871774866,967245435,6517,16,-0.194091796875,-1.02008056640625,0.03021240234375
1759871774866,967245435,6517,17,-0.18212890625,-1.03033447265625,0.02630615234375
1759871774866,967245435,6517,18,-0.157958984375,-1.02398681640625,0.01605224609375
1759871774866,967245435,6517,19,-0.143310546875,-1.04547119140625,0.01556396484375
1759871774866,967245435,6517,20,-0.22021484375,-1.02789306640625,0.03314208984375
1759871774866,967245435,6517,21,-0.219970703125,-1.01373291015625,0.03631591796875
1759871774866,967245435,6517,22,-0.202392578125,-1.00982666015625,0.03900146484375
1759871774866,967245435,6517,23,-0.22021484375,-1.01275634765625,0.05731201171875
1759871774866,967245435,6517,24,-0.2119140625,-1.03131103515625,0.02947998046875
1759871774866,967245435,6517,25,-0.17822265625,-1.02813720703125,0.02630615234375
1759871774866,967245435,6517,26,-0.162109375,-1.01666259765625,0.03729248046875
1759871774866,967245435,6517,27,-0.1806640625,-1.01788330078125,0.04681396484375
1759871774866,967245435,6517,28,-0.204345703125,-1.01495361328125,0.05999755859375
1759871774866,967245435,6517,29,-0.19775390625,-1.02789306640625,0.05218505859375
1759871774866,967245435,6517,30,-0.193603515625,-1.02593994140625,0.05364990234375
1759871774866,967245435,6517,31,-0.182861328125,-1.02520751953125,0.05682373046875
1759871777392,967247972,6518,0,-0.20703125,-1.01177978515625,0.04632568359375
1759871777392,967247972,6518,1,-0.229736328125,-1.01275634765625,0.08026123046875
1759871777392,967247972,6518,2,-0.160400390625,-1.03253173828125,0.04412841796875
1759871777392,967247972,6518,3,-0.197509765625,-1.01666259765625,0.04974365234375
1759871777392,967247972,6518,4,-0.22705078125,-1.01983642578125,0.07000732421875
1759871777392,967247972,6518,5,-0.218505859375,-1.00665283203125,0.05340576171875
1759871777392,967247972,6518,6,-0.220458984375,-1.01666259765625,0.05389404296875
1759871777392,967247972,6518,7,-0.197021484375,-1.02398681640625,0.05706787109375
1759871777392,967247972,6518,8,-0.228515625,-1.01373291015625,0.05413818359375
1759871777392,967247972,6518,9,-0.2255859375,-1.01763916015625,0.04803466796875
1759871777392,967247972,6518,10,-0.22265625,-1.01690673828125,0.05682373046875
1759871777392,967247972,6518,11,-0.223876953125,-1.00982666015625,0.06097412109375
1759871777392,967247972,6518,12,-0.234619140625,-1.01983642578125,0.05780029296875
1759871777392,967247972,6518,13,-0.2353515625,-1.02130126953125,0.06463623046875
1759871777392,967247972,6518,14,-0.248779296875,-1.00421142578125,0.06195068359375
1759871777392,967247972,6518,15,-0.241455078125,-1.01153564453125,0.06121826171875
1759871777392,967247972,6518,16,-0.248046875,-1.01251220703125,0.06268310546875
1759871777392,967247972,6518,17,-0.249267578125,-1.01251220703125,0.06097412109375
1759871777392,967247972,6518,18,-0.23779296875,-1.01031494140625,0.05877685546875
1759871777392,967247972,6518,19,-0.238525390625,-1.01495361328125,0.07269287109375
1759871777392,967247972,6518,20,-0.260009765625,-1.01861572265625,0.05120849609375
1759871777392,967247972,6518,21,-0.237548828125,-1.01348876953125,0.05975341796875
1759871777392,967247972,6518,22,-0.242919921875,-1.01104736328125,0.05755615234375
1759871777392,967247972,6518,23,-0.256103515625,-1.00787353515625,0.03900146484375
1759871777392,967247972,6518,24,-0.234619140625,-1.01861572265625,0.04461669921875
1759871777392,967247972,6518,25,-0.17333984375,-1.02545166015625,0.00115966796875
1759871777392,967247972,6518,26,-0.187255859375,-1.01959228515625,0.02044677734375
1759871777392,967247972,6518,27,-0.22412109375,-1.02471923828125,0.02386474609375
1759871777392,967247972,6518,28,-0.224853515625,-1.02032470703125,0.01800537109375
1759871777392,967247972,6518,29,-0.245361328125,-1.00054931640625,0.01800537109375
1759871777392,967247972,6518,30,-0.203125,-1.03692626953125,0.00775146484375
1759871777392,967247972,6518,31,-0.20556640625,-1.01715087890625,0.00091552734375
1759871779907,967250509,6519,0,-0.218505859375,-1.02276611328125,0.00897216796875
1759871779907,967250509,6519,1,-0.237548828125,-1.00933837890625,0.02264404296875
1759871779907,967250509,6519,2,-0.2158203125,-1.03594970703125,0.01873779296875
1759871779907,967250509,6519,3,-0.21044921875,-1.00982666015625,0.00360107421875
1759871779907,967250509,6519,4,-0.220458984375,-1.02032470703125,0.02923583984375
1759871779907,967250509,6519,5,-0.219482421875,-1.01910400390625,0.02606201171875
1759871779907,967250509,6519,6,-0.1962890625,-1.02447509765625,0.02044677734375
1759871779907,967250509,6519,7,-0.20166015625,-1.02862548828125,0.02191162109375
1759871779907,967250509,6519,8,-0.222900390625,-1.01202392578125,0.02288818359375
1759871779907,967250509,6519,9,-0.2216796875,-1.02423095703125,0.02166748046875
1759871779907,967250509,6519,10,-0.22216796875,-1.01470947265625,0.01995849609375
1759871779907,967250509,6519,11,-0.21337890625,-1.01568603515625,0.02899169921875
1759871779907,967250509,6519,12,-0.219970703125,-1.02618408203125,0.01824951171875
1759871779907,967250509,6519,13,-0.22216796875,-1.01617431640625,0.02313232421875
1759871779907,967250509,6519,14,-0.22998046875,-1.02008056640625,0.02044677734375
1759871779907,967250509,6519,15,-0.2451171875,-1.01177978515625,0.03900146484375
1759871779907,967250509,6519,16,-0.224853515625,-1.01544189453125,0.01898193359375
1759871779907,967250509,6519,17,-0.22509765625,-1.02203369140625,0.02801513671875
1759871779907,967250509,6519,18,-0.23291015625,-1.01470947265625,0.03704833984375
1759871779907,967250509,6519,19,-0.23583984375,-1.02105712890625,0.03533935546875
1759871779907,967250509,6519,20,-0.219482421875,-1.01788330078125,0.02777099609375
1759871779907,967250509,6519,21,-0.20751953125,-1.02740478515625,0.02728271484375
1759871779907,967250509,6519,22,-0.232177734375,-1.00933837890625,0.03607177734375
1759871779907,967250509,6519,23,-0.24169921875,-1.01177978515625,0.04022216796875
1759871779907,967250509,6519,24,-0.229248046875,-1.02081298828125,0.03533935546875
1759871779907,967250509,6519,25,-0.232666015625,-1.00885009765625,0.00531005859375
1759871779907,967250509,6519,26,-0.2578125,-1.00469970703125,0.08123779296875
1759871779907,967250509,6519,27,-0.19189453125,-1.02789306640625,0.01214599609375
1759871779907,967250509,6519,28,-0.208251953125,-1.02252197265625,0.01654052734375
1759871779907,967250509,6519,29,-0.20263671875,-1.02496337890625,-0.01397705078125
1759871779907,967250509,6519,30,-0.23681640625,-1.01641845703125,0.01507568359375
1759871779907,967250509,6519,31,-0.20458984375,-1.01788330078125,0.00433349609375
1759871782426,967253046,6520,0,-0.215087890625,-1.02593994140625,0.01239013671875
1759871782426,967253046,6520,1,-0.237548828125,-1.01495361328125,0.01409912109375
1759871782426,967253046,6520,2,-0.22998046875,-1.02227783203125,0.02020263671875
1759871782426,967253046,6520,3,-0.21484375,-1.01910400390625,0.00897216796875
1759871782426,967253046,6520,4,-0.235107421875,-1.01861572265625,0.02191162109375
1759871782426,967253046,6520,5,-0.240478515625,-1.01202392578125,0.02337646484375
1759871782426,967253046,6520,6,-0.237060546875,-1.01324462890625,0.01531982421875
1759871782426,967253046,6520,7,-0.265869140625,-1.01812744140625,0.03314208984375
1759871782426,967253046,6520,8,-0.22216796875,-1.01422119140625,0.04095458984375
1759871782426,967253046,6520,9,-0.212890625,-1.01202392578125,0.02825927734375
1759871782426,967253046,6520,10,-0.22119140625,-1.01348876953125,0.02899169921875
1759871782426,967253046,6520,11,-0.224853515625,-1.02252197265625,0.03436279296875
1759871782426,967253046,6520,12,-0.21875,-1.01617431640625,0.02459716796875
1759871782426,967253046,6520,13,-0.216796875,-1.02471923828125,0.02728271484375
1759871782426,967253046,6520,14,-0.2431640625,-1.01739501953125,0.00140380859375
1759871782426,967253046,6520,15,-0.221435546875,-1.04058837890625,-0.00347900390625
1759871782426,967253046,6520,16,-0.181884765625,-1.02301025390625,-0.01983642578125
1759871782426,967253046,6520,17,-0.160400390625,-1.02056884765625,-0.00616455078125
1759871782426,967253046,6520,18,-0.18212890625,-1.01593017578125,-0.00933837890625
1759871782426,967253046,6520,19,-0.16748046875,-1.03277587890625,-0.01959228515625
1759871782426,967253046,6520,20,-0.18115234375,-1.01983642578125,-0.01080322265625
1759871782426,967253046,6520,21,-0.15380859375,-1.01031494140625,-0.00909423828125
1759871782426,967253046,6520,22,-0.13623046875,-1.02838134765625,-0.02032470703125
1759871782426,967253046,6520,23,-0.1748046875,-1.00787353515625,-0.04156494140625
1759871782426,967253046,6520,24,-0.1669921875,-1.04473876953125,-0.03887939453125
1759871784942,967255583,6521,4,-0.21923828125,-1.03277587890625,0.00140380859375
1759871784942,967255583,6521,5,-0.1845703125,-1.02471923828125,-0.03350830078125
1759871784942,967255583,6521,6,-0.221435546875,-1.01153564453125,-0.00079345703125
1759871784942,967255583,6521,7,-0.29052734375,-0.99639892578125,0.03045654296875
1759871784942,967255583,6521,8,-0.2109375,-1.01934814453125,0.00408935546875
1759871784942,967255583,6521,9,-0.199951171875,-1.01300048828125,0.04559326171875
1759871784942,967255583,6521,10,-0.179931640625,-1.03643798828125,0.02337646484375
1759871784942,967255583,6521,11,-0.231201171875,-1.01593017578125,0.02362060546875
1759871784942,967255583,6521,12,-0.2412109375,-1.01544189453125,0.02093505859375
1759871784942,967255583,6521,13,-0.224365234375,-1.00982666015625,0.04364013671875
1759871784942,967255583,6521,14,-0.24072265625,-1.01373291015625,0.03704833984375
1759871784942,967255583,6521,15,-0.279296875,-1.00201416015625,0.03753662109375
1759871784942,967255583,6521,16,-0.24755859375,-0.99591064453125,0.04876708984375
1759871784942,967255583,6521,17,-0.24951171875,-1.02081298828125,0.04266357421875
1759871784942,967255583,6521,18,-0.267333984375,-1.01544189453125,0.04998779296875
1759871784942,967255583,6521,19,-0.2470703125,-1.01153564453125,0.03729248046875
1759871784942,967255583,6521,20,-0.2353515625,-1.01031494140625,0.05194091796875
1759871784942,967255583,6521,21,-0.238037109375,-1.01470947265625,0.03265380859375
1759871784942,967255583,6521,22,-0.227294921875,-1.02447509765625,0.01239013671875
1759871784942,967255583,6521,23,-0.2177734375,-1.02008056640625,0.04852294921875
1759871784942,967255583,6521,24,-0.2138671875,-1.02520751953125,0.03729248046875
1759871784942,967255583,6521,25,-0.199951171875,-1.02105712890625,0.04241943359375
1759871784942,967255583,6521,26,-0.203125,-1.05230712890625,0.02899169921875
1759871784942,967255583,6521,27,-0.210693359375,-1.00616455078125,0.03900146484375
1759871784942,967255583,6521,28,-0.335693359375,-0.96441650390625,0.09442138671875
1759871784942,967255583,6521,29,-0.228515625,-1.01080322265625,0.07220458984375
1759871784942,967255583,6521,30,-0.20166015625,-1.03375244140625,0.02117919921875
1759871784942,967255583,6521,31,-0.22412109375,-1.00128173828125,0.03778076171875
1759871787467,967258120,6522,0,-0.167236328125,-1.03106689453125,0.04656982421875
1759871787467,967258120,6522,1,-0.240234375,-1.02423095703125,0.05462646484375
1759871787467,967258120,6522,2,-0.273193359375,-0.99884033203125,0.05682373046875
1759871787467,967258120,6522,3,-0.291259765625,-1.00592041015625,0.05560302734375
1759871787467,967258120,6522,4,-0.27685546875,-1.00714111328125,0.06365966796875
1759871787467,967258120,6522,5,-0.29736328125,-0.99468994140625,0.07879638671875
1759871787467,967258120,6522,6,-0.271484375,-0.99957275390625,0.06927490234375
1759871787467,967258120,6522,7,-0.27880859375,-1.01373291015625,0.03070068359375
1759871787467,967258120,6522,8,-0.276123046875,-0.99786376953125,0.03948974609375
1759871787467,967258120,6522,9,-0.231689453125,-1.02447509765625,0.03704833984375
1759871787467,967258120,6522,10,-0.259521484375,-1.01397705078125,0.02557373046875
1759871787467,967258120,6522,11,-0.2978515625,-0.98760986328125,0.03167724609375
1759871787467,967258120,6522,12,-0.201171875,-1.02593994140625,0.04217529296875
1759871787467,967258120,6522,13,-0.242919921875,-1.02301025390625,0.02362060546875
1759871787467,967258120,6522,14,-0.23974609375,-1.00469970703125,0.04852294921875
1759871787467,967258120,6522,15,-0.2119140625,-1.01910400390625,0.03631591796875
1759871787467,967258120,6522,16,-0.231201171875,-1.00347900390625,0.02557373046875
1759871787467,967258120,6522,17,-0.188720703125,-1.05694580078125,0.01580810546875
1759871787467,967258120,6522,18,-0.167236328125,-1.03057861328125,0.01922607421875
1759871787467,967258120,6522,19,-0.2099609375,-1.00982666015625,0.02362060546875
1759871787467,967258120,6522,20,-0.2265625,-1.02154541015625,0.04339599609375
1759871787467,967258120,6522,21,-0.233154296875,-1.01129150390625,0.04608154296875
1759871787467,967258120,6522,22,-0.20849609375,-1.02618408203125,0.01727294921875
1759871787467,967258120,6522,23,-0.206787109375,-1.01739501953125,0.01190185546875
1759871787467,967258120,6522,24,-0.24365234375,-1.01397705078125,0.03338623046875
1759871787467,967258120,6522,25,-0.228271484375,-1.01446533203125,0.03900146484375
1759871787467,967258120,6522,26,-0.253173828125,-1.00787353515625,0.04754638671875
1759871787467,967258120,6522,27,-0.2421875,-1.00958251953125,0.03851318359375
1759871787467,967258120,6522,28,-0.239013671875,-1.01763916015625,0.04046630859375
1759871787467,967258120,6522,29,-0.23583984375,-1.01153564453125,0.04534912109375
1759871787467,967258120,6522,30,-0.22998046875,-1.01885986328125,0.03509521484375
1759871787467,967258120,6522,31,-0.220703125,-1.01885986328125,0.03118896484375
1759871789994,967260657,6523,0,-0.218505859375,-1.02398681640625,0.02703857421875
1759871789994,967260657,6523,1,-0.216552734375,-1.02520751953125,0.02703857421875
1759871789994,967260657,6523,2,-0.222900390625,-1.01202392578125,0.02410888671875
1759871789994,967260657,6523,3,-0.23828125,-1.01495361328125,0.02435302734375
1759871789994,967260657,6523,4,-0.23046875,-1.01739501953125,0.03729248046875
1759871789994,967260657,6523,5,-0.218505859375,-1.01861572265625,0.03533935546875
1759871789994,967260657,6523,6,-0.230712890625,-1.01617431640625,0.03460693359375
1759871789994,967260657,6523,7,-0.21435546875,-1.02105712890625,0.03021240234375
1759871789994,967260657,6523,8,-0.229736328125,-1.01495361328125,0.03436279296875
1759871789994,967260657,6523,9,-0.224853515625,-1.01739501953125,0.02508544921875
1759871789994,967260657,6523,10,-0.22998046875,-1.01495361328125,0.02825927734375
1759871789994,967260657,6523,11,-0.21435546875,-1.02130126953125,0.02142333984375
1759871789994,967260657,6523,12,-0.22509765625,-1.01715087890625,0.02264404296875
1759871789994,967260657,6523,13,-0.222900390625,-1.01495361328125,0.02410888671875
