receivedPhoneTimestamp,respeckTimestamp,packetSeqNum,sampleSeqNum,accelX,accelY,accelZ
1759564977368,75309147,8372,0,-0.91357421875,-0.36236572265625,-0.32061767578125
1759564977368,75309147,8372,1,-0.92138671875,-0.35894775390625,-0.34698486328125
1759564977368,75309147,8372,2,-0.91796875,-0.37994384765625,-0.35186767578125
1759564977368,75309147,8372,3,-0.911376953125,-0.37652587890625,-0.33746337890625
1759564977368,75309147,8372,4,-0.912841796875,-0.37457275390625,-0.33355712890625
1759564977368,75309147,8372,5,-0.912109375,-0.37725830078125,-0.33477783203125
1759564977368,75309147,8372,6,-0.9130859375,-0.38189697265625,-0.33819580078125
1759564977368,75309147,8372,7,-0.91455078125,-0.38043212890625,-0.33551025390625
1759564977368,75309147,8372,8,-0.911376953125,-0.37994384765625,-0.31939697265625
1759564977368,75309147,8372,9,-0.91650390625,-0.38140869140625,-0.32525634765625
1759564977368,75309147,8372,10,-0.9052734375,-0.37628173828125,-0.33135986328125
1759564977368,75309147,8372,11,-0.929931640625,-0.36651611328125,-0.34161376953125
1759564977368,75309147,8372,12,-0.9423828125,-0.36041259765625,-0.36651611328125
1759564977368,75309147,8372,13,-0.906005859375,-0.35504150390625,-0.34552001953125
1759564977368,75309147,8372,14,-0.889892578125,-0.39556884765625,-0.28985595703125
1759564977368,75309147,8372,15,-0.908203125,-0.39019775390625,-0.29815673828125
1759564977368,75309147,8372,16,-0.938720703125,-0.39947509765625,-0.31695556640625
1759564977368,75309147,8372,17,-0.934326171875,-0.35577392578125,-0.36285400390625
1759564977368,75309147,8372,18,-0.935546875,-0.34893798828125,-0.40679931640625
1759564977368,75309147,8372,19,-0.853515625,-0.39019775390625,-0.29132080078125
1759564977368,75309147,8372,20,-0.907470703125,-0.39483642578125,-0.26129150390625
1759564977368,75309147,8372,21,-0.944091796875,-0.36578369140625,-0.34063720703125
1759564977368,75309147,8372,22,-0.949462890625,-0.36968994140625,-0.36358642578125
1759564977368,75309147,8372,23,-0.91064453125,-0.36627197265625,-0.38995361328125
1759564977368,75309147,8372,24,-0.8779296875,-0.39556884765625,-0.22564697265625
1759564977368,75309147,8372,25,-0.914306640625,-0.36651611328125,-0.28741455078125
1759564977368,75309147,8372,26,-0.9501953125,-0.36871337890625,-0.38336181640625
1759564977368,75309147,8372,27,-0.941162109375,-0.38018798828125,-0.36431884765625
1759564977368,75309147,8372,28,-0.891845703125,-0.37750244140625,-0.31915283203125
1759564977368,75309147,8372,29,-0.86328125,-0.37774658203125,-0.27716064453125
1759564977368,75309147,8372,30,-0.942138671875,-0.36749267578125,-0.33038330078125
1759564977368,75309147,8372,31,-0.947509765625,-0.39508056640625,-0.34698486328125
1759564979902,75311714,8373,0,-0.93798828125,-0.36798095703125,-0.33917236328125
1759564979902,75311714,8373,1,-0.884521484375,-0.36749267578125,-0.31109619140625
1759564979902,75311714,8373,2,-0.8740234375,-0.40142822265625,-0.26934814453125
1759564979902,75311714,8373,3,-0.9560546875,-0.37896728515625,-0.31695556640625
1759564979902,75311714,8373,4,-0.941650390625,-0.37799072265625,-0.35040283203125
1759564979902,75311714,8373,5,-0.92724609375,-0.35650634765625,-0.34674072265625
1759564979902,75311714,8373,6,-0.896728515625,-0.37921142578125,-0.28570556640625
1759564979902,75311714,8373,7,-0.90380859375,-0.38751220703125,-0.27520751953125
1759564979902,75311714,8373,8,-0.934814453125,-0.37091064453125,-0.31134033203125
1759564979902,75311714,8373,9,-0.9423828125,-0.37994384765625,-0.33233642578125
1759564979902,75311714,8373,10,-0.927734375,-0.36236572265625,-0.35406494140625
1759564979902,75311714,8373,11,-0.8955078125,-0.39459228515625,-0.27105712890625
1759564979902,75311714,8373,12,-0.913330078125,-0.39044189453125,-0.27642822265625
1759564979902,75311714,8373,13,-0.91552734375,-0.37188720703125,-0.32647705078125
1759564979902,75311714,8373,14,-0.951416015625,-0.36749267578125,-0.33917236328125
1759564979902,75311714,8373,15,-0.93017578125,-0.36236572265625,-0.38018798828125
1759564979902,75311714,8373,16,-0.890625,-0.40631103515625,-0.26934814453125
1759564979902,75311714,8373,17,-0.91796875,-0.38092041015625,-0.27545166015625
1759564979902,75311714,8373,18,-0.929931640625,-0.36676025390625,-0.33673095703125
1759564979902,75311714,8373,19,-0.9375,-0.36724853515625,-0.35357666015625
1759564979902,75311714,8373,20,-0.91748046875,-0.37554931640625,-0.30548095703125
1759564979902,75311714,8373,21,-0.90380859375,-0.38531494140625,-0.30328369140625
1759564979902,75311714,8373,22,-0.908447265625,-0.37432861328125,-0.31500244140625
1759564979902,75311714,8373,23,-0.9228515625,-0.38385009765625,-0.33746337890625
1759564979902,75311714,8373,24,-0.92333984375,-0.40069580078125,-0.33990478515625
1759564979902,75311714,8373,25,-0.898193359375,-0.40191650390625,-0.32281494140625
1759564979902,75311714,8373,26,-0.91845703125,-0.39093017578125,-0.32720947265625
1759564979902,75311714,8373,27,-0.906005859375,-0.38946533203125,-0.33697509765625
1759564979902,75311714,8373,28,-0.910400390625,-0.40582275390625,-0.33551025390625
1759564979902,75311714,8373,29,-0.908935546875,-0.39459228515625,-0.32598876953125
1759564979902,75311714,8373,30,-0.892578125,-0.40777587890625,-0.30499267578125
1759564979902,75311714,8373,31,-0.917724609375,-0.38580322265625,-0.28814697265625
1759564982439,75314281,8374,0,-0.9267578125,-0.40826416015625,-0.29522705078125
1759564982439,75314281,8374,1,-0.931884765625,-0.37750244140625,-0.33819580078125
1759564982439,75314281,8374,2,-0.933837890625,-0.37115478515625,-0.32550048828125
1759564982439,75314281,8374,3,-0.923828125,-0.36651611328125,-0.38092041015625
1759564982439,75314281,8374,4,-0.899658203125,-0.39923095703125,-0.28399658203125
1759564982439,75314281,8374,5,-0.89599609375,-0.38189697265625,-0.33160400390625
1759564982439,75314281,8374,6,-0.919677734375,-0.40655517578125,-0.30084228515625
1759564982439,75314281,8374,7,-0.91259765625,-0.38385009765625,-0.34283447265625
1759564982439,75314281,8374,8,-0.9169921875,-0.41607666015625,-0.31622314453125
1759564982439,75314281,8374,9,-0.904541015625,-0.39312744140625,-0.30548095703125
1759564982439,75314281,8374,10,-0.902099609375,-0.40020751953125,-0.31549072265625
1759564982439,75314281,8374,11,-0.90673828125,-0.40533447265625,-0.30108642578125
1759564982439,75314281,8374,12,-0.912841796875,-0.40240478515625,-0.31622314453125
1759564982439,75314281,8374,13,-0.924072265625,-0.39849853515625,-0.31671142578125
1759564982439,75314281,8374,14,-0.923095703125,-0.37872314453125,-0.32427978515625
1759564982439,75314281,8374,15,-0.91845703125,-0.36114501953125,-0.34552001953125
1759564982439,75314281,8374,16,-0.922607421875,-0.37213134765625,-0.37603759765625
1759564982439,75314281,8374,17,-0.908447265625,-0.40045166015625,-0.27325439453125
1759564982439,75314281,8374,18,-0.914794921875,-0.37823486328125,-0.33160400390625
1759564982439,75314281,8374,19,-0.9140625,-0.40093994140625,-0.30670166015625
1759564982439,75314281,8374,20,-0.90673828125,-0.38385009765625,-0.32940673828125
1759564982439,75314281,8374,21,-0.9052734375,-0.40899658203125,-0.28839111328125
1759564982439,75314281,8374,22,-0.933349609375,-0.39923095703125,-0.28082275390625
1759564982439,75314281,8374,23,-0.9111328125,-0.37432861328125,-0.32574462890625
1759564982439,75314281,8374,24,-0.935546875,-0.37017822265625,-0.33038330078125
1759564982439,75314281,8374,25,-0.9306640625,-0.36212158203125,-0.31817626953125
1759564982439,75314281,8374,26,-0.93115234375,-0.35968017578125,-0.34674072265625
1759564982439,75314281,8374,27,-0.916748046875,-0.38116455078125,-0.30621337890625
1759564982439,75314281,8374,28,-0.90478515625,-0.36700439453125,-0.31866455078125
1759564982439,75314281,8374,29,-0.925537109375,-0.36456298828125,-0.30865478515625
1759564982439,75314281,8374,30,-0.930419921875,-0.37091064453125,-0.32281494140625
1759564982439,75314281,8374,31,-0.92138671875,-0.36944580078125,-0.30401611328125
1759564985172,75316849,8375,0,-0.935546875,-0.36285400390625,-0.33306884765625
1759564985172,75316849,8375,1,-0.925048828125,-0.34820556640625,-0.34698486328125
1759564985172,75316849,8375,2,-0.90625,-0.36260986328125,-0.33673095703125
1759564985172,75316849,8375,3,-0.913330078125,-0.36431884765625,-0.32989501953125
1759564985172,75316849,8375,4,-0.9130859375,-0.39337158203125,-0.32232666015625
1759564985172,75316849,8375,5,-0.912109375,-0.39288330078125,-0.34869384765625
1759564985172,75316849,8375,6,-0.9091796875,-0.39166259765625,-0.29840087890625
1759564985172,75316849,8375,7,-0.9091796875,-0.38238525390625,-0.33599853515625
1759564985172,75316849,8375,8,-0.916015625,-0.40045166015625,-0.33746337890625
1759564985172,75316849,8375,9,-0.919189453125,-0.39776611328125,-0.31329345703125
1759564985172,75316849,8375,10,-0.906005859375,-0.39508056640625,-0.32574462890625
1759564985172,75316849,8375,11,-0.905029296875,-0.39337158203125,-0.32769775390625
1759564985172,75316849,8375,12,-0.904541015625,-0.40460205078125,-0.30255126953125
1759564985172,75316849,8375,13,-0.923828125,-0.40704345703125,-0.29571533203125
1759564985172,75316849,8375,14,-0.90771484375,-0.37677001953125,-0.33648681640625
1759564985172,75316849,8375,15,-0.92431640625,-0.36480712890625,-0.34063720703125
1759564985172,75316849,8375,16,-0.933349609375,-0.36651611328125,-0.34552001953125
1759564985172,75316849,8375,17,-0.914306640625,-0.38092041015625,-0.33868408203125
1759564985172,75316849,8375,18,-0.90478515625,-0.39312744140625,-0.29547119140625
1759564985172,75316849,8375,19,-0.907470703125,-0.39825439453125,-0.32037353515625
1759564985172,75316849,8375,20,-0.9111328125,-0.40020751953125,-0.33599853515625
1759564985172,75316849,8375,21,-0.9169921875,-0.39630126953125,-0.31866455078125
1759564985172,75316849,8375,22,-0.91162109375,-0.40118408203125,-0.32843017578125
1759564985172,75316849,8375,23,-0.900146484375,-0.39581298828125,-0.32110595703125
1759564985172,75316849,8375,24,-0.90478515625,-0.40484619140625,-0.32305908203125
1759564985172,75316849,8375,25,-0.901611328125,-0.39996337890625,-0.31817626953125
1759564985172,75316849,8375,26,-0.915283203125,-0.40362548828125,-0.32965087890625
1759564985172,75316849,8375,27,-0.926513671875,-0.38580322265625,-0.32794189453125
1759564985172,75316849,8375,28,-0.907958984375,-0.35601806640625,-0.34576416015625
1759564985172,75316849,8375,29,-0.9208984375,-0.35870361328125,-0.37432861328125
1759564985172,75316849,8375,30,-0.908447265625,-0.36163330078125,-0.36871337890625
1759564985172,75316849,8375,31,-0.9111328125,-0.38116455078125,-0.31475830078125
1759564987704,75319416,8376,0,-0.912353515625,-0.39312744140625,-0.31768798828125
1759564987704,75319416,8376,1,-0.903076171875,-0.40216064453125,-0.33209228515625
1759564987704,75319416,8376,2,-0.903076171875,-0.38800048828125,-0.34014892578125
1759564987704,75319416,8376,3,-0.914306640625,-0.39288330078125,-0.33721923828125
1759564987704,75319416,8376,4,-0.90771484375,-0.38873291015625,-0.33355712890625
1759564987704,75319416,8376,5,-0.9072265625,-0.39166259765625,-0.33795166015625
1759564987704,75319416,8376,6,-0.9033203125,-0.38800048828125,-0.31646728515625
1759564987704,75319416,8376,7,-0.923828125,-0.39044189453125,-0.33966064453125
1759564987704,75319416,8376,8,-0.91796875,-0.38531494140625,-0.32696533203125
1759564987704,75319416,8376,9,-0.91357421875,-0.37139892578125,-0.32574462890625
1759564987704,75319416,8376,10,-0.915283203125,-0.36871337890625,-0.34747314453125
1759564987704,75319416,8376,11,-0.916015625,-0.36798095703125,-0.35333251953125
1759564987704,75319416,8376,12,-0.90869140625,-0.39190673828125,-0.30133056640625
1759564987704,75319416,8376,13,-0.91357421875,-0.37432861328125,-0.31597900390625
1759564987704,75319416,8376,14,-0.924560546875,-0.37921142578125,-0.32745361328125
1759564987704,75319416,8376,15,-0.924560546875,-0.37579345703125,-0.32672119140625
1759564987704,75319416,8376,16,-0.925537109375,-0.36651611328125,-0.33453369140625
1759564987704,75319416,8376,17,-0.90576171875,-0.36627197265625,-0.32843017578125
1759564987704,75319416,8376,18,-0.912353515625,-0.37139892578125,-0.34722900390625
1759564987704,75319416,8376,19,-0.93603515625,-0.36724853515625,-0.30938720703125
1759564987704,75319416,8376,20,-0.94580078125,-0.36700439453125,-0.32501220703125
1759564987704,75319416,8376,21,-0.915283203125,-0.35504150390625,-0.29962158203125
1759564987704,75319416,8376,22,-0.921875,-0.36187744140625,-0.31622314453125
1759564987704,75319416,8376,23,-0.91064453125,-0.36749267578125,-0.32769775390625
1759564987704,75319416,8376,24,-0.92822265625,-0.37188720703125,-0.33502197265625
1759564987704,75319416,8376,25,-0.92822265625,-0.36846923828125,-0.34332275390625
1759564987704,75319416,8376,26,-0.896240234375,-0.38189697265625,-0.28619384765625
1759564987704,75319416,8376,27,-0.9404296875,-0.37847900390625,-0.31256103515625
1759564987704,75319416,8376,28,-0.931640625,-0.36016845703125,-0.31842041015625
1759564987704,75319416,8376,29,-0.92431640625,-0.36358642578125,-0.34454345703125
1759564987704,75319416,8376,30,-0.900390625,-0.37628173828125,-0.31134033203125
1759564987704,75319416,8376,31,-0.92236328125,-0.36846923828125,-0.33551025390625
1759564990238,75321983,8377,0,-0.93310546875,-0.38482666015625,-0.30694580078125
1759564990238,75321983,8377,1,-0.934814453125,-0.37750244140625,-0.28765869140625
1759564990238,75321983,8377,2,-0.923828125,-0.36993408203125,-0.30987548828125
1759564990238,75321983,8377,3,-0.91162109375,-0.37603759765625,-0.29693603515625
1759564990238,75321983,8377,4,-0.90673828125,-0.38385009765625,-0.31719970703125
1759564990238,75321983,8377,5,-0.944091796875,-0.38824462890625,-0.29718017578125
1759564990238,75321983,8377,6,-0.925537109375,-0.39337158203125,-0.27447509765625
1759564990238,75321983,8377,7,-0.918212890625,-0.38702392578125,-0.27984619140625
1759564990238,75321983,8377,8,-0.919189453125,-0.38214111328125,-0.30816650390625
1759564990238,75321983,8377,9,-0.9140625,-0.38604736328125,-0.30377197265625
1759564990238,75321983,8377,10,-0.91845703125,-0.39581298828125,-0.30938720703125
1759564990238,75321983,8377,11,-0.91748046875,-0.38214111328125,-0.29986572265625
1759564990238,75321983,8377,12,-0.932861328125,-0.39312744140625,-0.29791259765625
1759564990238,75321983,8377,13,-0.9248046875,-0.38043212890625,-0.29791259765625
1759564990238,75321983,8377,14,-0.92041015625,-0.37384033203125,-0.32354736328125
1759564990238,75321983,8377,15,-0.911376953125,-0.38018798828125,-0.31134033203125
1759564990238,75321983,8377,16,-0.90966796875,-0.39434814453125,-0.29083251953125
1759564990238,75321983,8377,17,-0.928466796875,-0.38140869140625,-0.31036376953125
1759564990238,75321983,8377,18,-0.931884765625,-0.39288330078125,-0.30426025390625
1759564990238,75321983,8377,19,-0.9189453125,-0.36773681640625,-0.29718017578125
1759564990238,75321983,8377,20,-0.923828125,-0.37359619140625,-0.32281494140625
1759564990238,75321983,8377,21,-0.892333984375,-0.38458251953125,-0.29498291015625
1759564990238,75321983,8377,22,-0.926025390625,-0.38385009765625,-0.30841064453125
1759564990238,75321983,8377,23,-0.934326171875,-0.37799072265625,-0.31036376953125
1759564990238,75321983,8377,24,-0.92626953125,-0.37921142578125,-0.31158447265625
1759564990238,75321983,8377,25,-0.918701171875,-0.36407470703125,-0.30108642578125
1759564990238,75321983,8377,26,-0.9296875,-0.36822509765625,-0.32452392578125
1759564990238,75321983,8377,27,-0.902099609375,-0.38287353515625,-0.28790283203125
1759564990238,75321983,8377,28,-0.930908203125,-0.38604736328125,-0.31744384765625
1759564990238,75321983,8377,29,-0.93310546875,-0.37652587890625,-0.33673095703125
1759564990238,75321983,8377,30,-0.91162109375,-0.38677978515625,-0.29986572265625
1759564990238,75321983,8377,31,-0.90576171875,-0.37896728515625,-0.30767822265625
1759564992771,75324550,8378,0,-0.912841796875,-0.38287353515625,-0.31329345703125
1759564992771,75324550,8378,1,-0.92431640625,-0.38848876953125,-0.31646728515625
1759564992771,75324550,8378,2,-0.919921875,-0.39239501953125,-0.31719970703125
1759564992771,75324550,8378,3,-0.9091796875,-0.38092041015625,-0.30133056640625
1759564992771,75324550,8378,4,-0.9169921875,-0.38922119140625,-0.29693603515625
1759564992771,75324550,8378,5,-0.924072265625,-0.37384033203125,-0.33135986328125
1759564992771,75324550,8378,6,-0.93505859375,-0.36920166015625,-0.34234619140625
1759564992771,75324550,8378,7,-0.917236328125,-0.36505126953125,-0.34405517578125
1759564992771,75324550,8378,8,-0.9033203125,-0.38604736328125,-0.29034423828125
1759564992771,75324550,8378,9,-0.92041015625,-0.37139892578125,-0.32916259765625
1759564992771,75324550,8378,10,-0.92578125,-0.38653564453125,-0.32281494140625
1759564992771,75324550,8378,11,-0.9169921875,-0.39312744140625,-0.32012939453125
1759564992771,75324550,8378,12,-0.90625,-0.39776611328125,-0.30377197265625
1759564992771,75324550,8378,13,-0.910888671875,-0.38970947265625,-0.31256103515625
1759564992771,75324550,8378,14,-0.9169921875,-0.39556884765625,-0.32086181640625
1759564992771,75324550,8378,15,-0.913330078125,-0.39996337890625,-0.31622314453125
1759564992771,75324550,8378,16,-0.9072265625,-0.39337158203125,-0.30010986328125
1759564992771,75324550,8378,17,-0.908935546875,-0.39654541015625,-0.28863525390625
1759564992771,75324550,8378,18,-0.928955078125,-0.37652587890625,-0.34356689453125
1759564992771,75324550,8378,19,-0.92529296875,-0.35699462890625,-0.35748291015625
1759564992771,75324550,8378,20,-0.921875,-0.36236572265625,-0.35406494140625
1759564992771,75324550,8378,21,-0.906494140625,-0.38726806640625,-0.31207275390625
1759564992771,75324550,8378,22,-0.9111328125,-0.38629150390625,-0.32696533203125
1759564992771,75324550,8378,23,-0.90869140625,-0.38604736328125,-0.33331298828125
1759564992771,75324550,8378,24,-0.908935546875,-0.39141845703125,-0.33966064453125
1759564992771,75324550,8378,25,-0.909912109375,-0.39923095703125,-0.32598876953125
1759564992771,75324550,8378,26,-0.90869140625,-0.39385986328125,-0.32208251953125
1759564992771,75324550,8378,27,-0.905517578125,-0.39459228515625,-0.33306884765625
1759564992771,75324550,8378,28,-0.908203125,-0.39337158203125,-0.32086181640625
1759564992771,75324550,8378,29,-0.90625,-0.39410400390625,-0.32037353515625
1759564992771,75324550,8378,30,-0.93408203125,-0.38116455078125,-0.34942626953125
1759564992771,75324550,8378,31,-0.923095703125,-0.36285400390625,-0.34356689453125
1759564995307,75327117,8379,0,-0.91943359375,-0.35650634765625,-0.35113525390625
1759564995307,75327117,8379,1,-0.9013671875,-0.37457275390625,-0.30767822265625
1759564995307,75327117,8379,2,-0.916748046875,-0.38946533203125,-0.31060791015625
1759564995307,75327117,8379,3,-0.911865234375,-0.39556884765625,-0.34356689453125
1759564995307,75327117,8379,4,-0.90966796875,-0.39239501953125,-0.33135986328125
1759564995307,75327117,8379,5,-0.90771484375,-0.38922119140625,-0.31036376953125
1759564995307,75327117,8379,6,-0.908935546875,-0.39239501953125,-0.32843017578125
1759564995307,75327117,8379,7,-0.91015625,-0.39263916015625,-0.32989501953125
1759564995307,75327117,8379,8,-0.907470703125,-0.39556884765625,-0.32672119140625
1759564995307,75327117,8379,9,-0.914306640625,-0.39337158203125,-0.32208251953125
1759564995307,75327117,8379,10,-0.9189453125,-0.36700439453125,-0.34796142578125
1759564995307,75327117,8379,11,-0.928955078125,-0.36236572265625,-0.35919189453125
1759564995307,75327117,8379,12,-0.919921875,-0.35772705078125,-0.36090087890625
1759564995307,75327117,8379,13,-0.904052734375,-0.40289306640625,-0.28472900390625
1759564995307,75327117,8379,14,-0.907958984375,-0.38580322265625,-0.32818603515625
1759564995307,75327117,8379,15,-0.909423828125,-0.39703369140625,-0.33648681640625
1759564995307,75327117,8379,16,-0.91943359375,-0.39508056640625,-0.32330322265625
1759564995307,75327117,8379,17,-0.9130859375,-0.40338134765625,-0.31890869140625
1759564995307,75327117,8379,18,-0.9013671875,-0.39141845703125,-0.32550048828125
1759564995307,75327117,8379,19,-0.908447265625,-0.39117431640625,-0.32574462890625
1759564995307,75327117,8379,20,-0.91748046875,-0.40118408203125,-0.30816650390625
1759564995307,75327117,8379,21,-0.919189453125,-0.36993408203125,-0.34136962890625
1759564995307,75327117,8379,22,-0.925048828125,-0.35723876953125,-0.36480712890625
1759564995307,75327117,8379,23,-0.91748046875,-0.35943603515625,-0.36285400390625
1759564995307,75327117,8379,24,-0.905517578125,-0.39337158203125,-0.29620361328125
1759564995307,75327117,8379,25,-0.912109375,-0.38580322265625,-0.32891845703125
1759564995307,75327117,8379,26,-0.907470703125,-0.38604736328125,-0.33013916015625
1759564995307,75327117,8379,27,-0.91748046875,-0.38848876953125,-0.32843017578125
1759564995307,75327117,8379,28,-0.914794921875,-0.39434814453125,-0.32769775390625
1759564995307,75327117,8379,29,-0.906982421875,-0.38824462890625,-0.32427978515625
1759564995307,75327117,8379,30,-0.908203125,-0.38751220703125,-0.32135009765625
1759564995307,75327117,8379,31,-0.906982421875,-0.39044189453125,-0.31793212890625
1759564997844,75329684,8380,0,-0.918701171875,-0.38555908203125,-0.33233642578125
1759564997844,75329684,8380,1,-0.916015625,-0.36920166015625,-0.35943603515625
1759564997844,75329684,8380,2,-0.916259765625,-0.37188720703125,-0.36334228515625
1759564997844,75329684,8380,3,-0.90576171875,-0.38385009765625,-0.31304931640625
1759564997844,75329684,8380,4,-0.9189453125,-0.39215087890625,-0.33233642578125
1759564997844,75329684,8380,5,-0.922119140625,-0.37872314453125,-0.31402587890625
1759564997844,75329684,8380,6,-0.91552734375,-0.37237548828125,-0.30255126953125
1759564997844,75329684,8380,7,-0.913818359375,-0.37554931640625,-0.30572509765625
1759564997844,75329684,8380,8,-0.918701171875,-0.37579345703125,-0.33502197265625
1759564997844,75329684,8380,9,-0.91796875,-0.38043212890625,-0.31158447265625
1759564997844,75329684,8380,10,-0.927490234375,-0.38214111328125,-0.31695556640625
1759564997844,75329684,8380,11,-0.919921875,-0.34771728515625,-0.34503173828125
1759564997844,75329684,8380,12,-0.918212890625,-0.35211181640625,-0.35845947265625
1759564997844,75329684,8380,13,-0.920654296875,-0.36383056640625,-0.34844970703125
1759564997844,75329684,8380,14,-0.907470703125,-0.38458251953125,-0.29425048828125
1759564997844,75329684,8380,15,-0.9296875,-0.36968994140625,-0.30987548828125
1759564997844,75329684,8380,16,-0.917236328125,-0.36724853515625,-0.34576416015625
1759564997844,75329684,8380,17,-0.9228515625,-0.35845947265625,-0.38751220703125
1759564997844,75329684,8380,18,-0.928955078125,-0.37261962890625,-0.29693603515625
1759564997844,75329684,8380,19,-0.9130859375,-0.39166259765625,-0.30181884765625
1759564997844,75329684,8380,20,-0.9091796875,-0.38385009765625,-0.34112548828125
1759564997844,75329684,8380,21,-0.93017578125,-0.38287353515625,-0.31866455078125
1759564997844,75329684,8380,22,-0.910888671875,-0.39654541015625,-0.27447509765625
1759564997844,75329684,8380,23,-0.9150390625,-0.37872314453125,-0.26715087890625
1759564997844,75329684,8380,24,-0.956298828125,-0.39776611328125,-0.31427001953125
1759564997844,75329684,8380,25,-0.931640625,-0.37530517578125,-0.35162353515625
1759564997844,75329684,8380,26,-0.932373046875,-0.37139892578125,-0.35211181640625
1759564997844,75329684,8380,27,-0.902587890625,-0.38800048828125,-0.31085205078125
1759564997844,75329684,8380,28,-0.904052734375,-0.40020751953125,-0.29473876953125
1759564997844,75329684,8380,29,-0.917236328125,-0.37799072265625,-0.30816650390625
1759564997844,75329684,8380,30,-0.94140625,-0.38262939453125,-0.36431884765625
1759564997844,75329684,8380,31,-0.912841796875,-0.38677978515625,-0.33331298828125
1759565000571,75332251,8381,0,-0.884521484375,-0.40704345703125,-0.27081298828125
1759565000571,75332251,8381,1,-0.90087890625,-0.37823486328125,-0.32257080078125
1759565000571,75332251,8381,2,-0.92431640625,-0.37579345703125,-0.34820556640625
1759565000571,75332251,8381,3,-0.947021484375,-0.37091064453125,-0.37115478515625
1759565000571,75332251,8381,4,-0.90625,-0.38653564453125,-0.32183837890625
1759565000571,75332251,8381,5,-0.873779296875,-0.39117431640625,-0.28326416015625
1759565000571,75332251,8381,6,-0.9130859375,-0.37677001953125,-0.32818603515625
1759565000571,75332251,8381,7,-0.94287109375,-0.37725830078125,-0.36334228515625
1759565000571,75332251,8381,8,-0.93408203125,-0.36871337890625,-0.36651611328125
1759565000571,75332251,8381,9,-0.89404296875,-0.39019775390625,-0.33087158203125
1759565000571,75332251,8381,10,-0.890625,-0.39727783203125,-0.29791259765625
1759565000571,75332251,8381,11,-0.915283203125,-0.38726806640625,-0.33599853515625
1759565000571,75332251,8381,12,-0.91162109375,-0.40142822265625,-0.33551025390625
1759565000571,75332251,8381,13,-0.90966796875,-0.39605712890625,-0.35137939453125
1759565000571,75332251,8381,14,-0.892578125,-0.40045166015625,-0.32135009765625
1759565000571,75332251,8381,15,-0.899169921875,-0.38995361328125,-0.32012939453125
1759565000571,75332251,8381,16,-0.9228515625,-0.40142822265625,-0.30279541015625
1759565000571,75332251,8381,17,-0.924560546875,-0.39239501953125,-0.33428955078125
1759565000571,75332251,8381,18,-0.918212890625,-0.36456298828125,-0.35382080078125
1759565000571,75332251,8381,19,-0.914306640625,-0.36798095703125,-0.37603759765625
1759565000571,75332251,8381,20,-0.903564453125,-0.39874267578125,-0.29302978515625
1759565000571,75332251,8381,21,-0.906982421875,-0.39678955078125,-0.31890869140625
1759565000571,75332251,8381,22,-0.8974609375,-0.40679931640625,-0.31109619140625
1759565000571,75332251,8381,23,-0.91552734375,-0.39532470703125,-0.33453369140625
1759565000571,75332251,8381,24,-0.90673828125,-0.40118408203125,-0.28790283203125
1759565000571,75332251,8381,25,-0.931884765625,-0.40264892578125,-0.30450439453125
1759565000571,75332251,8381,26,-0.899658203125,-0.35943603515625,-0.36163330078125
1759565000571,75332251,8381,27,-0.927734375,-0.36334228515625,-0.37188720703125
1759565000571,75332251,8381,28,-0.923828125,-0.37579345703125,-0.37310791015625
1759565000571,75332251,8381,29,-0.88818359375,-0.39605712890625,-0.31427001953125
1759565000571,75332251,8381,30,-0.89599609375,-0.38946533203125,-0.33258056640625
1759565000571,75332251,8381,31,-0.90673828125,-0.39605712890625,-0.33697509765625
1759565003108,75334818,8382,0,-0.90869140625,-0.39068603515625,-0.35650634765625
1759565003108,75334818,8382,1,-0.898193359375,-0.39459228515625,-0.34356689453125
1759565003108,75334818,8382,2,-0.903076171875,-0.38995361328125,-0.34674072265625
1759565003108,75334818,8382,3,-0.90673828125,-0.37384033203125,-0.35772705078125
1759565003108,75334818,8382,4,-0.908203125,-0.35797119140625,-0.39141845703125
1759565003108,75334818,8382,5,-0.916015625,-0.36798095703125,-0.38360595703125
1759565003108,75334818,8382,6,-0.893798828125,-0.38482666015625,-0.35552978515625
1759565003108,75334818,8382,7,-0.898681640625,-0.36871337890625,-0.35504150390625
1759565003108,75334818,8382,8,-0.90673828125,-0.39117431640625,-0.34942626953125
1759565003108,75334818,8382,9,-0.9130859375,-0.38043212890625,-0.37432861328125
1759565003108,75334818,8382,10,-0.904541015625,-0.39654541015625,-0.33819580078125
1759565003108,75334818,8382,11,-0.895263671875,-0.37603759765625,-0.33770751953125
1759565003108,75334818,8382,12,-0.91064453125,-0.38580322265625,-0.34259033203125
1759565003108,75334818,8382,13,-0.91552734375,-0.37896728515625,-0.37872314453125
1759565003108,75334818,8382,14,-0.920166015625,-0.36846923828125,-0.37384033203125
1759565003108,75334818,8382,15,-0.91455078125,-0.36651611328125,-0.37408447265625
1759565003108,75334818,8382,16,-0.89013671875,-0.40240478515625,-0.32769775390625
1759565003108,75334818,8382,17,-0.8984375,-0.38238525390625,-0.35040283203125
1759565003108,75334818,8382,18,-0.90771484375,-0.40826416015625,-0.32257080078125
1759565003108,75334818,8382,19,-0.911865234375,-0.38824462890625,-0.35357666015625
1759565003108,75334818,8382,20,-0.90869140625,-0.39825439453125,-0.32745361328125
1759565003108,75334818,8382,21,-0.89794921875,-0.38897705078125,-0.31744384765625
1759565003108,75334818,8382,22,-0.9130859375,-0.40093994140625,-0.31744384765625
1759565003108,75334818,8382,23,-0.90185546875,-0.37091064453125,-0.37384033203125
1759565003108,75334818,8382,24,-0.924072265625,-0.36407470703125,-0.37335205078125
1759565003108,75334818,8382,25,-0.91943359375,-0.37139892578125,-0.35015869140625
1759565003108,75334818,8382,26,-0.89453125,-0.40728759765625,-0.29498291015625
1759565003108,75334818,8382,27,-0.893798828125,-0.39727783203125,-0.33502197265625
1759565003108,75334818,8382,28,-0.907958984375,-0.39337158203125,-0.31451416015625
1759565003108,75334818,8382,29,-0.927001953125,-0.40191650390625,-0.31964111328125
1759565003108,75334818,8382,30,-0.90673828125,-0.37188720703125,-0.33526611328125
1759565003108,75334818,8382,31,-0.925048828125,-0.35968017578125,-0.36944580078125
