receivedPhoneTimestamp,respeckTimestamp,packetSeqNum,sampleSeqNum,accelX,accelY,accelZ
1760221376944,1345083583,21068,16,0.81298828125,-0.24761962890625,0.46405029296875
1760221376944,1345083583,21068,17,0.77490234375,-0.25958251953125,0.45843505859375
1760221376944,1345083583,21068,18,0.78662109375,-0.24981689453125,0.46282958984375
1760221376944,1345083583,21068,19,0.791259765625,-0.24517822265625,0.46917724609375
1760221376944,1345083583,21068,20,0.8046875,-0.24859619140625,0.46405029296875
1760221376944,1345083583,21068,21,0.79833984375,-0.24884033203125,0.45574951171875
1760221376944,1345083583,21068,22,0.790771484375,-0.24981689453125,0.45892333984375
1760221376944,1345083583,21068,23,0.79345703125,-0.24713134765625,0.44671630859375
1760221376944,1345083583,21068,24,0.8046875,-0.24688720703125,0.44158935546875
1760221376944,1345083583,21068,25,0.814697265625,-0.23858642578125,0.43817138671875
1760221376944,1345083583,21068,26,0.79833984375,-0.25250244140625,0.42547607421875
1760221376944,1345083583,21068,27,0.8046875,-0.27593994140625,0.43255615234375
1760221376944,1345083583,21068,28,0.802001953125,-0.25787353515625,0.43304443359375
1760221376944,1345083583,21068,29,0.816650390625,-0.23931884765625,0.42669677734375
1760221376944,1345083583,21068,30,0.806396484375,-0.25958251953125,0.42816162109375
1760221376944,1345083583,21068,31,0.80322265625,-0.26007080078125,0.43084716796875
1760221379482,1345086102,21069,0,0.80419921875,-0.25421142578125,0.43817138671875
1760221379482,1345086102,21069,1,0.802490234375,-0.26202392578125,0.45257568359375
1760221379482,1345086102,21069,2,0.80419921875,-0.24639892578125,0.43011474609375
1760221379482,1345086102,21069,3,0.80322265625,-0.26275634765625,0.44256591796875
1760221379482,1345086102,21069,4,0.8154296875,-0.24859619140625,0.44158935546875
1760221379482,1345086102,21069,5,0.794189453125,-0.23345947265625,0.44476318359375
1760221379482,1345086102,21069,6,0.794189453125,-0.24835205078125,0.44989013671875
1760221379482,1345086102,21069,7,0.80224609375,-0.24639892578125,0.44720458984375
1760221379482,1345086102,21069,8,0.803466796875,-0.24517822265625,0.44403076171875
1760221379482,1345086102,21069,9,0.7978515625,-0.25103759765625,0.45233154296875
1760221379482,1345086102,21069,10,0.800048828125,-0.24639892578125,0.45086669921875
1760221379482,1345086102,21069,11,0.7958984375,-0.24176025390625,0.44378662109375
1760221379482,1345086102,21069,12,0.80126953125,-0.25274658203125,0.44793701171875
1760221379482,1345086102,21069,13,0.802490234375,-0.24005126953125,0.44696044921875
1760221379482,1345086102,21069,14,0.798095703125,-0.24420166015625,0.45086669921875
1760221379482,1345086102,21069,15,0.798583984375,-0.24713134765625,0.44598388671875
1760221379482,1345086102,21069,16,0.802490234375,-0.24786376953125,0.44866943359375
1760221379482,1345086102,21069,17,0.80224609375,-0.24346923828125,0.44403076171875
1760221379482,1345086102,21069,18,0.800537109375,-0.24444580078125,0.44403076171875
1760221379482,1345086102,21069,19,0.79931640625,-0.24810791015625,0.44354248046875
1760221379482,1345086102,21069,20,0.801025390625,-0.24542236328125,0.45526123046875
1760221379482,1345086102,21069,21,0.799072265625,-0.23052978515625,0.44696044921875
1760221379482,1345086102,21069,22,0.794189453125,-0.23931884765625,0.45013427734375
1760221379482,1345086102,21069,23,0.801025390625,-0.24151611328125,0.44891357421875
1760221379482,1345086102,21069,24,0.798828125,-0.23907470703125,0.45062255859375
1760221379482,1345086102,21069,25,0.79931640625,-0.24176025390625,0.45428466796875
1760221379482,1345086102,21069,26,0.796630859375,-0.24737548828125,0.45355224609375
1760221379482,1345086102,21069,27,0.80712890625,-0.24102783203125,0.44671630859375
1760221379482,1345086102,21069,28,0.802001953125,-0.24346923828125,0.44573974609375
1760221379482,1345086102,21069,29,0.798828125,-0.24249267578125,0.44720458984375
1760221379482,1345086102,21069,30,0.80224609375,-0.24224853515625,0.44549560546875
1760221379482,1345086102,21069,31,0.8076171875,-0.24639892578125,0.44158935546875
1760221382186,1345088621,21070,0,0.802978515625,-0.23956298828125,0.44329833984375
1760221382186,1345088621,21070,1,0.804443359375,-0.24835205078125,0.44378662109375
1760221382186,1345088621,21070,2,0.8037109375,-0.24200439453125,0.43695068359375
1760221382186,1345088621,21070,3,0.806640625,-0.23809814453125,0.43206787109375
1760221382186,1345088621,21070,4,0.810546875,-0.24981689453125,0.43426513671875
1760221382186,1345088621,21070,5,0.8134765625,-0.24444580078125,0.43255615234375
1760221382186,1345088621,21070,6,0.8115234375,-0.25201416015625,0.43963623046875
1760221382186,1345088621,21070,7,0.8232421875,-0.24517822265625,0.43280029296875
1760221382186,1345088621,21070,8,0.821533203125,-0.24761962890625,0.41790771484375
1760221382186,1345088621,21070,9,0.814697265625,-0.25885009765625,0.41766357421875
1760221382186,1345088621,21070,10,0.823486328125,-0.24005126953125,0.40838623046875
1760221382186,1345088621,21070,11,0.815673828125,-0.23980712890625,0.40765380859375
1760221382186,1345088621,21070,12,0.807373046875,-0.24102783203125,0.40008544921875
1760221382186,1345088621,21070,13,0.806396484375,-0.26055908203125,0.42547607421875
1760221382186,1345088621,21070,14,0.81982421875,-0.25836181640625,0.43084716796875
1760221382186,1345088621,21070,15,0.81591796875,-0.25177001953125,0.42205810546875
1760221382186,1345088621,21070,16,0.8076171875,-0.25079345703125,0.42694091796875
1760221382186,1345088621,21070,17,0.79931640625,-0.26300048828125,0.43084716796875
1760221382186,1345088621,21070,18,0.81005859375,-0.25347900390625,0.42767333984375
1760221382186,1345088621,21070,19,0.8203125,-0.26104736328125,0.42791748046875
1760221382186,1345088621,21070,20,0.808349609375,-0.24249267578125,0.42327880859375
1760221382186,1345088621,21070,21,0.805908203125,-0.25201416015625,0.43475341796875
1760221382186,1345088621,21070,22,0.812255859375,-0.25079345703125,0.43231201171875
1760221382186,1345088621,21070,23,0.81396484375,-0.25396728515625,0.43182373046875
1760221382186,1345088621,21070,24,0.80322265625,-0.24786376953125,0.43475341796875
1760221382186,1345088621,21070,25,0.793701171875,-0.23590087890625,0.44989013671875
1760221382186,1345088621,21070,26,0.810546875,-0.23883056640625,0.44354248046875
1760221382186,1345088621,21070,27,0.824462890625,-0.25103759765625,0.42987060546875
1760221382186,1345088621,21070,28,0.806396484375,-0.25616455078125,0.43402099609375
1760221382186,1345088621,21070,29,0.819580078125,-0.23199462890625,0.43695068359375
1760221382186,1345088621,21070,30,0.790771484375,-0.26153564453125,0.42938232421875
1760221382186,1345088621,21070,31,0.796630859375,-0.24517822265625,0.43743896484375
1760221384550,1345091140,21071,0,0.806640625,-0.24273681640625,0.44818115234375
1760221384550,1345091140,21071,1,0.82861328125,-0.24981689453125,0.42230224609375
1760221384550,1345091140,21071,2,0.801025390625,-0.25177001953125,0.43475341796875
1760221384550,1345091140,21071,3,0.81689453125,-0.24420166015625,0.44085693359375
1760221384550,1345091140,21071,4,0.798583984375,-0.24786376953125,0.42816162109375
1760221384550,1345091140,21071,5,0.812255859375,-0.25372314453125,0.43402099609375
1760221384550,1345091140,21071,6,0.803955078125,-0.24273681640625,0.43939208984375
1760221384550,1345091140,21071,7,0.801025390625,-0.24493408203125,0.42962646484375
1760221384550,1345091140,21071,8,0.81787109375,-0.25714111328125,0.43695068359375
1760221384550,1345091140,21071,9,0.806640625,-0.23931884765625,0.43597412109375
1760221384550,1345091140,21071,10,0.8056640625,-0.24176025390625,0.43377685546875
1760221384550,1345091140,21071,11,0.802734375,-0.25469970703125,0.43621826171875
1760221384550,1345091140,21071,12,0.8125,-0.24346923828125,0.43426513671875
1760221384550,1345091140,21071,13,0.806884765625,-0.23907470703125,0.43939208984375
1760221384550,1345091140,21071,14,0.7958984375,-0.24591064453125,0.43817138671875
1760221384550,1345091140,21071,15,0.82763671875,-0.25347900390625,0.42669677734375
1760221384550,1345091140,21071,16,0.802978515625,-0.24322509765625,0.43768310546875
1760221384550,1345091140,21071,17,0.80908203125,-0.24224853515625,0.44012451171875
1760221384550,1345091140,21071,18,0.7978515625,-0.24517822265625,0.43475341796875
1760221384550,1345091140,21071,19,0.813720703125,-0.24346923828125,0.44256591796875
1760221384550,1345091140,21071,20,0.807861328125,-0.24713134765625,0.43182373046875
1760221384550,1345091140,21071,21,0.821044921875,-0.24591064453125,0.42791748046875
1760221384550,1345091140,21071,22,0.808837890625,-0.23712158203125,0.43646240234375
1760221384550,1345091140,21071,23,0.79931640625,-0.24859619140625,0.43280029296875
1760221384550,1345091140,21071,24,0.818115234375,-0.25225830078125,0.43353271484375
1760221384550,1345091140,21071,25,0.8310546875,-0.25225830078125,0.44110107421875
1760221384550,1345091140,21071,26,0.8271484375,-0.23565673828125,0.39935302734375
1760221384550,1345091140,21071,27,0.81689453125,-0.25738525390625,0.41448974609375
1760221384550,1345091140,21071,28,0.813232421875,-0.24786376953125,0.39739990234375
1760221384550,1345091140,21071,29,0.82177734375,-0.23736572265625,0.39788818359375
1760221384550,1345091140,21071,30,0.82666015625,-0.25079345703125,0.38983154296875
1760221384550,1345091140,21071,31,0.8154296875,-0.26470947265625,0.41693115234375
1760221387085,1345093659,21072,0,0.8125,-0.25836181640625,0.41595458984375
1760221387085,1345093659,21072,1,0.8271484375,-0.25738525390625,0.42132568359375
1760221387085,1345093659,21072,2,0.812255859375,-0.26055908203125,0.41790771484375
1760221387085,1345093659,21072,3,0.814453125,-0.25592041015625,0.41595458984375
1760221387085,1345093659,21072,4,0.81689453125,-0.25640869140625,0.41033935546875
1760221387085,1345093659,21072,5,0.819091796875,-0.26446533203125,0.41351318359375
1760221387085,1345093659,21072,6,0.805908203125,-0.25836181640625,0.41693115234375
1760221387085,1345093659,21072,7,0.807861328125,-0.25421142578125,0.41912841796875
1760221387085,1345093659,21072,8,0.834228515625,-0.26373291015625,0.40545654296875
1760221387085,1345093659,21072,9,0.814697265625,-0.25567626953125,0.41448974609375
1760221387085,1345093659,21072,10,0.820068359375,-0.26129150390625,0.42083740234375
1760221387085,1345093659,21072,11,0.807373046875,-0.26324462890625,0.41839599609375
1760221387085,1345093659,21072,12,0.81982421875,-0.25445556640625,0.42156982421875
1760221387085,1345093659,21072,13,0.80908203125,-0.24884033203125,0.41473388671875
1760221387085,1345093659,21072,14,0.8330078125,-0.26104736328125,0.41009521484375
1760221387085,1345093659,21072,15,0.812744140625,-0.25714111328125,0.41766357421875
1760221387085,1345093659,21072,16,0.812744140625,-0.25177001953125,0.41839599609375
1760221387085,1345093659,21072,17,0.804931640625,-0.26031494140625,0.41546630859375
1760221387085,1345093659,21072,18,0.8173828125,-0.25811767578125,0.42034912109375
1760221387085,1345093659,21072,19,0.818115234375,-0.25445556640625,0.40887451171875
1760221387085,1345093659,21072,20,0.821044921875,-0.25909423828125,0.41864013671875
1760221387085,1345093659,21072,21,0.816650390625,-0.25225830078125,0.41790771484375
1760221387085,1345093659,21072,22,0.81396484375,-0.25518798828125,0.42864990234375
1760221387085,1345093659,21072,23,0.807861328125,-0.25347900390625,0.41741943359375
1760221387085,1345093659,21072,24,0.814697265625,-0.25006103515625,0.42645263671875
1760221387085,1345093659,21072,25,0.804443359375,-0.24932861328125,0.42645263671875
1760221387085,1345093659,21072,26,0.825927734375,-0.24859619140625,0.41961669921875
1760221387085,1345093659,21072,27,0.81103515625,-0.24981689453125,0.42498779296875
1760221387085,1345093659,21072,28,0.817626953125,-0.24395751953125,0.43817138671875
1760221387085,1345093659,21072,29,0.810546875,-0.25054931640625,0.42547607421875
1760221387085,1345093659,21072,30,0.816162109375,-0.24688720703125,0.43206787109375
1760221387085,1345093659,21072,31,0.817626953125,-0.25372314453125,0.42010498046875
1760221389808,1345096178,21073,0,0.8017578125,-0.24615478515625,0.40863037109375
1760221389808,1345096178,21073,1,0.82373046875,-0.24981689453125,0.41741943359375
1760221389808,1345096178,21073,2,0.821533203125,-0.25421142578125,0.42254638671875
1760221389808,1345096178,21073,3,0.822021484375,-0.24981689453125,0.42279052734375
1760221389808,1345096178,21073,4,0.7939453125,-0.24468994140625,0.44451904296875
1760221389808,1345096178,21073,5,0.806396484375,-0.24298095703125,0.43743896484375
1760221389808,1345096178,21073,6,0.798828125,-0.24566650390625,0.44036865234375
1760221389808,1345096178,21073,7,0.8037109375,-0.25030517578125,0.43743896484375
1760221389808,1345096178,21073,8,0.8046875,-0.23883056640625,0.44134521484375
1760221389808,1345096178,21073,9,0.798095703125,-0.23931884765625,0.43743896484375
1760221389808,1345096178,21073,10,0.82861328125,-0.25103759765625,0.42913818359375
1760221389808,1345096178,21073,11,0.79443359375,-0.24102783203125,0.45037841796875
1760221389808,1345096178,21073,12,0.820556640625,-0.22296142578125,0.44305419921875
1760221389808,1345096178,21073,13,0.7919921875,-0.23321533203125,0.42742919921875
1760221389808,1345096178,21073,14,0.811767578125,-0.24664306640625,0.44500732421875
1760221389808,1345096178,21073,15,0.80517578125,-0.23468017578125,0.45037841796875
1760221389808,1345096178,21073,16,0.80126953125,-0.22076416015625,0.43353271484375
1760221389808,1345096178,21073,17,0.812744140625,-0.24029541015625,0.43524169921875
1760221389808,1345096178,21073,18,0.794677734375,-0.22393798828125,0.42864990234375
1760221389808,1345096178,21073,19,0.83935546875,-0.22271728515625,0.43743896484375
1760221389808,1345096178,21073,20,0.84912109375,-0.23101806640625,0.42742919921875
1760221389808,1345096178,21073,21,0.81591796875,-0.24224853515625,0.42742919921875
1760221389808,1345096178,21073,22,0.77099609375,-0.20831298828125,0.44549560546875
1760221389808,1345096178,21073,23,0.79833984375,-0.19854736328125,0.42864990234375
1760221389808,1345096178,21073,24,0.851806640625,-0.23687744140625,0.43426513671875
1760221389808,1345096178,21073,25,0.830322265625,-0.24664306640625,0.40594482421875
1760221389808,1345096178,21073,26,0.86962890625,-0.22735595703125,0.38494873046875
1760221389808,1345096178,21073,27,0.8134765625,-0.22100830078125,0.41815185546875
1760221389808,1345096178,21073,28,0.78662109375,-0.22222900390625,0.44989013671875
1760221389808,1345096178,21073,29,0.802001953125,-0.22149658203125,0.43035888671875
1760221389808,1345096178,21073,30,0.84765625,-0.24517822265625,0.40911865234375
1760221389808,1345096178,21073,31,0.81103515625,-0.23492431640625,0.43377685546875
1760221392153,1345098697,21074,0,0.817138671875,-0.23052978515625,0.44207763671875
1760221392153,1345098697,21074,1,0.803466796875,-0.23492431640625,0.43865966796875
1760221392153,1345098697,21074,2,0.804443359375,-0.22882080078125,0.43939208984375
1760221392153,1345098697,21074,3,0.817138671875,-0.23468017578125,0.43402099609375
1760221392153,1345098697,21074,4,0.837158203125,-0.23248291015625,0.41522216796875
1760221392153,1345098697,21074,5,0.810546875,-0.23614501953125,0.42767333984375
1760221392153,1345098697,21074,6,0.823486328125,-0.23077392578125,0.42840576171875
1760221392153,1345098697,21074,7,0.812255859375,-0.23834228515625,0.41693115234375
1760221392153,1345098697,21074,8,0.8125,-0.23809814453125,0.42962646484375
1760221392153,1345098697,21074,9,0.8154296875,-0.22906494140625,0.42767333984375
1760221392153,1345098697,21074,10,0.831298828125,-0.23687744140625,0.40325927734375
1760221392153,1345098697,21074,11,0.821533203125,-0.24932861328125,0.42059326171875
1760221392153,1345098697,21074,12,0.83154296875,-0.23931884765625,0.41595458984375
1760221392153,1345098697,21074,13,0.81103515625,-0.24786376953125,0.40789794921875
1760221392153,1345098697,21074,14,0.821533203125,-0.24737548828125,0.41693115234375
1760221392153,1345098697,21074,15,0.82958984375,-0.24493408203125,0.41082763671875
1760221392153,1345098697,21074,16,0.840576171875,-0.24761962890625,0.39569091796875
1760221392153,1345098697,21074,17,0.820068359375,-0.24810791015625,0.40203857421875
1760221392153,1345098697,21074,18,0.83203125,-0.25323486328125,0.40716552734375
1760221392153,1345098697,21074,19,0.815185546875,-0.25347900390625,0.40447998046875
1760221392153,1345098697,21074,20,0.82763671875,-0.24761962890625,0.40472412109375
1760221392153,1345098697,21074,21,0.82568359375,-0.25152587890625,0.40155029296875
1760221392153,1345098697,21074,22,0.841552734375,-0.25152587890625,0.39154052734375
1760221392153,1345098697,21074,23,0.818603515625,-0.25274658203125,0.40594482421875
1760221392153,1345098697,21074,24,0.82568359375,-0.25250244140625,0.40545654296875
1760221392153,1345098697,21074,25,0.813232421875,-0.25640869140625,0.40155029296875
1760221392153,1345098697,21074,26,0.82763671875,-0.25177001953125,0.41180419921875
1760221392153,1345098697,21074,27,0.82080078125,-0.24713134765625,0.40277099609375
1760221392153,1345098697,21074,28,0.83642578125,-0.25933837890625,0.39764404296875
1760221392153,1345098697,21074,29,0.81591796875,-0.25225830078125,0.40350341796875
1760221392153,1345098697,21074,30,0.839599609375,-0.24957275390625,0.38372802734375
1760221392153,1345098697,21074,31,0.821044921875,-0.27276611328125,0.39642333984375
1760221394693,1345101216,21075,0,0.8271484375,-0.25958251953125,0.39886474609375
1760221394693,1345101216,21075,1,0.824462890625,-0.26495361328125,0.40692138671875
1760221394693,1345101216,21075,2,0.835205078125,-0.26226806640625,0.39642333984375
1760221394693,1345101216,21075,3,0.844970703125,-0.26568603515625,0.39300537109375
1760221394693,1345101216,21075,4,0.8115234375,-0.25738525390625,0.39447021484375
1760221394693,1345101216,21075,5,0.82666015625,-0.25445556640625,0.39886474609375
1760221394693,1345101216,21075,6,0.81005859375,-0.25714111328125,0.40277099609375
1760221394693,1345101216,21075,7,0.81103515625,-0.26080322265625,0.41229248046875
1760221394693,1345101216,21075,8,0.810302734375,-0.24395751953125,0.41619873046875
1760221394693,1345101216,21075,9,0.80419921875,-0.27056884765625,0.40838623046875
1760221394693,1345101216,21075,10,0.8447265625,-0.27593994140625,0.41351318359375
1760221394693,1345101216,21075,11,0.80810546875,-0.25616455078125,0.40130615234375
1760221394693,1345101216,21075,12,0.833251953125,-0.26519775390625,0.40716552734375
1760221394693,1345101216,21075,13,0.814697265625,-0.27471923828125,0.39520263671875
1760221394693,1345101216,21075,14,0.817138671875,-0.28375244140625,0.40350341796875
1760221394693,1345101216,21075,15,0.822509765625,-0.27032470703125,0.39691162109375
1760221394693,1345101216,21075,16,0.8173828125,-0.26641845703125,0.39202880859375
1760221394693,1345101216,21075,17,0.84326171875,-0.28131103515625,0.38104248046875
1760221394693,1345101216,21075,18,0.81689453125,-0.27471923828125,0.39739990234375
1760221394693,1345101216,21075,19,0.82958984375,-0.27227783203125,0.39398193359375
1760221394693,1345101216,21075,20,0.81982421875,-0.28302001953125,0.38861083984375
1760221394693,1345101216,21075,21,0.829833984375,-0.28057861328125,0.39642333984375
1760221394693,1345101216,21075,22,0.82275390625,-0.26739501953125,0.38836669921875
1760221394693,1345101216,21075,23,0.835205078125,-0.27960205078125,0.38201904296875
1760221394693,1345101216,21075,24,0.821044921875,-0.27838134765625,0.39031982421875
1760221394693,1345101216,21075,25,0.835205078125,-0.27056884765625,0.38958740234375
1760221394693,1345101216,21075,26,0.82275390625,-0.27520751953125,0.38006591796875
1760221394693,1345101216,21075,27,0.830078125,-0.27642822265625,0.39276123046875
1760221394693,1345101216,21075,28,0.82373046875,-0.26983642578125,0.39129638671875
1760221394693,1345101216,21075,29,0.821044921875,-0.27130126953125,0.38226318359375
1760221394693,1345101216,21075,30,0.851806640625,-0.28717041015625,0.38250732421875
1760221394693,1345101216,21075,31,0.819091796875,-0.26715087890625,0.38470458984375
1760221397224,1345103735,21076,0,0.82275390625,-0.27105712890625,0.39984130859375
1760221397224,1345103735,21076,1,0.833984375,-0.27520751953125,0.38543701171875
1760221397224,1345103735,21076,2,0.829345703125,-0.27691650390625,0.38665771484375
1760221397224,1345103735,21076,3,0.81689453125,-0.26275634765625,0.39520263671875
1760221397224,1345103735,21076,4,0.83251953125,-0.26934814453125,0.38446044921875
1760221397224,1345103735,21076,5,0.845947265625,-0.27740478515625,0.37591552734375
1760221397224,1345103735,21076,6,0.823974609375,-0.26837158203125,0.38641357421875
1760221397224,1345103735,21076,7,0.82275390625,-0.27520751953125,0.39129638671875
1760221397224,1345103735,21076,8,0.82177734375,-0.27081298828125,0.38079833984375
1760221397224,1345103735,21076,9,0.838134765625,-0.27569580078125,0.38226318359375
1760221397224,1345103735,21076,10,0.839599609375,-0.27471923828125,0.37347412109375
1760221397224,1345103735,21076,11,0.822021484375,-0.26666259765625,0.38812255859375
1760221397224,1345103735,21076,12,0.8388671875,-0.27325439453125,0.38446044921875
1760221397224,1345103735,21076,13,0.8251953125,-0.27838134765625,0.37469482421875
1760221397224,1345103735,21076,14,0.830810546875,-0.27105712890625,0.39276123046875
1760221397224,1345103735,21076,15,0.828369140625,-0.26739501953125,0.38275146484375
1760221397224,1345103735,21076,16,0.845458984375,-0.27813720703125,0.37030029296875
1760221397224,1345103735,21076,17,0.83349609375,-0.27130126953125,0.38079833984375
1760221397224,1345103735,21076,18,0.83544921875,-0.26983642578125,0.37860107421875
1760221397224,1345103735,21076,19,0.821044921875,-0.27789306640625,0.37835693359375
1760221397224,1345103735,21076,20,0.8447265625,-0.28985595703125,0.38787841796875
1760221397224,1345103735,21076,21,0.85498046875,-0.26593017578125,0.36907958984375
1760221397224,1345103735,21076,22,0.8388671875,-0.25616455078125,0.35174560546875
1760221397224,1345103735,21076,23,0.832763671875,-0.28375244140625,0.38006591796875
1760221397224,1345103735,21076,24,0.83154296875,-0.25738525390625,0.36712646484375
1760221397224,1345103735,21076,25,0.824462890625,-0.25958251953125,0.35296630859375
1760221397224,1345103735,21076,26,0.83984375,-0.27105712890625,0.37396240234375
1760221397224,1345103735,21076,27,0.845947265625,-0.29327392578125,0.36883544921875
1760221397224,1345103735,21076,28,0.828369140625,-0.27545166015625,0.37225341796875
1760221397224,1345103735,21076,29,0.838623046875,-0.27178955078125,0.37322998046875
1760221397224,1345103735,21076,30,0.834228515625,-0.28741455078125,0.36785888671875
1760221397224,1345103735,21076,31,0.83837890625,-0.27764892578125,0.37908935546875
1760221399761,1345106254,21077,0,0.8359375,-0.27374267578125,0.36907958984375
1760221399761,1345106254,21077,1,0.8505859375,-0.28448486328125,0.35882568359375
1760221399761,1345106254,21077,2,0.834228515625,-0.28009033203125,0.36907958984375
1760221399761,1345106254,21077,3,0.8427734375,-0.27227783203125,0.36712646484375
1760221399761,1345106254,21077,4,0.831787109375,-0.28424072265625,0.35833740234375
1760221399761,1345106254,21077,5,0.83984375,-0.28765869140625,0.38031005859375
1760221399761,1345106254,21077,6,0.829833984375,-0.27398681640625,0.37762451171875
1760221399761,1345106254,21077,7,0.841796875,-0.26544189453125,0.35662841796875
1760221399761,1345106254,21077,8,0.848876953125,-0.29498291015625,0.37591552734375
1760221399761,1345106254,21077,9,0.832763671875,-0.26446533203125,0.37274169921875
1760221399761,1345106254,21077,10,0.829833984375,-0.27593994140625,0.37396240234375
1760221399761,1345106254,21077,11,0.83447265625,-0.28326416015625,0.37298583984375
1760221399761,1345106254,21077,12,0.838623046875,-0.27227783203125,0.38372802734375
1760221399761,1345106254,21077,13,0.826416015625,-0.26788330078125,0.37469482421875
1760221399761,1345106254,21077,14,0.845947265625,-0.28009033203125,0.36737060546875
1760221399761,1345106254,21077,15,0.824462890625,-0.27056884765625,0.38714599609375
1760221399761,1345106254,21077,16,0.83447265625,-0.26519775390625,0.39178466796875
1760221399761,1345106254,21077,17,0.82421875,-0.27252197265625,0.38446044921875
1760221399761,1345106254,21077,18,0.832275390625,-0.26812744140625,0.39666748046875
1760221399761,1345106254,21077,19,0.827880859375,-0.26593017578125,0.39910888671875
1760221399761,1345106254,21077,20,0.8388671875,-0.26495361328125,0.37786865234375
1760221399761,1345106254,21077,21,0.82080078125,-0.26568603515625,0.40570068359375
1760221399761,1345106254,21077,22,0.8349609375,-0.26202392578125,0.38909912109375
1760221399761,1345106254,21077,23,0.808837890625,-0.27154541015625,0.39007568359375
1760221399761,1345106254,21077,24,0.836669921875,-0.26495361328125,0.39447021484375
1760221399761,1345106254,21077,25,0.8310546875,-0.26275634765625,0.38616943359375
1760221399761,1345106254,21077,26,0.842041015625,-0.27691650390625,0.38226318359375
1760221399761,1345106254,21077,27,0.82568359375,-0.26129150390625,0.39154052734375
1760221399761,1345106254,21077,28,0.8330078125,-0.26910400390625,0.38934326171875
1760221399761,1345106254,21077,29,0.823486328125,-0.27154541015625,0.38665771484375
1760221399761,1345106254,21077,30,0.83544921875,-0.26837158203125,0.40155029296875
1760221399761,1345106254,21077,31,0.832763671875,-0.26031494140625,0.38714599609375
1760221402294,1345108773,21078,0,0.843505859375,-0.26788330078125,0.36834716796875
1760221402294,1345108773,21078,1,0.828369140625,-0.26763916015625,0.38616943359375
1760221402294,1345108773,21078,2,0.83056640625,-0.26300048828125,0.38861083984375
1760221402294,1345108773,21078,3,0.816162109375,-0.26715087890625,0.38031005859375
1760221402294,1345108773,21078,4,0.849365234375,-0.27447509765625,0.39154052734375
1760221402294,1345108773,21078,5,0.852294921875,-0.26275634765625,0.36981201171875
1760221402294,1345108773,21078,6,0.830810546875,-0.26495361328125,0.36419677734375
1760221402294,1345108773,21078,7,0.835205078125,-0.27618408203125,0.38250732421875
1760221402294,1345108773,21078,8,0.8447265625,-0.26153564453125,0.36346435546875
1760221402294,1345108773,21078,9,0.825439453125,-0.25250244140625,0.36566162109375
1760221402294,1345108773,21078,10,0.829345703125,-0.27593994140625,0.38934326171875
1760221402294,1345108773,21078,11,0.842529296875,-0.26861572265625,0.37322998046875
1760221402294,1345108773,21078,12,0.814697265625,-0.27984619140625,0.40277099609375
1760221402294,1345108773,21078,13,0.830078125,-0.26422119140625,0.39178466796875
1760221402294,1345108773,21078,14,0.8310546875,-0.26837158203125,0.38763427734375
1760221402294,1345108773,21078,15,0.8203125,-0.28033447265625,0.40667724609375
1760221402294,1345108773,21078,16,0.8291015625,-0.26959228515625,0.39227294921875
1760221402294,1345108773,21078,17,0.833984375,-0.26788330078125,0.38055419921875
1760221402294,1345108773,21078,18,0.84521484375,-0.28399658203125,0.37762451171875
1760221402294,1345108773,21078,19,0.824951171875,-0.26641845703125,0.38275146484375
1760221402294,1345108773,21078,20,0.83203125,-0.27032470703125,0.38494873046875
1760221402294,1345108773,21078,21,0.8271484375,-0.27740478515625,0.37835693359375
1760221402294,1345108773,21078,22,0.833740234375,-0.26763916015625,0.38690185546875
1760221402294,1345108773,21078,23,0.827392578125,-0.27130126953125,0.38031005859375
1760221402294,1345108773,21078,24,0.84716796875,-0.27838134765625,0.36663818359375
1760221402294,1345108773,21078,25,0.83056640625,-0.27496337890625,0.38275146484375
1760221402294,1345108773,21078,26,0.836181640625,-0.27325439453125,0.37225341796875
1760221402294,1345108773,21078,27,0.8232421875,-0.27935791015625,0.38104248046875
1760221402294,1345108773,21078,28,0.84375,-0.27667236328125,0.38104248046875
1760221402294,1345108773,21078,29,0.827880859375,-0.27130126953125,0.37615966796875
1760221402294,1345108773,21078,30,0.84033203125,-0.27496337890625,0.37713623046875
1760221402294,1345108773,21078,31,0.841552734375,-0.26788330078125,0.37860107421875
1760221404823,1345111292,21079,0,0.823974609375,-0.26861572265625,0.39154052734375
1760221404823,1345111292,21079,1,0.81982421875,-0.26617431640625,0.39056396484375
1760221404823,1345111292,21079,2,0.8271484375,-0.26348876953125,0.39324951171875
1760221404823,1345111292,21079,3,0.827392578125,-0.26593017578125,0.39764404296875
1760221404823,1345111292,21079,4,0.8359375,-0.27471923828125,0.38250732421875
1760221404823,1345111292,21079,5,0.82373046875,-0.26763916015625,0.39666748046875
1760221404823,1345111292,21079,6,0.830322265625,-0.26348876953125,0.39447021484375
1760221404823,1345111292,21079,7,0.822998046875,-0.26910400390625,0.39910888671875
1760221404823,1345111292,21079,8,0.8291015625,-0.27301025390625,0.40106201171875
1760221404823,1345111292,21079,9,0.810302734375,-0.26275634765625,0.41937255859375
1760221404823,1345111292,21079,10,0.8076171875,-0.25079345703125,0.41253662109375
1760221404823,1345111292,21079,11,0.8271484375,-0.26177978515625,0.41668701171875
1760221404823,1345111292,21079,12,0.83984375,-0.26641845703125,0.39886474609375
1760221404823,1345111292,21079,13,0.806640625,-0.24713134765625,0.41888427734375
1760221404823,1345111292,21079,14,0.80517578125,-0.24468994140625,0.41937255859375
1760221404823,1345111292,21079,15,0.828125,-0.25054931640625,0.41644287109375
1760221404823,1345111292,21079,16,0.810546875,-0.22882080078125,0.41864013671875
1760221404823,1345111292,21079,17,0.81201171875,-0.24127197265625,0.41156005859375
1760221404823,1345111292,21079,18,0.836181640625,-0.25689697265625,0.41204833984375
1760221404823,1345111292,21079,19,0.82080078125,-0.24420166015625,0.41400146484375
1760221404823,1345111292,21079,20,0.81201171875,-0.25299072265625,0.41571044921875
1760221404823,1345111292,21079,21,0.81298828125,-0.25347900390625,0.41424560546875
1760221404823,1345111292,21079,22,0.828369140625,-0.24810791015625,0.42645263671875
1760221404823,1345111292,21079,23,0.8115234375,-0.24591064453125,0.40911865234375
1760221404823,1345111292,21079,24,0.839111328125,-0.25592041015625,0.39739990234375
1760221404823,1345111292,21079,25,0.816162109375,-0.25079345703125,0.41424560546875
1760221404823,1345111292,21079,26,0.830078125,-0.24591064453125,0.40936279296875
1760221404823,1345111292,21079,27,0.804443359375,-0.25006103515625,0.40985107421875
1760221404823,1345111292,21079,28,0.834716796875,-0.24249267578125,0.41571044921875
1760221404823,1345111292,21079,29,0.82177734375,-0.24371337890625,0.39715576171875
1760221404823,1345111292,21079,30,0.830078125,-0.24981689453125,0.40594482421875
1760221404823,1345111292,21079,31,0.84228515625,-0.24810791015625,0.39031982421875
1760221407361,1345113811,21080,0,0.83447265625,-0.24346923828125,0.39398193359375
1760221407361,1345113811,21080,1,0.836181640625,-0.24761962890625,0.39544677734375
1760221407361,1345113811,21080,2,0.830078125,-0.24908447265625,0.39349365234375
1760221407361,1345113811,21080,3,0.8369140625,-0.24005126953125,0.39349365234375
1760221407361,1345113811,21080,4,0.836669921875,-0.24420166015625,0.39300537109375
1760221407361,1345113811,21080,5,0.8486328125,-0.24395751953125,0.38323974609375
1760221407361,1345113811,21080,6,0.834716796875,-0.23443603515625,0.38861083984375
