receivedPhoneTimestamp,respeckTimestamp,packetSeqNum,sampleSeqNum,accelX,accelY,accelZ
1759339162479,526987059,7500,16,0.881591796875,-0.16778564453125,0.34759521484375
1759339162479,526987059,7500,17,0.870849609375,-0.17169189453125,0.34197998046875
1759339162479,526987059,7500,18,0.871826171875,-0.16729736328125,0.33563232421875
1759339162479,526987059,7500,19,0.88134765625,-0.17535400390625,0.34710693359375
1759339162479,526987059,7500,20,0.87939453125,-0.16778564453125,0.34197998046875
1759339162479,526987059,7500,21,0.869140625,-0.17828369140625,0.33856201171875
1759339162479,526987059,7500,22,0.87353515625,-0.17095947265625,0.34442138671875
1759339162479,526987059,7500,23,0.873046875,-0.17901611328125,0.34027099609375
1759339162479,526987059,7500,24,0.8720703125,-0.17095947265625,0.35198974609375
1759339162479,526987059,7500,25,0.872314453125,-0.17510986328125,0.34320068359375
1759339162479,526987059,7500,26,0.876220703125,-0.17364501953125,0.34417724609375
1759339162479,526987059,7500,27,0.87548828125,-0.17559814453125,0.33660888671875
1759339162479,526987059,7500,28,0.8740234375,-0.17559814453125,0.34466552734375
1759339162479,526987059,7500,29,0.8779296875,-0.17193603515625,0.34490966796875
1759339162479,526987059,7500,30,0.873779296875,-0.17364501953125,0.35198974609375
1759339162479,526987059,7500,31,0.861083984375,-0.17779541015625,0.35150146484375
1759339165001,526989639,7501,0,0.875244140625,-0.17852783203125,0.34002685546875
1759339165001,526989639,7501,1,0.874755859375,-0.17315673828125,0.35003662109375
1759339165001,526989639,7501,2,0.87109375,-0.17974853515625,0.34173583984375
1759339165001,526989639,7501,3,0.8798828125,-0.17755126953125,0.34100341796875
1759339165001,526989639,7501,4,0.87890625,-0.18023681640625,0.33929443359375
1759339165001,526989639,7501,5,0.875244140625,-0.17706298828125,0.34027099609375
1759339165001,526989639,7501,6,0.874267578125,-0.17803955078125,0.34832763671875
1759339165001,526989639,7501,7,0.87939453125,-0.16973876953125,0.33563232421875
1759339165001,526989639,7501,8,0.87158203125,-0.17730712890625,0.34637451171875
1759339165001,526989639,7501,9,0.876220703125,-0.17364501953125,0.33807373046875
1759339165001,526989639,7501,10,0.87890625,-0.17633056640625,0.34686279296875
1759339165001,526989639,7501,11,0.8740234375,-0.17071533203125,0.33758544921875
1759339165001,526989639,7501,12,0.873291015625,-0.16534423828125,0.34075927734375
1759339165001,526989639,7501,13,0.873046875,-0.17266845703125,0.34417724609375
1759339165001,526989639,7501,14,0.878173828125,-0.17633056640625,0.33978271484375
1759339165001,526989639,7501,15,0.871826171875,-0.16705322265625,0.34320068359375
1759339165001,526989639,7501,16,0.881591796875,-0.17926025390625,0.33831787109375
1759339165001,526989639,7501,17,0.8916015625,-0.15704345703125,0.33245849609375
1759339165001,526989639,7501,18,0.865234375,-0.17974853515625,0.33489990234375
1759339165001,526989639,7501,19,0.87646484375,-0.17193603515625,0.33587646484375
1759339165001,526989639,7501,20,0.887939453125,-0.17095947265625,0.33660888671875
1759339165001,526989639,7501,21,0.87939453125,-0.19219970703125,0.31463623046875
1759339165001,526989639,7501,22,0.887939453125,-0.16265869140625,0.31634521484375
1759339165001,526989639,7501,23,0.886962890625,-0.18487548828125,0.30389404296875
1759339165001,526989639,7501,24,0.89453125,-0.18951416015625,0.30511474609375
1759339165001,526989639,7501,25,0.8779296875,-0.17510986328125,0.31170654296875
1759339165001,526989639,7501,26,0.900146484375,-0.17926025390625,0.30975341796875
1759339165001,526989639,7501,27,0.88720703125,-0.17340087890625,0.31561279296875
1759339165001,526989639,7501,28,0.871826171875,-0.19146728515625,0.31317138671875
1759339165001,526989639,7501,29,0.89306640625,-0.17584228515625,0.32366943359375
1759339165001,526989639,7501,30,0.878173828125,-0.19268798828125,0.32489013671875
1759339165001,526989639,7501,31,0.873779296875,-0.16876220703125,0.32659912109375
1759339167698,526992218,7502,0,0.86376953125,-0.18634033203125,0.34613037109375
1759339167698,526992218,7502,1,0.892578125,-0.19317626953125,0.33807373046875
1759339167698,526992218,7502,2,0.881103515625,-0.16534423828125,0.33587646484375
1759339167698,526992218,7502,3,0.853759765625,-0.18463134765625,0.36273193359375
1759339167698,526992218,7502,4,0.88232421875,-0.18341064453125,0.34637451171875
1759339167698,526992218,7502,5,0.87060546875,-0.18634033203125,0.34466552734375
1759339167698,526992218,7502,6,0.879150390625,-0.18634033203125,0.34564208984375
1759339167698,526992218,7502,7,0.87646484375,-0.17779541015625,0.33734130859375
1759339167698,526992218,7502,8,0.876220703125,-0.17803955078125,0.33563232421875
1759339167698,526992218,7502,9,0.8740234375,-0.17755126953125,0.34564208984375
1759339167698,526992218,7502,10,0.880126953125,-0.16998291015625,0.33782958984375
1759339167698,526992218,7502,11,0.8720703125,-0.17633056640625,0.34124755859375
1759339167698,526992218,7502,12,0.88525390625,-0.16851806640625,0.33074951171875
1759339167698,526992218,7502,13,0.880859375,-0.16265869140625,0.33587646484375
1759339167698,526992218,7502,14,0.876953125,-0.16925048828125,0.32098388671875
1759339167698,526992218,7502,15,0.884765625,-0.16510009765625,0.32391357421875
1759339167698,526992218,7502,16,0.893310546875,-0.16070556640625,0.30926513671875
1759339167698,526992218,7502,17,0.8857421875,-0.16217041015625,0.31024169921875
1759339167698,526992218,7502,18,0.8896484375,-0.15875244140625,0.30218505859375
1759339167698,526992218,7502,19,0.883056640625,-0.16754150390625,0.32171630859375
1759339167698,526992218,7502,20,0.896484375,-0.16680908203125,0.31243896484375
1759339167698,526992218,7502,21,0.89697265625,-0.16363525390625,0.31854248046875
1759339167698,526992218,7502,22,0.879638671875,-0.16510009765625,0.32244873046875
1759339167698,526992218,7502,23,0.87939453125,-0.16583251953125,0.33343505859375
1759339167698,526992218,7502,24,0.88427734375,-0.16656494140625,0.32781982421875
1759339167698,526992218,7502,25,0.881103515625,-0.16192626953125,0.33343505859375
1759339167698,526992218,7502,26,0.87646484375,-0.16461181640625,0.32879638671875
1759339167698,526992218,7502,27,0.876708984375,-0.17022705078125,0.33929443359375
1759339167698,526992218,7502,28,0.880859375,-0.16412353515625,0.33612060546875
1759339167698,526992218,7502,29,0.87744140625,-0.17022705078125,0.33807373046875
1759339167698,526992218,7502,30,0.8798828125,-0.16583251953125,0.33050537109375
1759339167698,526992218,7502,31,0.873046875,-0.16900634765625,0.34539794921875
1759339170220,526994797,7503,0,0.87744140625,-0.16680908203125,0.34100341796875
1759339170220,526994797,7503,1,0.875732421875,-0.16656494140625,0.34588623046875
1759339170220,526994797,7503,2,0.8720703125,-0.17315673828125,0.33856201171875
1759339170220,526994797,7503,3,0.879638671875,-0.16583251953125,0.33953857421875
1759339170220,526994797,7503,4,0.88232421875,-0.17022705078125,0.34881591796875
1759339170220,526994797,7503,5,0.87353515625,-0.16925048828125,0.33953857421875
1759339170220,526994797,7503,6,0.87255859375,-0.17022705078125,0.33831787109375
1759339170220,526994797,7503,7,0.877197265625,-0.17095947265625,0.35565185546875
1759339170220,526994797,7503,8,0.874267578125,-0.16827392578125,0.34149169921875
1759339170220,526994797,7503,9,0.8681640625,-0.16632080078125,0.34368896484375
1759339170220,526994797,7503,10,0.869384765625,-0.16949462890625,0.34320068359375
1759339170220,526994797,7503,11,0.880615234375,-0.17413330078125,0.34027099609375
1759339170220,526994797,7503,12,0.877197265625,-0.16558837890625,0.34613037109375
1759339170220,526994797,7503,13,0.8720703125,-0.17169189453125,0.35565185546875
1759339170220,526994797,7503,14,0.877197265625,-0.16192626953125,0.34100341796875
1759339170220,526994797,7503,15,0.8720703125,-0.17291259765625,0.34588623046875
1759339170220,526994797,7503,16,0.877197265625,-0.16607666015625,0.35028076171875
1759339170220,526994797,7503,17,0.872314453125,-0.17095947265625,0.34906005859375
1759339170220,526994797,7503,18,0.87451171875,-0.16558837890625,0.34783935546875
1759339170220,526994797,7503,19,0.8759765625,-0.16729736328125,0.34808349609375
1759339170220,526994797,7503,20,0.87548828125,-0.16925048828125,0.34637451171875
1759339170220,526994797,7503,21,0.858154296875,-0.17022705078125,0.34515380859375
1759339170220,526994797,7503,22,0.877197265625,-0.17071533203125,0.34857177734375
1759339170220,526994797,7503,23,0.86767578125,-0.16925048828125,0.34759521484375
1759339170220,526994797,7503,24,0.872802734375,-0.17144775390625,0.35614013671875
1759339170220,526994797,7503,25,0.87158203125,-0.16314697265625,0.34930419921875
1759339170220,526994797,7503,26,0.867919921875,-0.17657470703125,0.35516357421875
1759339170220,526994797,7503,27,0.869873046875,-0.16778564453125,0.35418701171875
1759339170220,526994797,7503,28,0.872314453125,-0.17218017578125,0.35101318359375
1759339170220,526994797,7503,29,0.8798828125,-0.16900634765625,0.35565185546875
1759339170220,526994797,7503,30,0.875244140625,-0.16802978515625,0.35150146484375
1759339170220,526994797,7503,31,0.872314453125,-0.16534423828125,0.33758544921875
1759339172739,526997376,7504,0,0.876220703125,-0.16632080078125,0.33148193359375
1759339172739,526997376,7504,1,0.883544921875,-0.16583251953125,0.32537841796875
1759339172739,526997376,7504,2,0.890380859375,-0.16656494140625,0.32855224609375
1759339172739,526997376,7504,3,0.886962890625,-0.15313720703125,0.30731201171875
1759339172739,526997376,7504,4,0.879638671875,-0.16094970703125,0.30731201171875
1759339172739,526997376,7504,5,0.88037109375,-0.17364501953125,0.33221435546875
1759339172739,526997376,7504,6,0.896728515625,-0.17022705078125,0.32464599609375
1759339172739,526997376,7504,7,0.893798828125,-0.15924072265625,0.32977294921875
1759339172739,526997376,7504,8,0.862548828125,-0.16436767578125,0.33392333984375
1759339172739,526997376,7504,9,0.881103515625,-0.17608642578125,0.32049560546875
1759339172739,526997376,7504,10,0.890869140625,-0.15655517578125,0.34222412109375
1759339172739,526997376,7504,11,0.876953125,-0.17730712890625,0.34075927734375
1759339172739,526997376,7504,12,0.888671875,-0.15240478515625,0.33782958984375
1759339172739,526997376,7504,13,0.86328125,-0.17779541015625,0.33489990234375
1759339172739,526997376,7504,14,0.884033203125,-0.16412353515625,0.33782958984375
1759339172739,526997376,7504,15,0.887939453125,-0.17169189453125,0.34735107421875
1759339172739,526997376,7504,16,0.8759765625,-0.16802978515625,0.33734130859375
1759339172739,526997376,7504,17,0.86572265625,-0.16534423828125,0.33709716796875
1759339172739,526997376,7504,18,0.875732421875,-0.16778564453125,0.34124755859375
1759339172739,526997376,7504,19,0.881591796875,-0.17169189453125,0.34808349609375
1759339172739,526997376,7504,20,0.873046875,-0.16827392578125,0.34173583984375
1759339172739,526997376,7504,21,0.865478515625,-0.17291259765625,0.34320068359375
1759339172739,526997376,7504,22,0.883056640625,-0.16583251953125,0.33612060546875
1759339172739,526997376,7504,23,0.88134765625,-0.16632080078125,0.35174560546875
1759339172739,526997376,7504,24,0.87353515625,-0.17803955078125,0.34124755859375
1759339172739,526997376,7504,25,0.870361328125,-0.16363525390625,0.34710693359375
1759339172739,526997376,7504,26,0.874267578125,-0.17364501953125,0.34954833984375
1759339172739,526997376,7504,27,0.87939453125,-0.17071533203125,0.34320068359375
1759339172739,526997376,7504,28,0.873779296875,-0.16949462890625,0.35052490234375
1759339172739,526997376,7504,29,0.86328125,-0.17559814453125,0.35443115234375
1759339172739,526997376,7504,30,0.86865234375,-0.17022705078125,0.34368896484375
1759339172739,526997376,7504,31,0.869384765625,-0.17437744140625,0.35589599609375
1759339175440,526999955,7505,0,0.884521484375,-0.17388916015625,0.35321044921875
1759339175440,526999955,7505,1,0.8740234375,-0.17413330078125,0.34954833984375
1759339175440,526999955,7505,2,0.861572265625,-0.17706298828125,0.34027099609375
1759339175440,526999955,7505,3,0.874755859375,-0.17486572265625,0.35687255859375
1759339175440,526999955,7505,4,0.87353515625,-0.17486572265625,0.36248779296875
1759339175440,526999955,7505,5,0.8583984375,-0.18096923828125,0.35858154296875
1759339175440,526999955,7505,6,0.8671875,-0.16729736328125,0.35443115234375
1759339175440,526999955,7505,7,0.862060546875,-0.17364501953125,0.35980224609375
1759339175440,526999955,7505,8,0.877197265625,-0.17779541015625,0.35296630859375
1759339175440,526999955,7505,9,0.869140625,-0.17218017578125,0.34637451171875
1759339175440,526999955,7505,10,0.868896484375,-0.17462158203125,0.35882568359375
1759339175440,526999955,7505,11,0.867919921875,-0.16851806640625,0.35614013671875
1759339175440,526999955,7505,12,0.868408203125,-0.17877197265625,0.35736083984375
1759339175440,526999955,7505,13,0.873291015625,-0.17315673828125,0.36175537109375
1759339175440,526999955,7505,14,0.881591796875,-0.17413330078125,0.36224365234375
1759339175440,526999955,7505,15,0.877197265625,-0.16192626953125,0.35882568359375
1759339175440,526999955,7505,16,0.8583984375,-0.15704345703125,0.32733154296875
1759339175440,526999955,7505,17,0.87548828125,-0.16436767578125,0.32537841796875
1759339175440,526999955,7505,18,0.88134765625,-0.14361572265625,0.30242919921875
1759339175440,526999955,7505,19,0.8974609375,-0.15753173828125,0.33319091796875
1759339175440,526999955,7505,20,0.882568359375,-0.18560791015625,0.31072998046875
1759339175440,526999955,7505,21,0.89892578125,-0.14630126953125,0.31024169921875
1759339175440,526999955,7505,22,0.878173828125,-0.16802978515625,0.35003662109375
1759339175440,526999955,7505,23,0.880126953125,-0.16802978515625,0.32464599609375
1759339175440,526999955,7505,24,0.874267578125,-0.16046142578125,0.34613037109375
1759339175440,526999955,7505,25,0.864013671875,-0.17437744140625,0.34197998046875
1759339175440,526999955,7505,26,0.888916015625,-0.16558837890625,0.34075927734375
1759339175440,526999955,7505,27,0.873779296875,-0.17608642578125,0.33929443359375
1759339175440,526999955,7505,28,0.877685546875,-0.16705322265625,0.34539794921875
1759339175440,526999955,7505,29,0.87353515625,-0.16949462890625,0.34466552734375
1759339175440,526999955,7505,30,0.87548828125,-0.17047119140625,0.34124755859375
1759339175440,526999955,7505,31,0.87548828125,-0.17144775390625,0.35101318359375
1759339177959,527002534,7506,0,0.878173828125,-0.16729736328125,0.34613037109375
1759339177959,527002534,7506,1,0.87109375,-0.17266845703125,0.34710693359375
1759339177959,527002534,7506,2,0.879638671875,-0.16729736328125,0.34149169921875
1759339177959,527002534,7506,3,0.875244140625,-0.16925048828125,0.34466552734375
1759339177959,527002534,7506,4,0.87353515625,-0.17364501953125,0.35638427734375
1759339177959,527002534,7506,5,0.876708984375,-0.17535400390625,0.33612060546875
1759339177959,527002534,7506,6,0.87109375,-0.17486572265625,0.34808349609375
1759339177959,527002534,7506,7,0.8701171875,-0.17291259765625,0.35565185546875
1759339177959,527002534,7506,8,0.87451171875,-0.17364501953125,0.34783935546875
1759339177959,527002534,7506,9,0.8740234375,-0.17535400390625,0.34442138671875
1759339177959,527002534,7506,10,0.874755859375,-0.17535400390625,0.34393310546875
1759339177959,527002534,7506,11,0.870361328125,-0.17755126953125,0.33612060546875
1759339177959,527002534,7506,12,0.88330078125,-0.17681884765625,0.34613037109375
1759339177959,527002534,7506,13,0.874267578125,-0.17193603515625,0.33685302734375
1759339177959,527002534,7506,14,0.867431640625,-0.17584228515625,0.35150146484375
1759339177959,527002534,7506,15,0.8701171875,-0.17242431640625,0.34954833984375
1759339177959,527002534,7506,16,0.87451171875,-0.17999267578125,0.34906005859375
1759339177959,527002534,7506,17,0.869873046875,-0.17242431640625,0.34783935546875
1759339177959,527002534,7506,18,0.8662109375,-0.17437744140625,0.34466552734375
1759339177959,527002534,7506,19,0.88916015625,-0.17633056640625,0.36029052734375
1759339177959,527002534,7506,20,0.871826171875,-0.17388916015625,0.31219482421875
1759339177959,527002534,7506,21,0.866455078125,-0.17486572265625,0.34515380859375
1759339177959,527002534,7506,22,0.885009765625,-0.16680908203125,0.33782958984375
1759339177959,527002534,7506,23,0.86572265625,-0.17559814453125,0.33978271484375
1759339177959,527002534,7506,24,0.8759765625,-0.17706298828125,0.34783935546875
1759339177959,527002534,7506,25,0.881103515625,-0.17462158203125,0.34564208984375
1759339177959,527002534,7506,26,0.869873046875,-0.17486572265625,0.34368896484375
1759339177959,527002534,7506,27,0.87109375,-0.17218017578125,0.34832763671875
1759339177959,527002534,7506,28,0.879150390625,-0.17315673828125,0.33441162109375
1759339177959,527002534,7506,29,0.87353515625,-0.16925048828125,0.33343505859375
1759339177959,527002534,7506,30,0.884765625,-0.17974853515625,0.34149169921875
1759339177959,527002534,7506,31,0.884521484375,-0.16510009765625,0.32415771484375
1759339180479,527005113,7507,0,0.869873046875,-0.17779541015625,0.34173583984375
1759339180479,527005113,7507,1,0.879638671875,-0.17877197265625,0.33587646484375
1759339180479,527005113,7507,2,0.877197265625,-0.17242431640625,0.33514404296875
1759339180479,527005113,7507,3,0.879638671875,-0.17852783203125,0.33416748046875
1759339180479,527005113,7507,4,0.876953125,-0.17999267578125,0.33099365234375
1759339180479,527005113,7507,5,0.882568359375,-0.17974853515625,0.33050537109375
1759339180479,527005113,7507,6,0.87841796875,-0.17510986328125,0.32977294921875
1759339180479,527005113,7507,7,0.885986328125,-0.18072509765625,0.34295654296875
1759339180479,527005113,7507,8,0.876708984375,-0.17193603515625,0.32952880859375
1759339180479,527005113,7507,9,0.8759765625,-0.18218994140625,0.33441162109375
1759339180479,527005113,7507,10,0.883056640625,-0.18365478515625,0.33465576171875
1759339180479,527005113,7507,11,0.8896484375,-0.17584228515625,0.34613037109375
1759339180479,527005113,7507,12,0.863525390625,-0.16925048828125,0.33245849609375
1759339180479,527005113,7507,13,0.871826171875,-0.17340087890625,0.35345458984375
1759339180479,527005113,7507,14,0.87646484375,-0.17388916015625,0.33782958984375
1759339180479,527005113,7507,15,0.87158203125,-0.17706298828125,0.34295654296875
1759339180479,527005113,7507,16,0.87939453125,-0.17486572265625,0.34368896484375
1759339180479,527005113,7507,17,0.8798828125,-0.16729736328125,0.33563232421875
1759339180479,527005113,7507,18,0.876220703125,-0.17584228515625,0.33489990234375
1759339180479,527005113,7507,19,0.8837890625,-0.17144775390625,0.33319091796875
1759339180479,527005113,7507,20,0.879638671875,-0.17071533203125,0.32147216796875
1759339180479,527005113,7507,21,0.881103515625,-0.16851806640625,0.31878662109375
1759339180479,527005113,7507,22,0.8837890625,-0.16876220703125,0.32366943359375
1759339180479,527005113,7507,23,0.8896484375,-0.16754150390625,0.31390380859375
1759339180479,527005113,7507,24,0.881591796875,-0.16925048828125,0.31024169921875
1759339180479,527005113,7507,25,0.890625,-0.15875244140625,0.29534912109375
1759339180479,527005113,7507,26,0.888671875,-0.16583251953125,0.32049560546875
1759339180479,527005113,7507,27,0.880615234375,-0.17510986328125,0.32244873046875
1759339180479,527005113,7507,28,0.89501953125,-0.16583251953125,0.31854248046875
1759339180479,527005113,7507,29,0.890625,-0.16046142578125,0.31927490234375
1759339180479,527005113,7507,30,0.87744140625,-0.16900634765625,0.33441162109375
1759339180479,527005113,7507,31,0.8798828125,-0.17071533203125,0.32757568359375
1759339183179,527007693,7508,0,0.878173828125,-0.16656494140625,0.33709716796875
1759339183179,527007693,7508,1,0.88037109375,-0.16998291015625,0.34100341796875
1759339183179,527007693,7508,2,0.88134765625,-0.16534423828125,0.33660888671875
1759339183179,527007693,7508,3,0.869873046875,-0.16656494140625,0.34710693359375
1759339183179,527007693,7508,4,0.873291015625,-0.17120361328125,0.33636474609375
1759339183179,527007693,7508,5,0.88330078125,-0.17315673828125,0.34051513671875
1759339183179,527007693,7508,6,0.884033203125,-0.16583251953125,0.33660888671875
1759339183179,527007693,7508,7,0.87255859375,-0.17022705078125,0.34613037109375
1759339183179,527007693,7508,8,0.871337890625,-0.16778564453125,0.32830810546875
1759339183179,527007693,7508,9,0.87646484375,-0.17266845703125,0.34320068359375
1759339183179,527007693,7508,10,0.8837890625,-0.16241455078125,0.34808349609375
1759339183179,527007693,7508,11,0.86572265625,-0.17413330078125,0.34832763671875
1759339183179,527007693,7508,12,0.86962890625,-0.16851806640625,0.34393310546875
1759339183179,527007693,7508,13,0.877685546875,-0.16827392578125,0.34759521484375
1759339183179,527007693,7508,14,0.877685546875,-0.17486572265625,0.34832763671875
1759339183179,527007693,7508,15,0.87060546875,-0.16949462890625,0.34954833984375
1759339183179,527007693,7508,16,0.87548828125,-0.17315673828125,0.35003662109375
1759339183179,527007693,7508,17,0.86669921875,-0.17462158203125,0.34173583984375
1759339183179,527007693,7508,18,0.87744140625,-0.16729736328125,0.36346435546875
1759339183179,527007693,7508,19,0.867919921875,-0.17169189453125,0.34881591796875
1759339183179,527007693,7508,20,0.872314453125,-0.17926025390625,0.34222412109375
1759339183179,527007693,7508,21,0.86962890625,-0.17071533203125,0.35906982421875
1759339183179,527007693,7508,22,0.8671875,-0.18023681640625,0.34954833984375
1759339183179,527007693,7508,23,0.874267578125,-0.17144775390625,0.35198974609375
1759339183179,527007693,7508,24,0.87060546875,-0.17535400390625,0.35296630859375
1759339183179,527007693,7508,25,0.87060546875,-0.17633056640625,0.35003662109375
1759339183179,527007693,7508,26,0.877685546875,-0.17218017578125,0.35052490234375
1759339183179,527007693,7508,27,0.871337890625,-0.17413330078125,0.35247802734375
1759339183179,527007693,7508,28,0.876708984375,-0.16339111328125,0.34881591796875
1759339183179,527007693,7508,29,0.869873046875,-0.16900634765625,0.35003662109375
1759339183179,527007693,7508,30,0.87158203125,-0.17095947265625,0.34295654296875
1759339183179,527007693,7508,31,0.876708984375,-0.16900634765625,0.33929443359375
1759339185700,527010272,7509,0,0.87744140625,-0.16217041015625,0.33270263671875
1759339185700,527010272,7509,1,0.8759765625,-0.16290283203125,0.33001708984375
1759339185700,527010272,7509,2,0.87646484375,-0.16754150390625,0.34320068359375
1759339185700,527010272,7509,3,0.88427734375,-0.16949462890625,0.33172607421875
1759339185700,527010272,7509,4,0.882568359375,-0.16314697265625,0.34735107421875
1759339185700,527010272,7509,5,0.880859375,-0.16485595703125,0.33465576171875
1759339185700,527010272,7509,6,0.872802734375,-0.16412353515625,0.34515380859375
1759339185700,527010272,7509,7,0.876220703125,-0.16436767578125,0.33538818359375
1759339185700,527010272,7509,8,0.875732421875,-0.16607666015625,0.35101318359375
1759339185700,527010272,7509,9,0.8701171875,-0.16339111328125,0.34906005859375
1759339185700,527010272,7509,10,0.866943359375,-0.16387939453125,0.34417724609375
1759339185700,527010272,7509,11,0.88134765625,-0.16485595703125,0.34393310546875
1759339185700,527010272,7509,12,0.87451171875,-0.16876220703125,0.34027099609375
1759339185700,527010272,7509,13,0.874267578125,-0.16949462890625,0.33856201171875
1759339185700,527010272,7509,14,0.881103515625,-0.16632080078125,0.34075927734375
1759339185700,527010272,7509,15,0.875732421875,-0.16314697265625,0.34222412109375
1759339185700,527010272,7509,16,0.8701171875,-0.17291259765625,0.35272216796875
1759339185700,527010272,7509,17,0.87255859375,-0.16705322265625,0.35345458984375
1759339185700,527010272,7509,18,0.865478515625,-0.16558837890625,0.35003662109375
1759339185700,527010272,7509,19,0.871826171875,-0.16632080078125,0.35247802734375
1759339185700,527010272,7509,20,0.866455078125,-0.16900634765625,0.35052490234375
1759339185700,527010272,7509,21,0.8837890625,-0.17047119140625,0.35052490234375
1759339185700,527010272,7509,22,0.864013671875,-0.17169189453125,0.34197998046875
1759339185700,527010272,7509,23,0.875244140625,-0.17022705078125,0.35760498046875
1759339185700,527010272,7509,24,0.869873046875,-0.16729736328125,0.34661865234375
1759339185700,527010272,7509,25,0.8740234375,-0.17388916015625,0.34588623046875
1759339185700,527010272,7509,26,0.8720703125,-0.16802978515625,0.36102294921875
1759339185700,527010272,7509,27,0.87109375,-0.17291259765625,0.34930419921875
1759339185700,527010272,7509,28,0.873291015625,-0.16583251953125,0.35418701171875
1759339185700,527010272,7509,29,0.867919921875,-0.17071533203125,0.35760498046875
1759339185700,527010272,7509,30,0.8701171875,-0.17388916015625,0.35198974609375
1759339185700,527010272,7509,31,0.86962890625,-0.17242431640625,0.35345458984375
1759339188219,527012851,7510,0,0.866943359375,-0.17633056640625,0.35614013671875
1759339188219,527012851,7510,1,0.877685546875,-0.16705322265625,0.35443115234375
1759339188219,527012851,7510,2,0.869140625,-0.17340087890625,0.35101318359375
1759339188219,527012851,7510,3,0.87158203125,-0.17047119140625,0.35931396484375
1759339188219,527012851,7510,4,0.869140625,-0.17584228515625,0.35247802734375
1759339188219,527012851,7510,5,0.86865234375,-0.17095947265625,0.35760498046875
1759339188219,527012851,7510,6,0.862548828125,-0.17071533203125,0.35955810546875
1759339188219,527012851,7510,7,0.864501953125,-0.17071533203125,0.36297607421875
1759339188219,527012851,7510,8,0.86669921875,-0.16632080078125,0.35491943359375
1759339188219,527012851,7510,9,0.86474609375,-0.17877197265625,0.35614013671875
1759339188219,527012851,7510,10,0.874267578125,-0.16387939453125,0.35858154296875
1759339188219,527012851,7510,11,0.868408203125,-0.17169189453125,0.35809326171875
1759339188219,527012851,7510,12,0.865478515625,-0.17291259765625,0.36053466796875
1759339188219,527012851,7510,13,0.8671875,-0.17437744140625,0.36102294921875
1759339188219,527012851,7510,14,0.870361328125,-0.16998291015625,0.36297607421875
1759339188219,527012851,7510,15,0.868408203125,-0.17071533203125,0.35662841796875
1759339188219,527012851,7510,16,0.8701171875,-0.17144775390625,0.35638427734375
1759339188219,527012851,7510,17,0.87255859375,-0.16973876953125,0.34857177734375
1759339188219,527012851,7510,18,0.871337890625,-0.17291259765625,0.35369873046875
1759339188219,527012851,7510,19,0.872802734375,-0.16119384765625,0.34881591796875
1759339188219,527012851,7510,20,0.87158203125,-0.16925048828125,0.34906005859375
1759339188219,527012851,7510,21,0.871337890625,-0.16778564453125,0.34490966796875
1759339188219,527012851,7510,22,0.881103515625,-0.16754150390625,0.34320068359375
1759339188219,527012851,7510,23,0.877197265625,-0.16387939453125,0.34051513671875
1759339188219,527012851,7510,24,0.8759765625,-0.16265869140625,0.33831787109375
1759339188219,527012851,7510,25,0.882568359375,-0.16241455078125,0.32708740234375
1759339188219,527012851,7510,26,0.8837890625,-0.16241455078125,0.32635498046875
1759339188219,527012851,7510,27,0.884033203125,-0.16412353515625,0.33001708984375
1759339188219,527012851,7510,28,0.883544921875,-0.15338134765625,0.32122802734375
1759339188219,527012851,7510,29,0.876220703125,-0.15728759765625,0.32342529296875
1759339188219,527012851,7510,30,0.875,-0.16387939453125,0.33709716796875
1759339188219,527012851,7510,31,0.887939453125,-0.16534423828125,0.32781982421875
1759339190909,527015430,7511,0,0.884765625,-0.15997314453125,0.33465576171875
1759339190909,527015430,7511,1,0.881103515625,-0.16046142578125,0.34051513671875
1759339190909,527015430,7511,2,0.877685546875,-0.16436767578125,0.33026123046875
1759339190909,527015430,7511,3,0.871337890625,-0.16510009765625,0.34588623046875
1759339190909,527015430,7511,4,0.88037109375,-0.16094970703125,0.34564208984375
1759339190909,527015430,7511,5,0.8779296875,-0.16558837890625,0.34344482421875
1759339190909,527015430,7511,6,0.86962890625,-0.15997314453125,0.34588623046875
1759339190909,527015430,7511,7,0.869873046875,-0.17095947265625,0.34442138671875
1759339190909,527015430,7511,8,0.880859375,-0.16412353515625,0.34075927734375
1759339190909,527015430,7511,9,0.880615234375,-0.16339111328125,0.34539794921875
1759339190909,527015430,7511,10,0.874267578125,-0.16510009765625,0.34027099609375
1759339190909,527015430,7511,11,0.870849609375,-0.17144775390625,0.32830810546875
1759339190909,527015430,7511,12,0.878173828125,-0.16827392578125,0.36395263671875
1759339190909,527015430,7511,13,0.87939453125,-0.16436767578125,0.34320068359375
1759339190909,527015430,7511,14,0.866455078125,-0.16607666015625,0.35101318359375
1759339190909,527015430,7511,15,0.865966796875,-0.16680908203125,0.34735107421875
1759339190909,527015430,7511,16,0.875244140625,-0.16998291015625,0.35614013671875
1759339190909,527015430,7511,17,0.878662109375,-0.16607666015625,0.35198974609375
1759339190909,527015430,7511,18,0.86865234375,-0.16680908203125,0.34393310546875
1759339190909,527015430,7511,19,0.8720703125,-0.16802978515625,0.34881591796875
1759339190909,527015430,7511,20,0.878662109375,-0.16998291015625,0.34783935546875
1759339190909,527015430,7511,21,0.870849609375,-0.17071533203125,0.35638427734375
1759339190909,527015430,7511,22,0.87158203125,-0.16802978515625,0.35980224609375
1759339190909,527015430,7511,23,0.861572265625,-0.17169189453125,0.35003662109375
1759339190909,527015430,7511,24,0.871826171875,-0.17071533203125,0.34100341796875
1759339190909,527015430,7511,25,0.875,-0.17095947265625,0.36077880859375
1759339190909,527015430,7511,26,0.873046875,-0.17315673828125,0.35247802734375
1759339190909,527015430,7511,27,0.869384765625,-0.16802978515625,0.34735107421875
1759339190909,527015430,7511,28,0.86962890625,-0.16876220703125,0.35223388671875
1759339190909,527015430,7511,29,0.8759765625,-0.17803955078125,0.34881591796875
1759339190909,527015430,7511,30,0.86669921875,-0.16998291015625,0.34100341796875
1759339190909,527015430,7511,31,0.872314453125,-0.17095947265625,0.36810302734375
1759339193430,527018009,7512,0,0.87255859375,-0.17022705078125,0.34466552734375
1759339193430,527018009,7512,1,0.870361328125,-0.17266845703125,0.36029052734375
1759339193430,527018009,7512,2,0.86669921875,-0.17437744140625,0.35955810546875
1759339193430,527018009,7512,3,0.87109375,-0.17510986328125,0.35711669921875
1759339193430,527018009,7512,4,0.86962890625,-0.17559814453125,0.35247802734375
1759339193430,527018009,7512,5,0.8681640625,-0.17144775390625,0.35247802734375
1759339193430,527018009,7512,6,0.8681640625,-0.17535400390625,0.35516357421875
1759339193430,527018009,7512,7,0.86767578125,-0.17510986328125,0.35052490234375
1759339193430,527018009,7512,8,0.8720703125,-0.18072509765625,0.36004638671875
1759339193430,527018009,7512,9,0.88134765625,-0.16461181640625,0.35589599609375
1759339193430,527018009,7512,10,0.862548828125,-0.17169189453125,0.35125732421875
1759339193430,527018009,7512,11,0.8701171875,-0.17047119140625,0.34759521484375
1759339193430,527018009,7512,12,0.873779296875,-0.17266845703125,0.35540771484375
1759339193430,527018009,7512,13,0.873291015625,-0.16778564453125,0.34588623046875
1759339193430,527018009,7512,14,0.8720703125,-0.16705322265625,0.34246826171875
1759339193430,527018009,7512,15,0.875244140625,-0.16046142578125,0.33685302734375
