receivedPhoneTimestamp,respeckTimestamp,packetSeqNum,sampleSeqNum,accelX,accelY,accelZ
1760286590444,1410162853,45727,16,0.81494140625,-0.24737548828125,0.41400146484375
1760286590444,1410162853,45727,17,0.814697265625,-0.27911376953125,0.42205810546875
1760286590444,1410162853,45727,18,0.837890625,-0.28350830078125,0.40765380859375
1760286590444,1410162853,45727,19,0.81640625,-0.30255126953125,0.42059326171875
1760286590444,1410162853,45727,20,0.82568359375,-0.27740478515625,0.39813232421875
1760286590444,1410162853,45727,21,0.823486328125,-0.27105712890625,0.40545654296875
1760286590444,1410162853,45727,22,0.8115234375,-0.27276611328125,0.41986083984375
1760286590444,1410162853,45727,23,0.827392578125,-0.27886962890625,0.42352294921875
1760286590444,1410162853,45727,24,0.813232421875,-0.27838134765625,0.40960693359375
1760286590444,1410162853,45727,25,0.81689453125,-0.28887939453125,0.42205810546875
1760286590444,1410162853,45727,26,0.800048828125,-0.28912353515625,0.42767333984375
1760286590444,1410162853,45727,27,0.814208984375,-0.28057861328125,0.42547607421875
1760286590444,1410162853,45727,28,0.81103515625,-0.29254150390625,0.42840576171875
1760286590444,1410162853,45727,29,0.80322265625,-0.27593994140625,0.42327880859375
1760286590444,1410162853,45727,30,0.810791015625,-0.28765869140625,0.42205810546875
1760286590444,1410162853,45727,31,0.81005859375,-0.28472900390625,0.42401123046875
1760286592981,1410165396,45728,0,0.81689453125,-0.28009033203125,0.41131591796875
1760286592981,1410165396,45728,1,0.8115234375,-0.30181884765625,0.42425537109375
1760286592981,1410165396,45728,2,0.819580078125,-0.28277587890625,0.41766357421875
1760286592981,1410165396,45728,3,0.81298828125,-0.27618408203125,0.41180419921875
1760286592981,1410165396,45728,4,0.816650390625,-0.28302001953125,0.40814208984375
1760286592981,1410165396,45728,5,0.83544921875,-0.29058837890625,0.39544677734375
1760286592981,1410165396,45728,6,0.818359375,-0.29376220703125,0.41033935546875
1760286592981,1410165396,45728,7,0.820068359375,-0.28717041015625,0.39447021484375
1760286592981,1410165396,45728,8,0.80712890625,-0.29718017578125,0.41668701171875
1760286592981,1410165396,45728,9,0.826416015625,-0.28936767578125,0.40887451171875
1760286592981,1410165396,45728,10,0.81689453125,-0.29058837890625,0.40374755859375
1760286592981,1410165396,45728,11,0.81689453125,-0.29058837890625,0.40740966796875
1760286592981,1410165396,45728,12,0.8232421875,-0.29742431640625,0.39862060546875
1760286592981,1410165396,45728,13,0.81640625,-0.28179931640625,0.40008544921875
1760286592981,1410165396,45728,14,0.822021484375,-0.29522705078125,0.40570068359375
1760286592981,1410165396,45728,15,0.8154296875,-0.29327392578125,0.39739990234375
1760286592981,1410165396,45728,16,0.81494140625,-0.29083251953125,0.40325927734375
1760286592981,1410165396,45728,17,0.82373046875,-0.29888916015625,0.39984130859375
1760286592981,1410165396,45728,18,0.818603515625,-0.29742431640625,0.40789794921875
1760286592981,1410165396,45728,19,0.835205078125,-0.32305908203125,0.42083740234375
1760286592981,1410165396,45728,20,0.817626953125,-0.28594970703125,0.40155029296875
1760286592981,1410165396,45728,21,0.79345703125,-0.27545166015625,0.41888427734375
1760286592981,1410165396,45728,22,0.80810546875,-0.26617431640625,0.41473388671875
1760286592981,1410165396,45728,23,0.797119140625,-0.28253173828125,0.42498779296875
1760286592981,1410165396,45728,24,0.832275390625,-0.29473876953125,0.40814208984375
1760286592981,1410165396,45728,25,0.819091796875,-0.29571533203125,0.40252685546875
1760286592981,1410165396,45728,26,0.81689453125,-0.28570556640625,0.40863037109375
1760286592981,1410165396,45728,27,0.821044921875,-0.29571533203125,0.40057373046875
1760286592981,1410165396,45728,28,0.819580078125,-0.29107666015625,0.40789794921875
1760286592981,1410165396,45728,29,0.822265625,-0.29620361328125,0.40350341796875
1760286592981,1410165396,45728,30,0.82666015625,-0.28619384765625,0.39495849609375
1760286592981,1410165396,45728,31,0.817138671875,-0.29278564453125,0.40521240234375
1760286595509,1410167939,45729,0,0.829345703125,-0.28643798828125,0.39471435546875
1760286595509,1410167939,45729,1,0.822998046875,-0.28765869140625,0.40374755859375
1760286595509,1410167939,45729,2,0.81396484375,-0.29742431640625,0.40936279296875
1760286595509,1410167939,45729,3,0.8154296875,-0.28692626953125,0.40618896484375
1760286595509,1410167939,45729,4,0.8125,-0.28863525390625,0.40838623046875
1760286595509,1410167939,45729,5,0.81591796875,-0.29498291015625,0.40838623046875
1760286595509,1410167939,45729,6,0.807861328125,-0.29595947265625,0.40643310546875
1760286595509,1410167939,45729,7,0.822265625,-0.28765869140625,0.40740966796875
1760286595509,1410167939,45729,8,0.8173828125,-0.29425048828125,0.39959716796875
1760286595509,1410167939,45729,9,0.820556640625,-0.29864501953125,0.40057373046875
1760286595509,1410167939,45729,10,0.826416015625,-0.29937744140625,0.39617919921875
1760286595509,1410167939,45729,11,0.814208984375,-0.28961181640625,0.39959716796875
1760286595509,1410167939,45729,12,0.820068359375,-0.29522705078125,0.39788818359375
1760286595509,1410167939,45729,13,0.831298828125,-0.29058837890625,0.38763427734375
1760286595509,1410167939,45729,14,0.812255859375,-0.30572509765625,0.40374755859375
1760286595509,1410167939,45729,15,0.82763671875,-0.28570556640625,0.39080810546875
1760286595509,1410167939,45729,16,0.8173828125,-0.29400634765625,0.39617919921875
1760286595509,1410167939,45729,17,0.821044921875,-0.29840087890625,0.39202880859375
1760286595509,1410167939,45729,18,0.829345703125,-0.29913330078125,0.39569091796875
1760286595509,1410167939,45729,19,0.818359375,-0.29742431640625,0.39105224609375
1760286595509,1410167939,45729,20,0.824462890625,-0.28790283203125,0.39520263671875
1760286595509,1410167939,45729,21,0.825439453125,-0.30133056640625,0.39276123046875
1760286595509,1410167939,45729,22,0.815185546875,-0.30596923828125,0.39739990234375
1760286595509,1410167939,45729,23,0.83349609375,-0.28277587890625,0.39178466796875
1760286595509,1410167939,45729,24,0.810302734375,-0.30816650390625,0.40057373046875
1760286595509,1410167939,45729,25,0.826904296875,-0.28814697265625,0.39984130859375
1760286595509,1410167939,45729,26,0.826416015625,-0.29083251953125,0.39959716796875
1760286595509,1410167939,45729,27,0.815673828125,-0.30889892578125,0.39886474609375
1760286595509,1410167939,45729,28,0.822021484375,-0.28814697265625,0.39544677734375
1760286595509,1410167939,45729,29,0.826904296875,-0.29547119140625,0.39129638671875
1760286595509,1410167939,45729,30,0.817138671875,-0.29864501953125,0.39129638671875
1760286595509,1410167939,45729,31,0.827392578125,-0.29840087890625,0.40057373046875
1760286598050,1410170482,45730,0,0.8212890625,-0.29473876953125,0.38372802734375
1760286598050,1410170482,45730,1,0.818359375,-0.29742431640625,0.39715576171875
1760286598050,1410170482,45730,2,0.823486328125,-0.30108642578125,0.39862060546875
1760286598050,1410170482,45730,3,0.8193359375,-0.29254150390625,0.40179443359375
1760286598050,1410170482,45730,4,0.81982421875,-0.29156494140625,0.40008544921875
1760286598050,1410170482,45730,5,0.821044921875,-0.29058837890625,0.41033935546875
1760286598050,1410170482,45730,6,0.812744140625,-0.29351806640625,0.40618896484375
1760286598050,1410170482,45730,7,0.813720703125,-0.28790283203125,0.41107177734375
1760286598050,1410170482,45730,8,0.82080078125,-0.28839111328125,0.40179443359375
1760286598050,1410170482,45730,9,0.81640625,-0.28765869140625,0.41180419921875
1760286598050,1410170482,45730,10,0.81640625,-0.29766845703125,0.42059326171875
1760286598050,1410170482,45730,11,0.807373046875,-0.28985595703125,0.42254638671875
1760286598050,1410170482,45730,12,0.8095703125,-0.28570556640625,0.42523193359375
1760286598050,1410170482,45730,13,0.796142578125,-0.29058837890625,0.44500732421875
1760286598050,1410170482,45730,14,0.798583984375,-0.28302001953125,0.44036865234375
1760286598050,1410170482,45730,15,0.791015625,-0.28594970703125,0.45477294921875
1760286598050,1410170482,45730,16,0.796142578125,-0.28131103515625,0.45086669921875
1760286598050,1410170482,45730,17,0.78759765625,-0.28790283203125,0.45770263671875
1760286598050,1410170482,45730,18,0.78564453125,-0.26934814453125,0.45452880859375
1760286598050,1410170482,45730,19,0.791259765625,-0.28277587890625,0.48431396484375
1760286598050,1410170482,45730,20,0.783447265625,-0.27178955078125,0.47088623046875
1760286598050,1410170482,45730,21,0.77392578125,-0.28253173828125,0.48675537109375
1760286598050,1410170482,45730,22,0.780029296875,-0.26885986328125,0.46844482421875
1760286598050,1410170482,45730,23,0.766357421875,-0.27886962890625,0.49847412109375
1760286598050,1410170482,45730,24,0.77783203125,-0.26812744140625,0.48797607421875
1760286598050,1410170482,45730,25,0.775634765625,-0.26397705078125,0.49041748046875
1760286598050,1410170482,45730,26,0.773681640625,-0.26812744140625,0.48822021484375
1760286598050,1410170482,45730,27,0.78857421875,-0.25909423828125,0.48944091796875
1760286598050,1410170482,45730,28,0.77880859375,-0.27642822265625,0.48455810546875
1760286598050,1410170482,45730,29,0.784423828125,-0.25787353515625,0.47650146484375
1760286598050,1410170482,45730,30,0.787841796875,-0.26446533203125,0.48333740234375
1760286598050,1410170482,45730,31,0.770751953125,-0.26739501953125,0.48822021484375
1760286600584,1410173025,45731,0,0.790771484375,-0.24981689453125,0.48455810546875
1760286600584,1410173025,45731,1,0.7822265625,-0.26104736328125,0.48773193359375
1760286600584,1410173025,45731,2,0.7734375,-0.26226806640625,0.48944091796875
1760286600584,1410173025,45731,3,0.7822265625,-0.25909423828125,0.48748779296875
1760286600584,1410173025,45731,4,0.780029296875,-0.26007080078125,0.48992919921875
1760286600584,1410173025,45731,5,0.77001953125,-0.26202392578125,0.49578857421875
1760286600584,1410173025,45731,6,0.7919921875,-0.24713134765625,0.48626708984375
1760286600584,1410173025,45731,7,0.763427734375,-0.26397705078125,0.49481201171875
1760286600584,1410173025,45731,8,0.781982421875,-0.25054931640625,0.49530029296875
1760286600584,1410173025,45731,9,0.780517578125,-0.25714111328125,0.49456787109375
1760286600584,1410173025,45731,10,0.773193359375,-0.25225830078125,0.50238037109375
1760286600584,1410173025,45731,11,0.789306640625,-0.25152587890625,0.51287841796875
1760286600584,1410173025,45731,12,0.744873046875,-0.26739501953125,0.50848388671875
1760286600584,1410173025,45731,13,0.765625,-0.24810791015625,0.50213623046875
1760286600584,1410173025,45731,14,0.76025390625,-0.26153564453125,0.52801513671875
1760286600584,1410173025,45731,15,0.75244140625,-0.28253173828125,0.52044677734375
1760286600584,1410173025,45731,16,0.75830078125,-0.28570556640625,0.51287841796875
1760286600584,1410173025,45731,17,0.7275390625,-0.27301025390625,0.52410888671875
1760286600584,1410173025,45731,18,0.7109375,-0.26934814453125,0.54681396484375
1760286600584,1410173025,45731,19,0.6884765625,-0.28985595703125,0.56854248046875
1760286600584,1410173025,45731,20,0.740234375,-0.27642822265625,0.55828857421875
1760286600584,1410173025,45731,21,0.732177734375,-0.28839111328125,0.54071044921875
1760286600584,1410173025,45731,22,0.704345703125,-0.30206298828125,0.55047607421875
1760286600584,1410173025,45731,23,0.726318359375,-0.28790283203125,0.53240966796875
1760286600584,1410173025,45731,24,0.75341796875,-0.27349853515625,0.53314208984375
1760286600584,1410173025,45731,25,0.755126953125,-0.25836181640625,0.52581787109375
1760286600584,1410173025,45731,26,0.77392578125,-0.23980712890625,0.52215576171875
1760286600584,1410173025,45731,27,0.776611328125,-0.23565673828125,0.52899169921875
1760286600584,1410173025,45731,28,0.73828125,-0.26397705078125,0.54046630859375
1760286600584,1410173025,45731,29,0.713623046875,-0.28839111328125,0.54486083984375
1760286600584,1410173025,45731,30,0.724609375,-0.27398681640625,0.55364990234375
1760286600584,1410173025,45731,31,0.730224609375,-0.27325439453125,0.54779052734375
1760286603121,1410175568,45732,0,0.7021484375,-0.27935791015625,0.56048583984375
1760286603121,1410175568,45732,1,0.723876953125,-0.25909423828125,0.55438232421875
1760286603121,1410175568,45732,2,0.760009765625,-0.31671142578125,0.58489990234375
1760286603121,1410175568,45732,3,0.76318359375,-0.31231689453125,0.53778076171875
1760286603121,1410175568,45732,4,0.68603515625,-0.27496337890625,0.52825927734375
1760286603121,1410175568,45732,5,0.729736328125,-0.27789306640625,0.54339599609375
1760286603121,1410175568,45732,6,0.74169921875,-0.26763916015625,0.48236083984375
1760286603121,1410175568,45732,7,0.697998046875,-0.28668212890625,0.50628662109375
1760286603121,1410175568,45732,8,0.72998046875,-0.25714111328125,0.49090576171875
1760286603121,1410175568,45732,9,0.830322265625,-0.32403564453125,0.47503662109375
1760286603121,1410175568,45732,10,0.842529296875,-0.28350830078125,0.43621826171875
1760286603121,1410175568,45732,11,0.814697265625,-0.31964111328125,0.44158935546875
1760286603121,1410175568,45732,12,0.802001953125,-0.30426025390625,0.39984130859375
1760286603121,1410175568,45732,13,0.792236328125,-0.29718017578125,0.41986083984375
1760286603121,1410175568,45732,14,0.820556640625,-0.31011962890625,0.43597412109375
1760286603121,1410175568,45732,15,0.790771484375,-0.29718017578125,0.42059326171875
1760286603121,1410175568,45732,16,0.806396484375,-0.28472900390625,0.42034912109375
1760286603121,1410175568,45732,17,0.810546875,-0.30938720703125,0.41961669921875
1760286603121,1410175568,45732,18,0.8076171875,-0.30010986328125,0.41644287109375
1760286603121,1410175568,45732,19,0.807373046875,-0.31256103515625,0.42523193359375
1760286603121,1410175568,45732,20,0.812255859375,-0.28961181640625,0.40863037109375
1760286603121,1410175568,45732,21,0.8115234375,-0.30450439453125,0.42279052734375
1760286603121,1410175568,45732,22,0.807373046875,-0.30523681640625,0.41253662109375
1760286603121,1410175568,45732,23,0.802001953125,-0.30230712890625,0.42254638671875
1760286603121,1410175568,45732,24,0.81787109375,-0.30963134765625,0.42034912109375
1760286603121,1410175568,45732,25,0.801513671875,-0.29351806640625,0.41766357421875
1760286603121,1410175568,45732,26,0.809814453125,-0.30914306640625,0.42303466796875
1760286603121,1410175568,45732,27,0.80029296875,-0.30010986328125,0.42059326171875
1760286603121,1410175568,45732,28,0.79345703125,-0.30841064453125,0.44036865234375
1760286603121,1410175568,45732,29,0.808837890625,-0.29620361328125,0.42449951171875
1760286603121,1410175568,45732,30,0.781005859375,-0.30743408203125,0.44036865234375
1760286603121,1410175568,45732,31,0.813232421875,-0.30279541015625,0.44354248046875
1760286605647,1410178111,45733,0,0.789306640625,-0.29254150390625,0.43914794921875
1760286605647,1410178111,45733,1,0.7861328125,-0.30474853515625,0.45037841796875
1760286605647,1410178111,45733,2,0.7919921875,-0.29693603515625,0.45355224609375
1760286605647,1410178111,45733,3,0.7939453125,-0.30010986328125,0.45892333984375
1760286605647,1410178111,45733,4,0.7958984375,-0.30206298828125,0.43865966796875
1760286605647,1410178111,45733,5,0.781494140625,-0.30401611328125,0.43841552734375
1760286605647,1410178111,45733,6,0.801025390625,-0.29400634765625,0.44256591796875
1760286605647,1410178111,45733,7,0.80517578125,-0.29571533203125,0.43255615234375
1760286605647,1410178111,45733,8,0.79150390625,-0.29913330078125,0.44183349609375
1760286605647,1410178111,45733,9,0.801025390625,-0.30157470703125,0.44232177734375
1760286605647,1410178111,45733,10,0.797607421875,-0.29840087890625,0.44769287109375
1760286605647,1410178111,45733,11,0.778564453125,-0.29595947265625,0.44476318359375
1760286605647,1410178111,45733,12,0.802978515625,-0.29473876953125,0.43450927734375
1760286605647,1410178111,45733,13,0.793701171875,-0.29180908203125,0.44061279296875
1760286605647,1410178111,45733,14,0.811279296875,-0.29718017578125,0.44940185546875
1760286605647,1410178111,45733,15,0.79541015625,-0.29498291015625,0.43670654296875
1760286605647,1410178111,45733,16,0.785400390625,-0.28839111328125,0.45404052734375
1760286605647,1410178111,45733,17,0.784912109375,-0.29205322265625,0.46575927734375
1760286605647,1410178111,45733,18,0.77734375,-0.29083251953125,0.48504638671875
1760286605647,1410178111,45733,19,0.773681640625,-0.30157470703125,0.48529052734375
1760286605647,1410178111,45733,20,0.768798828125,-0.29058837890625,0.47796630859375
1760286605647,1410178111,45733,21,0.75537109375,-0.28936767578125,0.49700927734375
1760286605647,1410178111,45733,22,0.765380859375,-0.27496337890625,0.50164794921875
1760286605647,1410178111,45733,23,0.79248046875,-0.29913330078125,0.50189208984375
1760286605647,1410178111,45733,24,0.75048828125,-0.29205322265625,0.50653076171875
1760286605647,1410178111,45733,25,0.75,-0.27203369140625,0.50848388671875
1760286605647,1410178111,45733,26,0.743896484375,-0.29254150390625,0.53631591796875
1760286605647,1410178111,45733,27,0.732421875,-0.28839111328125,0.52044677734375
1760286605647,1410178111,45733,28,0.748291015625,-0.28302001953125,0.53460693359375
1760286605647,1410178111,45733,29,0.732177734375,-0.28155517578125,0.53948974609375
1760286605647,1410178111,45733,30,0.723876953125,-0.28692626953125,0.55877685546875
1760286605647,1410178111,45733,31,0.705078125,-0.27691650390625,0.55877685546875
1760286608190,1410180654,45734,0,0.7080078125,-0.28594970703125,0.55755615234375
1760286608190,1410180654,45734,1,0.714111328125,-0.27203369140625,0.56341552734375
1760286608190,1410180654,45734,2,0.729248046875,-0.27960205078125,0.55902099609375
1760286608190,1410180654,45734,3,0.72705078125,-0.28936767578125,0.53948974609375
1760286608190,1410180654,45734,4,0.7255859375,-0.27423095703125,0.54974365234375
1760286608190,1410180654,45734,5,0.7177734375,-0.28643798828125,0.58074951171875
1760286608190,1410180654,45734,6,0.731689453125,-0.24981689453125,0.54876708984375
1760286608190,1410180654,45734,7,0.70458984375,-0.26177978515625,0.57855224609375
1760286608190,1410180654,45734,8,0.700927734375,-0.27227783203125,0.56951904296875
1760286608190,1410180654,45734,9,0.705810546875,-0.28204345703125,0.58172607421875
1760286608190,1410180654,45734,10,0.726806640625,-0.27740478515625,0.58074951171875
1760286608190,1410180654,45734,11,0.693359375,-0.27227783203125,0.60491943359375
1760286608190,1410180654,45734,12,0.703369140625,-0.25762939453125,0.58172607421875
1760286608190,1410180654,45734,13,0.715087890625,-0.25982666015625,0.54583740234375
1760286608190,1410180654,45734,14,0.730712890625,-0.30108642578125,0.50799560546875
1760286608190,1410180654,45734,15,0.73974609375,-0.29522705078125,0.51116943359375
1760286608190,1410180654,45734,16,0.73779296875,-0.23980712890625,0.48236083984375
1760286608190,1410180654,45734,17,0.728515625,-0.29840087890625,0.50335693359375
1760286608190,1410180654,45734,18,0.815185546875,-0.34991455078125,0.47210693359375
1760286608190,1410180654,45734,19,0.7958984375,-0.29107666015625,0.44744873046875
1760286608190,1410180654,45734,20,0.774169921875,-0.30010986328125,0.47283935546875
1760286608190,1410180654,45734,21,0.8056640625,-0.28009033203125,0.44769287109375
1760286608190,1410180654,45734,22,0.788330078125,-0.27691650390625,0.44964599609375
1760286608190,1410180654,45734,23,0.7939453125,-0.30181884765625,0.45452880859375
1760286608190,1410180654,45734,24,0.7958984375,-0.29986572265625,0.45477294921875
1760286608190,1410180654,45734,25,0.791259765625,-0.28472900390625,0.45379638671875
1760286608190,1410180654,45734,26,0.796875,-0.28668212890625,0.44769287109375
1760286608190,1410180654,45734,27,0.79541015625,-0.29791259765625,0.45208740234375
1760286608190,1410180654,45734,28,0.785400390625,-0.29937744140625,0.44720458984375
1760286608190,1410180654,45734,29,0.806884765625,-0.29547119140625,0.43865966796875
1760286608190,1410180654,45734,30,0.797607421875,-0.29132080078125,0.44158935546875
1760286608190,1410180654,45734,31,0.791015625,-0.30133056640625,0.44769287109375
1760286610724,1410183197,45735,0,0.797119140625,-0.29937744140625,0.43914794921875
1760286610724,1410183197,45735,1,0.79833984375,-0.29205322265625,0.44305419921875
1760286610724,1410183197,45735,2,0.803466796875,-0.29962158203125,0.43597412109375
1760286610724,1410183197,45735,3,0.790283203125,-0.30084228515625,0.43914794921875
1760286610724,1410183197,45735,4,0.802001953125,-0.28814697265625,0.43377685546875
1760286610724,1410183197,45735,5,0.805908203125,-0.30621337890625,0.43646240234375
1760286610724,1410183197,45735,6,0.793701171875,-0.29913330078125,0.43646240234375
1760286610724,1410183197,45735,7,0.80078125,-0.29766845703125,0.43670654296875
1760286610724,1410183197,45735,8,0.78955078125,-0.30328369140625,0.44256591796875
1760286610724,1410183197,45735,9,0.7939453125,-0.30621337890625,0.43353271484375
1760286610724,1410183197,45735,10,0.79833984375,-0.30523681640625,0.42742919921875
1760286610724,1410183197,45735,11,0.794189453125,-0.30670166015625,0.43743896484375
1760286610724,1410183197,45735,12,0.81201171875,-0.30621337890625,0.43060302734375
1760286610724,1410183197,45735,13,0.803466796875,-0.30963134765625,0.41937255859375
1760286610724,1410183197,45735,14,0.7998046875,-0.30865478515625,0.42498779296875
1760286610724,1410183197,45735,15,0.8017578125,-0.30865478515625,0.42327880859375
1760286610724,1410183197,45735,16,0.8017578125,-0.30572509765625,0.42498779296875
1760286610724,1410183197,45735,17,0.81201171875,-0.30767822265625,0.42449951171875
1760286610724,1410183197,45735,18,0.80029296875,-0.31475830078125,0.40374755859375
1760286610724,1410183197,45735,19,0.811279296875,-0.30889892578125,0.41424560546875
1760286610724,1410183197,45735,20,0.8125,-0.31207275390625,0.41180419921875
1760286610724,1410183197,45735,21,0.80419921875,-0.31109619140625,0.40643310546875
1760286610724,1410183197,45735,22,0.802734375,-0.30889892578125,0.41522216796875
1760286610724,1410183197,45735,23,0.80859375,-0.31427001953125,0.41864013671875
1760286610724,1410183197,45735,24,0.800537109375,-0.30816650390625,0.42352294921875
1760286610724,1410183197,45735,25,0.809326171875,-0.29571533203125,0.42327880859375
1760286610724,1410183197,45735,26,0.793701171875,-0.31378173828125,0.43499755859375
1760286610724,1410183197,45735,27,0.803955078125,-0.30157470703125,0.42352294921875
1760286610724,1410183197,45735,28,0.821044921875,-0.31134033203125,0.41546630859375
1760286610724,1410183197,45735,29,0.790771484375,-0.28204345703125,0.40814208984375
1760286610724,1410183197,45735,30,0.8173828125,-0.29815673828125,0.42816162109375
1760286610724,1410183197,45735,31,0.80810546875,-0.30157470703125,0.41375732421875
1760286613260,1410185740,45736,0,0.817138671875,-0.29498291015625,0.41131591796875
1760286613260,1410185740,45736,1,0.8251953125,-0.30010986328125,0.40106201171875
1760286613260,1410185740,45736,2,0.8154296875,-0.28985595703125,0.40130615234375
1760286613260,1410185740,45736,3,0.8173828125,-0.28277587890625,0.41571044921875
1760286613260,1410185740,45736,4,0.81787109375,-0.29962158203125,0.41302490234375
1760286613260,1410185740,45736,5,0.8056640625,-0.29840087890625,0.41693115234375
1760286613260,1410185740,45736,6,0.811767578125,-0.29180908203125,0.41839599609375
1760286613260,1410185740,45736,7,0.802001953125,-0.28692626953125,0.41424560546875
1760286613260,1410185740,45736,8,0.807373046875,-0.28521728515625,0.42669677734375
1760286613260,1410185740,45736,9,0.805908203125,-0.29058837890625,0.43792724609375
1760286613260,1410185740,45736,10,0.802734375,-0.28375244140625,0.44525146484375
1760286613260,1410185740,45736,11,0.791748046875,-0.31329345703125,0.49432373046875
1760286613260,1410185740,45736,12,0.772705078125,-0.27740478515625,0.47918701171875
1760286613260,1410185740,45736,13,0.798828125,-0.27349853515625,0.48187255859375
1760286613260,1410185740,45736,14,0.785400390625,-0.29498291015625,0.47235107421875
1760286613260,1410185740,45736,15,0.790283203125,-0.28424072265625,0.45477294921875
1760286613260,1410185740,45736,16,0.771728515625,-0.26812744140625,0.46453857421875
1760286613260,1410185740,45736,17,0.787109375,-0.25201416015625,0.45062255859375
1760286613260,1410185740,45736,18,0.76123046875,-0.22662353515625,0.45501708984375
1760286613260,1410185740,45736,19,0.82080078125,-0.31817626953125,0.46331787109375
1760286613260,1410185740,45736,20,0.807861328125,-0.30670166015625,0.42327880859375
1760286613260,1410185740,45736,21,0.7978515625,-0.26226806640625,0.44476318359375
1760286613260,1410185740,45736,22,0.789306640625,-0.30206298828125,0.43597412109375
1760286613260,1410185740,45736,23,0.8046875,-0.29986572265625,0.44964599609375
1760286613260,1410185740,45736,24,0.801513671875,-0.28424072265625,0.43719482421875
1760286613260,1410185740,45736,25,0.802001953125,-0.27960205078125,0.44329833984375
1760286613260,1410185740,45736,26,0.7958984375,-0.28839111328125,0.44500732421875
1760286613260,1410185740,45736,27,0.81103515625,-0.27740478515625,0.42962646484375
1760286613260,1410185740,45736,28,0.819091796875,-0.27569580078125,0.43939208984375
1760286613260,1410185740,45736,29,0.80126953125,-0.28546142578125,0.44403076171875
1760286613260,1410185740,45736,30,0.78466796875,-0.29205322265625,0.44891357421875
1760286613260,1410185740,45736,31,0.78466796875,-0.28741455078125,0.44622802734375
1760286615794,1410188283,45737,0,0.79052734375,-0.29791259765625,0.45208740234375
1760286615794,1410188283,45737,1,0.7978515625,-0.30987548828125,0.44134521484375
1760286615794,1410188283,45737,2,0.78759765625,-0.30523681640625,0.44891357421875
1760286615794,1410188283,45737,3,0.79296875,-0.29351806640625,0.44354248046875
1760286615794,1410188283,45737,4,0.795166015625,-0.31207275390625,0.44403076171875
1760286615794,1410188283,45737,5,0.801025390625,-0.29229736328125,0.42987060546875
1760286615794,1410188283,45737,6,0.80419921875,-0.29669189453125,0.42523193359375
1760286615794,1410188283,45737,7,0.80810546875,-0.31817626953125,0.43084716796875
1760286615794,1410188283,45737,8,0.80029296875,-0.30523681640625,0.41839599609375
1760286615794,1410188283,45737,9,0.807861328125,-0.30548095703125,0.41790771484375
1760286615794,1410188283,45737,10,0.800048828125,-0.31719970703125,0.42474365234375
1760286615794,1410188283,45737,11,0.811767578125,-0.29473876953125,0.42059326171875
1760286615794,1410188283,45737,12,0.80517578125,-0.30767822265625,0.41766357421875
1760286615794,1410188283,45737,13,0.803466796875,-0.30523681640625,0.42034912109375
1760286615794,1410188283,45737,14,0.81201171875,-0.30426025390625,0.42010498046875
1760286615794,1410188283,45737,15,0.805419921875,-0.31207275390625,0.42132568359375
1760286615794,1410188283,45737,16,0.805419921875,-0.30718994140625,0.41741943359375
1760286615794,1410188283,45737,17,0.812255859375,-0.30645751953125,0.41033935546875
1760286615794,1410188283,45737,18,0.807373046875,-0.36895751953125,0.47454833984375
1760286615794,1410188283,45737,19,0.825927734375,-0.28302001953125,0.39447021484375
1760286615794,1410188283,45737,20,0.748779296875,-0.25982666015625,0.44769287109375
1760286615794,1410188283,45737,21,0.78369140625,-0.27789306640625,0.47454833984375
1760286615794,1410188283,45737,22,0.7607421875,-0.28424072265625,0.47479248046875
1760286615794,1410188283,45737,23,0.8056640625,-0.34283447265625,0.45501708984375
1760286615794,1410188283,45737,24,0.784423828125,-0.29840087890625,0.44891357421875
1760286615794,1410188283,45737,25,0.78955078125,-0.28961181640625,0.44964599609375
1760286615794,1410188283,45737,26,0.775146484375,-0.34161376953125,0.45501708984375
1760286615794,1410188283,45737,27,0.794921875,-0.29449462890625,0.44891357421875
1760286615794,1410188283,45737,28,0.787841796875,-0.30401611328125,0.44476318359375
1760286615794,1410188283,45737,29,0.790771484375,-0.31304931640625,0.45184326171875
1760286615794,1410188283,45737,30,0.7958984375,-0.30889892578125,0.44720458984375
1760286615794,1410188283,45737,31,0.7861328125,-0.30865478515625,0.44793701171875
1760286618331,1410190826,45738,0,0.791015625,-0.30010986328125,0.45111083984375
1760286618331,1410190826,45738,1,0.794189453125,-0.29498291015625,0.44281005859375
1760286618331,1410190826,45738,2,0.789794921875,-0.31231689453125,0.44744873046875
1760286618331,1410190826,45738,3,0.8095703125,-0.28570556640625,0.43475341796875
1760286618331,1410190826,45738,4,0.7978515625,-0.29180908203125,0.43328857421875
1760286618331,1410190826,45738,5,0.79833984375,-0.30987548828125,0.43035888671875
1760286618331,1410190826,45738,6,0.80517578125,-0.31402587890625,0.42987060546875
1760286618331,1410190826,45738,7,0.7919921875,-0.30206298828125,0.42962646484375
1760286618331,1410190826,45738,8,0.794921875,-0.31646728515625,0.43353271484375
1760286618331,1410190826,45738,9,0.800048828125,-0.31353759765625,0.42425537109375
1760286618331,1410190826,45738,10,0.801025390625,-0.32110595703125,0.43695068359375
1760286618331,1410190826,45738,11,0.8154296875,-0.28448486328125,0.41302490234375
1760286618331,1410190826,45738,12,0.80224609375,-0.30938720703125,0.42547607421875
1760286618331,1410190826,45738,13,0.800048828125,-0.31768798828125,0.42083740234375
1760286618331,1410190826,45738,14,0.80419921875,-0.31451416015625,0.41937255859375
1760286618331,1410190826,45738,15,0.8056640625,-0.30792236328125,0.41937255859375
1760286618331,1410190826,45738,16,0.808349609375,-0.31427001953125,0.41717529296875
1760286618331,1410190826,45738,17,0.81103515625,-0.31329345703125,0.40594482421875
1760286618331,1410190826,45738,18,0.802001953125,-0.32891845703125,0.41864013671875
1760286618331,1410190826,45738,19,0.811279296875,-0.30255126953125,0.40545654296875
1760286618331,1410190826,45738,20,0.8046875,-0.31524658203125,0.41204833984375
1760286618331,1410190826,45738,21,0.8095703125,-0.31280517578125,0.41180419921875
1760286618331,1410190826,45738,22,0.812744140625,-0.30938720703125,0.40301513671875
1760286618331,1410190826,45738,23,0.80859375,-0.31768798828125,0.39984130859375
1760286618331,1410190826,45738,24,0.8173828125,-0.31231689453125,0.39080810546875
1760286618331,1410190826,45738,25,0.8232421875,-0.33355712890625,0.39691162109375
1760286618331,1410190826,45738,26,0.814697265625,-0.32501220703125,0.38592529296875
1760286618331,1410190826,45738,27,0.809814453125,-0.31329345703125,0.39300537109375
1760286618331,1410190826,45738,28,0.824951171875,-0.32427978515625,0.38519287109375
1760286618331,1410190826,45738,29,0.820556640625,-0.31549072265625,0.38690185546875
1760286618331,1410190826,45738,30,0.815185546875,-0.32550048828125,0.38616943359375
1760286618331,1410190826,45738,31,0.8173828125,-0.31231689453125,0.37835693359375
1760286621057,1410193370,45739,0,0.82763671875,-0.32916259765625,0.38861083984375
1760286621057,1410193370,45739,1,0.822998046875,-0.31939697265625,0.37738037109375
