receivedPhoneTimestamp,respeckTimestamp,packetSeqNum,sampleSeqNum,accelX,accelY,accelZ
1760283909125,1407485125,44674,31,-0.1103515625,-1.03521728515625,-0.28179931640625
1760283911658,1407487668,44675,0,-0.107666015625,-0.99932861328125,-0.27789306640625
1760283911658,1407487668,44675,1,-0.18896484375,-0.94781494140625,-0.15338134765625
1760283911658,1407487668,44675,2,-0.185546875,-1.02716064453125,-0.29693603515625
1760283911658,1407487668,44675,3,-0.135498046875,-0.95196533203125,-0.30181884765625
1760283911658,1407487668,44675,4,-0.158203125,-0.98760986328125,-0.33843994140625
1760283911658,1407487668,44675,5,-0.192138671875,-1.00909423828125,-0.32305908203125
1760283911658,1407487668,44675,6,-0.13916015625,-0.95782470703125,-0.34259033203125
1760283911658,1407487668,44675,7,-0.138671875,-0.96539306640625,-0.40093994140625
1760283911658,1407487668,44675,8,-0.185302734375,-0.98004150390625,-0.33453369140625
1760283911658,1407487668,44675,9,-0.107666015625,-0.90631103515625,-0.40313720703125
1760283911658,1407487668,44675,10,-0.1806640625,-0.99078369140625,-0.35479736328125
1760283911658,1407487668,44675,11,-0.156982421875,-1.02789306640625,-0.35040283203125
1760283911658,1407487668,44675,12,-0.1142578125,-0.93682861328125,-0.33038330078125
1760283911658,1407487668,44675,13,-0.18212890625,-1.03375244140625,-0.24249267578125
1760283911658,1407487668,44675,14,-0.1689453125,-0.96221923828125,-0.23590087890625
1760283911658,1407487668,44675,15,-0.0556640625,-0.96929931640625,-0.35064697265625
1760283911658,1407487668,44675,16,-0.247802734375,-1.01837158203125,-0.23101806640625
1760283911658,1407487668,44675,17,-0.16845703125,-0.96954345703125,-0.29327392578125
1760283911658,1407487668,44675,18,-0.07080078125,-0.95880126953125,-0.40802001953125
1760283911658,1407487668,44675,19,-0.136474609375,-0.96343994140625,-0.42633056640625
1760283911658,1407487668,44675,20,-0.0791015625,-0.92755126953125,-0.39947509765625
1760283911658,1407487668,44675,21,-0.157470703125,-0.98931884765625,-0.37213134765625
1760283911658,1407487668,44675,22,-0.1201171875,-0.88458251953125,-0.42388916015625
1760283911658,1407487668,44675,23,-0.156982421875,-1.04132080078125,-0.40533447265625
1760283911658,1407487668,44675,24,-0.127197265625,-0.90655517578125,-0.34283447265625
1760283911658,1407487668,44675,25,-0.2001953125,-1.03741455078125,-0.31793212890625
1760283911658,1407487668,44675,26,-0.2060546875,-0.93487548828125,-0.24468994140625
1760283911658,1407487668,44675,27,-0.074951171875,-0.96685791015625,-0.30596923828125
1760283911658,1407487668,44675,28,-0.197265625,-1.04107666015625,-0.24737548828125
1760283911658,1407487668,44675,29,-0.19970703125,-0.96929931640625,-0.34698486328125
1760283911658,1407487668,44675,30,-0.084228515625,-0.96124267578125,-0.35821533203125
1760283911658,1407487668,44675,31,-0.181884765625,-0.96368408203125,-0.33648681640625
1760283914191,1407490211,44676,0,-0.14404296875,-0.96612548828125,-0.39678955078125
1760283914191,1407490211,44676,1,-0.12744140625,-0.94244384765625,-0.38238525390625
1760283914191,1407490211,44676,2,-0.180908203125,-0.96124267578125,-0.42730712890625
1760283914191,1407490211,44676,3,-0.131591796875,-0.94024658203125,-0.37823486328125
1760283914191,1407490211,44676,4,-0.128173828125,-0.90826416015625,-0.43951416015625
1760283914191,1407490211,44676,5,-0.1416015625,-0.98858642578125,-0.47125244140625
1760283914191,1407490211,44676,6,-0.150390625,-0.92095947265625,-0.43634033203125
1760283914191,1407490211,44676,7,-0.082275390625,-0.93902587890625,-0.44732666015625
1760283914191,1407490211,44676,8,-0.145751953125,-0.95196533203125,-0.39727783203125
1760283914191,1407490211,44676,9,-0.151123046875,-1.02203369140625,-0.36138916015625
1760283914191,1407490211,44676,10,-0.099853515625,-0.94903564453125,-0.38262939453125
1760283914191,1407490211,44676,11,-0.243408203125,-0.92657470703125,-0.34234619140625
1760283914191,1407490211,44676,12,-0.1513671875,-0.98150634765625,-0.28179931640625
1760283914191,1407490211,44676,13,-0.11962890625,-0.96563720703125,-0.36676025390625
1760283914191,1407490211,44676,14,-0.197265625,-0.97198486328125,-0.36456298828125
1760283914191,1407490211,44676,15,-0.074462890625,-0.92877197265625,-0.44854736328125
1760283914191,1407490211,44676,16,-0.118896484375,-0.94952392578125,-0.39019775390625
1760283914191,1407490211,44676,17,-0.15087890625,-0.93292236328125,-0.42095947265625
1760283914191,1407490211,44676,18,-0.148193359375,-0.98492431640625,-0.39019775390625
1760283914191,1407490211,44676,19,-0.0771484375,-0.90313720703125,-0.43780517578125
1760283914191,1407490211,44676,20,-0.169189453125,-0.97589111328125,-0.46197509765625
1760283914191,1407490211,44676,21,-0.1328125,-0.91094970703125,-0.40826416015625
1760283914191,1407490211,44676,22,-0.11474609375,-0.93341064453125,-0.45562744140625
1760283914191,1407490211,44676,23,-0.150634765625,-0.96075439453125,-0.43292236328125
1760283914191,1407490211,44676,24,-0.088623046875,-0.95806884765625,-0.41632080078125
1760283914191,1407490211,44676,25,-0.177490234375,-0.91363525390625,-0.45001220703125
1760283914191,1407490211,44676,26,-0.096435546875,-0.90191650390625,-0.47100830078125
1760283914191,1407490211,44676,27,-0.1142578125,-0.93145751953125,-0.47174072265625
1760283914191,1407490211,44676,28,-0.080810546875,-0.91900634765625,-0.46710205078125
1760283914191,1407490211,44676,29,-0.1884765625,-0.97052001953125,-0.38165283203125
1760283914191,1407490211,44676,30,-0.100341796875,-0.89044189453125,-0.43780517578125
1760283914191,1407490211,44676,31,-0.14599609375,-0.96881103515625,-0.45465087890625
1760283916729,1407492754,44677,0,-0.126220703125,-0.92169189453125,-0.43267822265625
1760283916729,1407492754,44677,1,-0.138671875,-0.97637939453125,-0.45074462890625
1760283916729,1407492754,44677,2,-0.09716796875,-0.91632080078125,-0.42510986328125
1760283916729,1407492754,44677,3,-0.10986328125,-0.93853759765625,-0.43389892578125
1760283916729,1407492754,44677,4,-0.191650390625,-0.95147705078125,-0.38824462890625
1760283916729,1407492754,44677,5,-0.107421875,-0.93658447265625,-0.43218994140625
1760283916729,1407492754,44677,6,-0.138671875,-0.94146728515625,-0.43487548828125
1760283916729,1407492754,44677,7,-0.194580078125,-0.99591064453125,-0.38189697265625
1760283916729,1407492754,44677,8,-0.117919921875,-0.89288330078125,-0.38238525390625
1760283916729,1407492754,44677,9,-0.11279296875,-1.03448486328125,-0.34259033203125
1760283916729,1407492754,44677,10,-0.26220703125,-0.97491455078125,-0.27154541015625
1760283916729,1407492754,44677,11,-0.109619140625,-0.94732666015625,-0.31597900390625
1760283916729,1407492754,44677,12,-0.1943359375,-0.98931884765625,-0.30133056640625
1760283916729,1407492754,44677,13,-0.12744140625,-1.00421142578125,-0.34112548828125
1760283916729,1407492754,44677,14,-0.212646484375,-0.94635009765625,-0.29473876953125
1760283916729,1407492754,44677,15,-0.10498046875,-0.95074462890625,-0.40289306640625
1760283916729,1407492754,44677,16,-0.10009765625,-0.97857666015625,-0.36041259765625
1760283916729,1407492754,44677,17,-0.293701171875,-1.02252197265625,-0.31329345703125
1760283916729,1407492754,44677,18,-0.193115234375,-0.95123291015625,-0.27056884765625
1760283916729,1407492754,44677,19,-0.209716796875,-1.01031494140625,-0.24981689453125
1760283916729,1407492754,44677,20,-0.23193359375,-0.96051025390625,-0.25714111328125
1760283916729,1407492754,44677,21,-0.136962890625,-0.94146728515625,-0.28839111328125
1760283916729,1407492754,44677,22,-0.25244140625,-1.00347900390625,-0.24664306640625
1760283916729,1407492754,44677,23,-0.18310546875,-0.98565673828125,-0.33673095703125
1760283916729,1407492754,44677,24,-0.20703125,-0.94097900390625,-0.41851806640625
1760283916729,1407492754,44677,25,-0.07763671875,-0.92999267578125,-0.48004150390625
1760283916729,1407492754,44677,26,-0.18798828125,-0.92266845703125,-0.47369384765625
1760283916729,1407492754,44677,27,-0.196044921875,-0.93267822265625,-0.37457275390625
1760283916729,1407492754,44677,28,-0.0966796875,-0.89703369140625,-0.56182861328125
1760283916729,1407492754,44677,29,-0.185302734375,-0.90655517578125,-0.43341064453125
1760283916729,1407492754,44677,30,-0.083740234375,-0.91021728515625,-0.46124267578125
1760283916729,1407492754,44677,31,-0.16259765625,-0.97296142578125,-0.47222900390625
1760283919263,1407495297,44678,0,-0.212890625,-0.92486572265625,-0.43023681640625
1760283919263,1407495297,44678,1,-0.076416015625,-0.91680908203125,-0.45465087890625
1760283919263,1407495297,44678,2,-0.14404296875,-0.92584228515625,-0.47027587890625
1760283919263,1407495297,44678,3,-0.197509765625,-0.95611572265625,-0.41583251953125
1760283919263,1407495297,44678,4,-0.134765625,-0.89019775390625,-0.42852783203125
1760283919263,1407495297,44678,5,-0.174560546875,-0.95098876953125,-0.43194580078125
1760283919263,1407495297,44678,6,-0.198974609375,-0.96368408203125,-0.37799072265625
1760283919263,1407495297,44678,7,-0.166015625,-0.94000244140625,-0.43609619140625
1760283919263,1407495297,44678,8,-0.20654296875,-0.96856689453125,-0.40826416015625
1760283919263,1407495297,44678,9,-0.234619140625,-0.96588134765625,-0.28131103515625
1760283919263,1407495297,44678,10,-0.169189453125,-0.95098876953125,-0.29913330078125
1760283919263,1407495297,44678,11,-0.160400390625,-0.98638916015625,-0.31671142578125
1760283919263,1407495297,44678,12,-0.273193359375,-0.96343994140625,-0.27056884765625
1760283919263,1407495297,44678,13,-0.110107421875,-0.94268798828125,-0.43267822265625
1760283919263,1407495297,44678,14,-0.118408203125,-0.93634033203125,-0.43072509765625
1760283919263,1407495297,44678,15,-0.1669921875,-0.98077392578125,-0.39776611328125
1760283919263,1407495297,44678,16,-0.1455078125,-0.94927978515625,-0.39727783203125
1760283919263,1407495297,44678,17,-0.189697265625,-0.94439697265625,-0.39215087890625
1760283919263,1407495297,44678,18,-0.1630859375,-0.94561767578125,-0.42681884765625
1760283919263,1407495297,44678,19,-0.13916015625,-0.91339111328125,-0.42828369140625
1760283919263,1407495297,44678,20,-0.17333984375,-0.97711181640625,-0.37799072265625
1760283919263,1407495297,44678,21,-0.23193359375,-0.99322509765625,-0.37359619140625
1760283919263,1407495297,44678,22,-0.14697265625,-0.90045166015625,-0.38214111328125
1760283919263,1407495297,44678,23,-0.246826171875,-1.02032470703125,-0.27423095703125
1760283919263,1407495297,44678,24,-0.11865234375,-0.91119384765625,-0.33843994140625
1760283919263,1407495297,44678,25,-0.20458984375,-1.02056884765625,-0.37579345703125
1760283919263,1407495297,44678,26,-0.186279296875,-0.93780517578125,-0.29791259765625
1760283919263,1407495297,44678,27,-0.098388671875,-0.92535400390625,-0.42437744140625
1760283919263,1407495297,44678,28,-0.1435546875,-0.93829345703125,-0.46368408203125
1760283919263,1407495297,44678,29,-0.121337890625,-0.91436767578125,-0.47662353515625
1760283919263,1407495297,44678,30,-0.16162109375,-0.93072509765625,-0.44732666015625
1760283919263,1407495297,44678,31,-0.190185546875,-0.95538330078125,-0.43316650390625
1760283921797,1407497840,44679,0,-0.140380859375,-0.86212158203125,-0.52008056640625
1760283921797,1407497840,44679,1,-0.14599609375,-0.92950439453125,-0.47540283203125
1760283921797,1407497840,44679,2,-0.1650390625,-0.92828369140625,-0.47418212890625
1760283921797,1407497840,44679,3,-0.124755859375,-0.88800048828125,-0.48419189453125
1760283921797,1407497840,44679,4,-0.1484375,-0.95220947265625,-0.47393798828125
1760283921797,1407497840,44679,5,-0.119873046875,-0.91729736328125,-0.45220947265625
1760283921797,1407497840,44679,6,-0.248779296875,-0.95343017578125,-0.40826416015625
1760283921797,1407497840,44679,7,-0.15673828125,-0.97052001953125,-0.33966064453125
1760283921797,1407497840,44679,8,-0.1083984375,-0.94488525390625,-0.30670166015625
1760283921797,1407497840,44679,9,-0.126220703125,-1.01007080078125,-0.38409423828125
1760283921797,1407497840,44679,10,-0.21435546875,-0.94512939453125,-0.27423095703125
1760283921797,1407497840,44679,11,-0.232421875,-0.94488525390625,-0.37237548828125
1760283921797,1407497840,44679,12,-0.174560546875,-0.95465087890625,-0.43829345703125
1760283921797,1407497840,44679,13,-0.2255859375,-0.95831298828125,-0.36627197265625
1760283921797,1407497840,44679,14,-0.184814453125,-0.89605712890625,-0.42218017578125
1760283921797,1407497840,44679,15,-0.225341796875,-0.95513916015625,-0.40924072265625
1760283921797,1407497840,44679,16,-0.174560546875,-0.91192626953125,-0.42901611328125
1760283921797,1407497840,44679,17,-0.2216796875,-0.95001220703125,-0.42413330078125
1760283921797,1407497840,44679,18,-0.219970703125,-0.95758056640625,-0.40679931640625
1760283921797,1407497840,44679,19,-0.160888671875,-0.89361572265625,-0.43121337890625
1760283921797,1407497840,44679,20,-0.253173828125,-0.95050048828125,-0.44927978515625
1760283921797,1407497840,44679,21,-0.2060546875,-0.91729736328125,-0.41827392578125
1760283921797,1407497840,44679,22,-0.186279296875,-0.92755126953125,-0.41632080078125
1760283921797,1407497840,44679,23,-0.1416015625,-0.91632080078125,-0.44097900390625
1760283921797,1407497840,44679,24,-0.153564453125,-0.93218994140625,-0.43780517578125
1760283921797,1407497840,44679,25,-0.2109375,-0.94610595703125,-0.44317626953125
1760283921797,1407497840,44679,26,-0.146728515625,-0.94317626953125,-0.40118408203125
1760283921797,1407497840,44679,27,-0.08447265625,-0.89556884765625,-0.50299072265625
1760283921797,1407497840,44679,28,-0.19970703125,-0.96759033203125,-0.43414306640625
1760283921797,1407497840,44679,29,-0.160400390625,-0.91534423828125,-0.40093994140625
1760283921797,1407497840,44679,30,-0.175537109375,-0.93804931640625,-0.44757080078125
1760283921797,1407497840,44679,31,-0.192626953125,-0.92950439453125,-0.45025634765625
1760283924332,1407500383,44680,0,-0.10302734375,-0.88946533203125,-0.49298095703125
1760283924332,1407500383,44680,1,-0.2080078125,-0.92950439453125,-0.42950439453125
1760283924332,1407500383,44680,2,-0.15869140625,-0.93218994140625,-0.46417236328125
1760283924332,1407500383,44680,3,-0.143798828125,-0.91070556640625,-0.46563720703125
1760283924332,1407500383,44680,4,-0.19091796875,-0.96588134765625,-0.41143798828125
1760283924332,1407500383,44680,5,-0.147216796875,-0.92852783203125,-0.38116455078125
1760283924332,1407500383,44680,6,-0.22265625,-0.99273681640625,-0.36529541015625
1760283924332,1407500383,44680,7,-0.19482421875,-0.95074462890625,-0.32720947265625
1760283924332,1407500383,44680,8,-0.136474609375,-0.99859619140625,-0.32159423828125
1760283924332,1407500383,44680,9,-0.156494140625,-0.93341064453125,-0.33575439453125
1760283924332,1407500383,44680,10,-0.217529296875,-1.01715087890625,-0.32110595703125
1760283924332,1407500383,44680,11,-0.1044921875,-0.90045166015625,-0.44342041015625
1760283924332,1407500383,44680,12,-0.173583984375,-0.94439697265625,-0.41925048828125
1760283924332,1407500383,44680,13,-0.134033203125,-0.96539306640625,-0.42462158203125
1760283924332,1407500383,44680,14,-0.157958984375,-0.90533447265625,-0.42486572265625
1760283924332,1407500383,44680,15,-0.15283203125,-0.91802978515625,-0.44635009765625
1760283924332,1407500383,44680,16,-0.180419921875,-0.95391845703125,-0.45391845703125
1760283924332,1407500383,44680,17,-0.1494140625,-0.90606689453125,-0.44268798828125
1760283924332,1407500383,44680,18,-0.12939453125,-0.92584228515625,-0.45294189453125
1760283924332,1407500383,44680,19,-0.130615234375,-0.95245361328125,-0.43951416015625
1760283924332,1407500383,44680,20,-0.152587890625,-0.96026611328125,-0.41802978515625
1760283924332,1407500383,44680,21,-0.244384765625,-0.95050048828125,-0.39874267578125
1760283924332,1407500383,44680,22,-0.081298828125,-0.94195556640625,-0.36676025390625
1760283924332,1407500383,44680,23,-0.159912109375,-0.98101806640625,-0.34942626953125
1760283924332,1407500383,44680,24,-0.04443359375,-0.98321533203125,-0.36846923828125
1760283924332,1407500383,44680,25,-0.201416015625,-0.93780517578125,-0.36383056640625
1760283924332,1407500383,44680,26,-0.06201171875,-0.89947509765625,-0.46270751953125
1760283924332,1407500383,44680,27,-0.14208984375,-0.98004150390625,-0.41534423828125
1760283924332,1407500383,44680,28,-0.13037109375,-0.94586181640625,-0.41265869140625
1760283924332,1407500383,44680,29,-0.0810546875,-0.94586181640625,-0.49078369140625
1760283924332,1407500383,44680,30,-0.151123046875,-0.90533447265625,-0.43267822265625
1760283924332,1407500383,44680,31,-0.114990234375,-0.92999267578125,-0.47296142578125
1760283926867,1407502926,44681,0,-0.111328125,-0.92877197265625,-0.46466064453125
1760283926867,1407502926,44681,1,-0.116455078125,-0.91119384765625,-0.49591064453125
1760283926867,1407502926,44681,2,-0.088134765625,-0.90289306640625,-0.51715087890625
1760283926867,1407502926,44681,3,-0.175537109375,-0.92999267578125,-0.44854736328125
1760283926867,1407502926,44681,4,-0.0810546875,-0.89947509765625,-0.49005126953125
1760283926867,1407502926,44681,5,-0.100341796875,-0.93023681640625,-0.49029541015625
1760283926867,1407502926,44681,6,-0.11181640625,-0.92681884765625,-0.50103759765625
1760283926867,1407502926,44681,7,-0.089599609375,-0.89532470703125,-0.49102783203125
1760283926867,1407502926,44681,8,-0.120849609375,-0.91510009765625,-0.46929931640625
1760283926867,1407502926,44681,9,-0.053466796875,-0.93438720703125,-0.50860595703125
1760283926867,1407502926,44681,10,-0.16162109375,-0.94000244140625,-0.36480712890625
1760283926867,1407502926,44681,11,-0.08740234375,-0.94097900390625,-0.46051025390625
1760283926867,1407502926,44681,12,-0.017822265625,-0.88311767578125,-0.54156494140625
1760283926867,1407502926,44681,13,-0.115478515625,-0.94561767578125,-0.45123291015625
1760283926867,1407502926,44681,14,-0.041259765625,-0.92340087890625,-0.45465087890625
1760283926867,1407502926,44681,15,-0.063720703125,-0.91583251953125,-0.47711181640625
1760283926867,1407502926,44681,16,-0.175048828125,-0.93951416015625,-0.44390869140625
1760283926867,1407502926,44681,17,-0.057373046875,-0.89190673828125,-0.49688720703125
1760283926867,1407502926,44681,18,-0.075927734375,-0.91607666015625,-0.48321533203125
1760283926867,1407502926,44681,19,-0.16650390625,-0.98004150390625,-0.45489501953125
1760283926867,1407502926,44681,20,-0.076171875,-0.84844970703125,-0.53009033203125
1760283926867,1407502926,44681,21,-0.107177734375,-0.96881103515625,-0.45343017578125
1760283926867,1407502926,44681,22,-0.06396484375,-0.93634033203125,-0.35601806640625
1760283926867,1407502926,44681,23,-0.12939453125,-1.00982666015625,-0.33233642578125
1760283926867,1407502926,44681,24,-0.0517578125,-0.94537353515625,-0.37921142578125
1760283926867,1407502926,44681,25,-0.07568359375,-1.01007080078125,-0.40289306640625
1760283926867,1407502926,44681,26,-0.13916015625,-0.91607666015625,-0.29742431640625
1760283926867,1407502926,44681,27,-0.081298828125,-0.95635986328125,-0.42828369140625
1760283926867,1407502926,44681,28,-0.07373046875,-0.94268798828125,-0.50347900390625
1760283926867,1407502926,44681,29,-0.104248046875,-0.90386962890625,-0.45562744140625
1760283926867,1407502926,44681,30,-0.070556640625,-0.91387939453125,-0.50811767578125
1760283926867,1407502926,44681,31,-0.139404296875,-0.93780517578125,-0.42462158203125
1760283929402,1407505469,44682,0,-0.093994140625,-0.90533447265625,-0.47442626953125
1760283929402,1407505469,44682,1,-0.109375,-0.93951416015625,-0.49322509765625
1760283929402,1407505469,44682,2,-0.123779296875,-0.89605712890625,-0.48541259765625
1760283929402,1407505469,44682,3,-0.099609375,-0.91778564453125,-0.51251220703125
1760283929402,1407505469,44682,4,-0.10400390625,-0.91802978515625,-0.47174072265625
1760283929402,1407505469,44682,5,-0.140625,-0.97906494140625,-0.46392822265625
1760283929402,1407505469,44682,6,-0.052490234375,-0.90264892578125,-0.44146728515625
1760283929402,1407505469,44682,7,-0.2060546875,-0.94854736328125,-0.41680908203125
1760283929402,1407505469,44682,8,-0.053955078125,-0.94000244140625,-0.36480712890625
1760283929402,1407505469,44682,9,-0.122802734375,-0.97906494140625,-0.39068603515625
1760283929402,1407505469,44682,10,-0.127197265625,-0.95025634765625,-0.34869384765625
1760283929402,1407505469,44682,11,-0.045654296875,-0.91094970703125,-0.46026611328125
1760283929402,1407505469,44682,12,-0.043701171875,-0.95269775390625,-0.48394775390625
1760283929402,1407505469,44682,13,-0.122802734375,-0.95245361328125,-0.41998291015625
1760283929402,1407505469,44682,14,-0.059326171875,-0.93145751953125,-0.46441650390625
1760283929402,1407505469,44682,15,-0.113037109375,-0.93609619140625,-0.44049072265625
1760283929402,1407505469,44682,16,-0.129150390625,-0.91339111328125,-0.46905517578125
1760283929402,1407505469,44682,17,-0.109619140625,-0.94488525390625,-0.42071533203125
1760283929402,1407505469,44682,18,-0.105712890625,-0.97613525390625,-0.44073486328125
1760283929402,1407505469,44682,19,-0.125244140625,-0.88751220703125,-0.45513916015625
1760283929402,1407505469,44682,20,-0.13916015625,-0.97564697265625,-0.42584228515625
1760283929402,1407505469,44682,21,-0.056884765625,-0.91119384765625,-0.36798095703125
1760283929402,1407505469,44682,22,-0.08740234375,-1.00006103515625,-0.43658447265625
1760283929402,1407505469,44682,23,-0.128662109375,-0.94317626953125,-0.38629150390625
1760283929402,1407505469,44682,24,-0.05615234375,-0.90045166015625,-0.48052978515625
1760283929402,1407505469,44682,25,-0.04150390625,-0.96173095703125,-0.42388916015625
1760283929402,1407505469,44682,26,-0.095947265625,-0.93878173828125,-0.45733642578125
1760283929402,1407505469,44682,27,-0.091552734375,-0.94390869140625,-0.45660400390625
1760283929402,1407505469,44682,28,-0.1083984375,-0.93975830078125,-0.44342041015625
1760283929402,1407505469,44682,29,-0.11328125,-0.91314697265625,-0.45904541015625
1760283929402,1407505469,44682,30,-0.092529296875,-0.92340087890625,-0.43756103515625
1760283929402,1407505469,44682,31,-0.115966796875,-0.95465087890625,-0.46246337890625
1760283931938,1407508012,44683,0,-0.083984375,-0.91754150390625,-0.45172119140625
1760283931938,1407508012,44683,1,-0.133544921875,-0.97857666015625,-0.41656494140625
1760283931938,1407508012,44683,2,-0.11474609375,-0.97540283203125,-0.38946533203125
1760283931938,1407508012,44683,3,-0.18212890625,-0.94781494140625,-0.34454345703125
1760283931938,1407508012,44683,4,-0.130859375,-0.97271728515625,-0.30645751953125
1760283931938,1407508012,44683,5,-0.1240234375,-0.97174072265625,-0.32208251953125
1760283931938,1407508012,44683,6,-0.07275390625,-0.99884033203125,-0.36920166015625
1760283931938,1407508012,44683,7,-0.25341796875,-0.97222900390625,-0.26544189453125
1760283931938,1407508012,44683,8,-0.06103515625,-0.90533447265625,-0.50592041015625
1760283931938,1407508012,44683,9,-0.18505859375,-0.92218017578125,-0.43267822265625
1760283931938,1407508012,44683,10,-0.164794921875,-0.93414306640625,-0.44293212890625
1760283931938,1407508012,44683,11,-0.20654296875,-0.99835205078125,-0.45953369140625
1760283931938,1407508012,44683,12,-0.104248046875,-0.85382080078125,-0.45928955078125
1760283931938,1407508012,44683,13,-0.156005859375,-0.91339111328125,-0.50299072265625
1760283931938,1407508012,44683,14,-0.20849609375,-0.91387939453125,-0.43707275390625
1760283931938,1407508012,44683,15,-0.1845703125,-0.93072509765625,-0.46002197265625
1760283931938,1407508012,44683,16,-0.165283203125,-0.88751220703125,-0.50030517578125
1760283931938,1407508012,44683,17,-0.17626953125,-0.90533447265625,-0.46978759765625
1760283931938,1407508012,44683,18,-0.1552734375,-0.91241455078125,-0.50152587890625
1760283931938,1407508012,44683,19,-0.1953125,-0.93194580078125,-0.46807861328125
1760283931938,1407508012,44683,20,-0.083251953125,-0.88311767578125,-0.48760986328125
1760283931938,1407508012,44683,21,-0.123046875,-0.92926025390625,-0.53204345703125
1760283931938,1407508012,44683,22,-0.144775390625,-0.90362548828125,-0.46466064453125
1760283931938,1407508012,44683,23,-0.17138671875,-0.96417236328125,-0.36920166015625
1760283931938,1407508012,44683,24,-0.14404296875,-0.95684814453125,-0.34576416015625
1760283931938,1407508012,44683,25,-0.120361328125,-0.95025634765625,-0.34918212890625
1760283931938,1407508012,44683,26,-0.144287109375,-0.96466064453125,-0.38580322265625
1760283931938,1407508012,44683,27,-0.1982421875,-0.96343994140625,-0.38067626953125
1760283931938,1407508012,44683,28,-0.089599609375,-0.91436767578125,-0.54449462890625
1760283931938,1407508012,44683,29,-0.189697265625,-0.92486572265625,-0.46490478515625
1760283931938,1407508012,44683,30,-0.083740234375,-0.85552978515625,-0.54620361328125
1760283931938,1407508012,44683,31,-0.139404296875,-0.90704345703125,-0.55572509765625
1760283934473,1407510555,44684,0,-0.15478515625,-0.86358642578125,-0.44854736328125
1760283934473,1407510555,44684,1,-0.119384765625,-0.90289306640625,-0.61016845703125
1760283934473,1407510555,44684,2,-0.145751953125,-0.89141845703125,-0.48272705078125
1760283934473,1407510555,44684,3,-0.135498046875,-0.87115478515625,-0.52813720703125
1760283934473,1407510555,44684,4,-0.122314453125,-0.94049072265625,-0.56109619140625
1760283934473,1407510555,44684,5,-0.200927734375,-0.89093017578125,-0.40582275390625
1760283934473,1407510555,44684,6,-0.102783203125,-0.91363525390625,-0.53155517578125
1760283934473,1407510555,44684,7,-0.18408203125,-0.86724853515625,-0.55645751953125
1760283934473,1407510555,44684,8,-0.160400390625,-0.88311767578125,-0.51055908203125
1760283934473,1407510555,44684,9,-0.1494140625,-0.88165283203125,-0.53912353515625
1760283934473,1407510555,44684,10,-0.15576171875,-0.89337158203125,-0.54986572265625
1760283934473,1407510555,44684,11,-0.1171875,-0.87359619140625,-0.50225830078125
1760283934473,1407510555,44684,12,-0.14599609375,-0.91632080078125,-0.50933837890625
1760283934473,1407510555,44684,13,-0.066650390625,-0.92633056640625,-0.46661376953125
1760283934473,1407510555,44684,14,-0.1494140625,-0.93878173828125,-0.44537353515625
1760283934473,1407510555,44684,15,-0.107666015625,-0.92828369140625,-0.40118408203125
1760283934473,1407510555,44684,16,-0.1044921875,-0.95977783203125,-0.44854736328125
1760283934473,1407510555,44684,17,-0.1591796875,-0.90167236328125,-0.48931884765625
1760283934473,1407510555,44684,18,-0.043212890625,-0.87896728515625,-0.60430908203125
1760283934473,1407510555,44684,19,-0.124755859375,-0.85040283203125,-0.51080322265625
1760283934473,1407510555,44684,20,-0.08837890625,-0.90338134765625,-0.53594970703125
1760283934473,1407510555,44684,21,-0.086181640625,-0.88677978515625,-0.54718017578125
1760283934473,1407510555,44684,22,-0.15087890625,-0.95635986328125,-0.52838134765625
1760283934473,1407510555,44684,23,-0.103759765625,-0.87945556640625,-0.50665283203125
1760283934473,1407510555,44684,24,-0.130126953125,-0.89337158203125,-0.49493408203125
1760283934473,1407510555,44684,25,-0.1630859375,-0.95513916015625,-0.41363525390625
1760283934473,1407510555,44684,26,-0.17236328125,-0.97882080078125,-0.35797119140625
1760283934473,1407510555,44684,27,-0.15673828125,-0.89630126953125,-0.43658447265625
1760283934473,1407510555,44684,28,-0.13037109375,-0.96270751953125,-0.47052001953125
1760283934473,1407510555,44684,29,-0.154541015625,-0.92779541015625,-0.38189697265625
1760283934473,1407510555,44684,30,-0.080810546875,-0.89556884765625,-0.53961181640625
1760283934473,1407510555,44684,31,-0.070068359375,-0.89263916015625,-0.57794189453125
1760283937007,1407513098,44685,0,-0.120849609375,-0.87115478515625,-0.50396728515625
1760283937007,1407513098,44685,1,-0.072509765625,-0.88848876953125,-0.54620361328125
1760283937007,1407513098,44685,2,-0.137451171875,-0.89825439453125,-0.50054931640625
1760283937007,1407513098,44685,3,-0.08251953125,-0.89385986328125,-0.55889892578125
1760283937007,1407513098,44685,4,-0.07958984375,-0.92193603515625,-0.51031494140625
1760283937007,1407513098,44685,5,-0.104248046875,-0.85943603515625,-0.51495361328125
1760283937007,1407513098,44685,6,-0.083251953125,-0.92999267578125,-0.56817626953125
1760283937007,1407513098,44685,7,-0.106201171875,-0.86627197265625,-0.46588134765625
1760283937007,1407513098,44685,8,-0.065185546875,-0.90582275390625,-0.53302001953125
1760283937007,1407513098,44685,9,-0.090576171875,-0.90435791015625,-0.51568603515625
1760283937007,1407513098,44685,10,-0.129150390625,-0.92779541015625,-0.48126220703125
1760283937007,1407513098,44685,11,-0.095458984375,-0.86993408203125,-0.52838134765625
1760283937007,1407513098,44685,12,-0.12060546875,-0.92535400390625,-0.54376220703125
1760283937007,1407513098,44685,13,-0.06396484375,-0.89703369140625,-0.43756103515625
1760283937007,1407513098,44685,14,-0.1318359375,-0.96124267578125,-0.49981689453125
1760283937007,1407513098,44685,15,-0.062744140625,-0.90460205078125,-0.41607666015625
1760283937007,1407513098,44685,16,-0.087646484375,-0.92218017578125,-0.54595947265625
1760283937007,1407513098,44685,17,-0.038818359375,-0.87481689453125,-0.55255126953125
1760283937007,1407513098,44685,18,-0.092529296875,-0.88287353515625,-0.53228759765625
1760283937007,1407513098,44685,19,-0.085205078125,-0.88238525390625,-0.53790283203125
1760283937007,1407513098,44685,20,-0.074951171875,-0.89410400390625,-0.50103759765625
1760283937007,1407513098,44685,21,-0.04931640625,-0.97467041015625,-0.49200439453125
1760283937007,1407513098,44685,22,-0.136962890625,-0.82183837890625,-0.53424072265625
1760283937007,1407513098,44685,23,-0.155517578125,-0.99249267578125,-0.44000244140625
1760283937007,1407513098,44685,24,-0.089599609375,-0.95245361328125,-0.32550048828125
1760283937007,1407513098,44685,25,-0.133056640625,-0.95220947265625,-0.37091064453125
1760283937007,1407513098,44685,26,-0.06201171875,-0.96319580078125,-0.45098876953125
1760283937007,1407513098,44685,27,-0.194580078125,-0.95123291015625,-0.35333251953125
1760283937007,1407513098,44685,28,-0.104248046875,-0.91973876953125,-0.48809814453125
1760283937007,1407513098,44685,29,-0.06640625,-0.87554931640625,-0.58087158203125
1760283937007,1407513098,44685,30,-0.16357421875,-0.88922119140625,-0.48736572265625
1760283937007,1407513098,44685,31,-0.061279296875,-0.91143798828125,-0.51568603515625
1760283939739,1407515641,44686,0,-0.086181640625,-0.90924072265625,-0.53863525390625
1760283939739,1407515641,44686,1,-0.133544921875,-0.85821533203125,-0.51959228515625
1760283939739,1407515641,44686,2,-0.049072265625,-0.89654541015625,-0.56109619140625
1760283939739,1407515641,44686,3,-0.084228515625,-0.92071533203125,-0.52374267578125
1760283939739,1407515641,44686,4,-0.08935546875,-0.85772705078125,-0.53277587890625
1760283939739,1407515641,44686,5,-0.084228515625,-0.88507080078125,-0.56475830078125
1760283939739,1407515641,44686,6,-0.080322265625,-0.90338134765625,-0.51812744140625
1760283939739,1407515641,44686,7,-0.11083984375,-0.95050048828125,-0.50103759765625
1760283939739,1407515641,44686,8,-0.041748046875,-0.85699462890625,-0.52471923828125
1760283939739,1407515641,44686,9,-0.165771484375,-0.92462158203125,-0.46685791015625
1760283939739,1407515641,44686,10,-0.1552734375,-0.98541259765625,-0.35015869140625
1760283939739,1407515641,44686,11,-0.129150390625,-0.94879150390625,-0.37066650390625
1760283939739,1407515641,44686,12,-0.10009765625,-0.94512939453125,-0.39215087890625
1760283939739,1407515641,44686,13,-0.076171875,-0.98297119140625,-0.46661376953125
1760283939739,1407515641,44686,14,-0.15283203125,-0.91998291015625,-0.31207275390625
1760283939739,1407515641,44686,15,-0.057861328125,-0.89508056640625,-0.54864501953125
1760283939739,1407515641,44686,16,-0.055908203125,-0.88775634765625,-0.60919189453125
