receivedPhoneTimestamp,respeckTimestamp,packetSeqNum,sampleSeqNum,accelX,accelY,accelZ
1759858009061,1045741632,16471,0,0.12109375,-0.77374267578125,-0.26373291015625
1759858009061,1045741632,16471,1,0.049560546875,-0.76519775390625,-0.17706298828125
1759858009061,1045741632,16471,2,-0.007080078125,-0.82476806640625,-0.10992431640625
1759858009061,1045741632,16471,3,-0.02880859375,-0.80108642578125,-0.06011962890625
1759858009061,1045741632,16471,4,-0.038818359375,-0.91729736328125,0.01849365234375
1759858009061,1045741632,16471,5,-0.10107421875,-0.99053955078125,0.08367919921875
1759858009061,1045741632,16471,6,-0.107421875,-0.98907470703125,0.13494873046875
1759858009061,1045741632,16471,7,-0.0712890625,-0.95733642578125,0.15716552734375
1759858009061,1045741632,16471,8,-0.032470703125,-0.96929931640625,0.13812255859375
1759858009061,1045741632,16471,9,-0.041748046875,-1.00567626953125,0.12908935546875
1759858009061,1045741632,16471,10,-0.05126953125,-1.02032470703125,0.11224365234375
1759858009061,1045741632,16471,11,-0.03759765625,-1.04278564453125,0.10223388671875
1759858009061,1045741632,16471,12,-0.1064453125,-1.05767822265625,0.05169677734375
1759858009061,1045741632,16471,13,-0.129150390625,-0.99371337890625,0.04779052734375
1759858009061,1045741632,16471,14,-0.0791015625,-1.04669189453125,0.04583740234375
1759858009061,1045741632,16471,15,-0.11181640625,-1.03350830078125,0.04998779296875
1759858009061,1045741632,16471,16,-0.16796875,-1.01788330078125,0.05731201171875
1759858009061,1045741632,16471,17,-0.177490234375,-0.98468017578125,0.01800537109375
1759858009061,1045741632,16471,18,-0.189697265625,-1.04425048828125,0.03118896484375
1759858009061,1045741632,16471,19,-0.1904296875,-1.03082275390625,0.05291748046875
1759858009061,1045741632,16471,20,-0.18017578125,-0.98712158203125,0.02679443359375
1759858009061,1045741632,16471,21,-0.20068359375,-1.01202392578125,0.02508544921875
1759858009061,1045741632,16471,22,-0.173583984375,-1.04693603515625,0.07415771484375
1759858009061,1045741632,16471,23,-0.127197265625,-1.02520751953125,0.08929443359375
1759858009061,1045741632,16471,24,-0.142333984375,-1.00762939453125,0.06365966796875
1759858009061,1045741632,16471,25,-0.10595703125,-1.02642822265625,0.04876708984375
1759858009061,1045741632,16471,26,-0.160400390625,-1.02032470703125,0.07342529296875
1759858009061,1045741632,16471,27,-0.173095703125,-1.02764892578125,0.09686279296875
1759858009061,1045741632,16471,28,-0.16162109375,-1.00909423828125,0.10443115234375
1759858009061,1045741632,16471,29,-0.173583984375,-1.00885009765625,0.11663818359375
1759858009061,1045741632,16471,30,-0.16748046875,-1.00494384765625,0.12982177734375
1759858009061,1045741632,16471,31,-0.16015625,-0.99542236328125,0.12957763671875
1759858011576,1045744145,16472,0,-0.16455078125,-0.98004150390625,0.10174560546875
1759858011576,1045744145,16472,1,-0.155029296875,-0.92999267578125,0.06756591796875
1759858011576,1045744145,16472,2,-0.207275390625,-1.08184814453125,0.16741943359375
1759858011576,1045744145,16472,3,-0.1962890625,-1.03253173828125,0.12786865234375
1759858011576,1045744145,16472,4,-0.15673828125,-1.00299072265625,0.06365966796875
1759858011576,1045744145,16472,5,-0.134765625,-0.98028564453125,0.05364990234375
1759858011576,1045744145,16472,6,-0.171875,-1.06768798828125,0.10662841796875
1759858011576,1045744145,16472,7,-0.16357421875,-0.99249267578125,0.07000732421875
1759858011576,1045744145,16472,8,-0.151123046875,-0.99591064453125,0.08734130859375
1759858011576,1045744145,16472,9,-0.15771484375,-1.03643798828125,0.07196044921875
1759858011576,1045744145,16472,10,-0.16259765625,-1.00982666015625,0.08758544921875
1759858011576,1045744145,16472,11,-0.146484375,-1.05694580078125,0.06317138671875
1759858011576,1045744145,16472,12,-0.13623046875,-0.96124267578125,0.06170654296875
1759858011576,1045744145,16472,13,-0.14013671875,-1.08160400390625,0.09320068359375
1759858011576,1045744145,16472,14,-0.09326171875,-0.96051025390625,0.01385498046875
1759858011576,1045744145,16472,15,-0.11767578125,-1.07183837890625,0.05780029296875
1759858011576,1045744145,16472,16,-0.13525390625,-1.02545166015625,0.03289794921875
1759858011576,1045744145,16472,17,-0.117919921875,-1.02203369140625,0.04266357421875
1759858011576,1045744145,16472,18,-0.083251953125,-1.07476806640625,0.05194091796875
1759858011576,1045744145,16472,19,-0.107177734375,-0.98956298828125,0.05706787109375
1759858011576,1045744145,16472,20,-0.126220703125,-1.01788330078125,0.05316162109375
1759858011576,1045744145,16472,21,-0.076904296875,-1.05328369140625,0.08343505859375
1759858011576,1045744145,16472,22,-0.058349609375,-0.97393798828125,0.08953857421875
1759858011576,1045744145,16472,23,-0.081298828125,-1.04449462890625,0.13177490234375
1759858011576,1045744145,16472,24,-0.036865234375,-1.03204345703125,0.06024169921875
1759858011576,1045744145,16472,25,-0.06396484375,-0.96661376953125,0.07562255859375
1759858011576,1045744145,16472,26,-0.101806640625,-1.08624267578125,0.09783935546875
1759858011576,1045744145,16472,27,-0.07373046875,-0.97711181640625,0.05413818359375
1759858011576,1045744145,16472,28,-0.076904296875,-1.03790283203125,0.05633544921875
1759858011576,1045744145,16472,29,-0.087646484375,-0.97467041015625,0.04193115234375
1759858011576,1045744145,16472,30,-0.0732421875,-1.06646728515625,0.06927490234375
1759858011576,1045744145,16472,31,-0.019287109375,-1.01641845703125,0.01849365234375
1759858014101,1045746664,16473,0,-0.008056640625,-1.05792236328125,0.04827880859375
1759858014101,1045746664,16473,1,0.012451171875,-1.03985595703125,0.00360107421875
1759858014101,1045746664,16473,2,-0.004150390625,-0.96368408203125,0.02069091796875
1759858014101,1045746664,16473,3,-0.02294921875,-1.06671142578125,0.04779052734375
1759858014101,1045746664,16473,4,0.001953125,-1.07061767578125,0.03363037109375
1759858014101,1045746664,16473,5,-0.005126953125,-1.05499267578125,0.03338623046875
1759858014101,1045746664,16473,6,-0.01220703125,-1.02154541015625,0.03851318359375
1759858014101,1045746664,16473,7,-0.0302734375,-0.99493408203125,0.02435302734375
1759858014101,1045746664,16473,8,-0.033935546875,-0.97589111328125,0.03167724609375
1759858014101,1045746664,16473,9,-0.139404296875,-1.07720947265625,0.16229248046875
1759858014101,1045746664,16473,10,-0.12744140625,-1.04010009765625,0.10003662109375
1759858014101,1045746664,16473,11,-0.02197265625,-1.00347900390625,0.04315185546875
1759858014101,1045746664,16473,12,-0.109130859375,-1.02154541015625,0.09906005859375
1759858014101,1045746664,16473,13,-0.10888671875,-0.97100830078125,0.06439208984375
1759858014101,1045746664,16473,14,-0.159423828125,-1.01080322265625,0.14007568359375
1759858014101,1045746664,16473,15,-0.15966796875,-1.04302978515625,0.11761474609375
1759858014101,1045746664,16473,16,-0.173095703125,-1.01495361328125,0.10736083984375
1759858014101,1045746664,16473,17,-0.1943359375,-1.03253173828125,0.09881591796875
1759858014101,1045746664,16473,18,-0.12890625,-0.97686767578125,0.04803466796875
1759858014101,1045746664,16473,19,-0.19091796875,-1.00738525390625,0.10565185546875
1759858014101,1045746664,16473,20,-0.2177734375,-1.03717041015625,0.13665771484375
1759858014101,1045746664,16473,21,-0.219482421875,-1.00445556640625,0.15277099609375
1759858014101,1045746664,16473,22,-0.21142578125,-1.00518798828125,0.14154052734375
1759858014101,1045746664,16473,23,-0.2294921875,-0.97662353515625,0.12176513671875
1759858014101,1045746664,16473,24,-0.29248046875,-0.96710205078125,0.16351318359375
1759858014101,1045746664,16473,25,-0.266357421875,-1.00543212890625,0.13983154296875
1759858014101,1045746664,16473,26,-0.19189453125,-0.98883056640625,0.15838623046875
1759858014101,1045746664,16473,27,-0.22216796875,-0.99688720703125,0.19232177734375
1759858014101,1045746664,16473,28,-0.199951171875,-0.97467041015625,0.18621826171875
1759858014101,1045746664,16473,29,-0.195068359375,-1.00079345703125,0.19549560546875
1759858014101,1045746664,16473,30,-0.15771484375,-1.00787353515625,0.18621826171875
1759858014101,1045746664,16473,31,-0.1484375,-1.00128173828125,0.17987060546875
1759858016617,1045749177,16474,0,-0.140625,-0.98468017578125,0.06951904296875
1759858016617,1045749177,16474,1,-0.1484375,-0.94122314453125,0.18060302734375
1759858016617,1045749177,16474,2,-0.232421875,-1.08819580078125,0.22406005859375
1759858016617,1045749177,16474,3,-0.1572265625,-0.99688720703125,0.11419677734375
1759858016617,1045749177,16474,4,-0.117431640625,-0.96246337890625,0.05975341796875
1759858016617,1045749177,16474,5,-0.240234375,-1.05499267578125,0.21331787109375
1759858016617,1045749177,16474,6,-0.1875,-0.99591064453125,0.09271240234375
1759858016617,1045749177,16474,7,-0.150634765625,-0.96124267578125,0.09490966796875
1759858016617,1045749177,16474,8,-0.217041015625,-1.06500244140625,0.15960693359375
1759858016617,1045749177,16474,9,-0.174560546875,-0.98590087890625,0.10369873046875
1759858016617,1045749177,16474,10,-0.1484375,-0.97735595703125,0.07806396484375
1759858016617,1045749177,16474,11,-0.1962890625,-1.03521728515625,0.12371826171875
1759858016617,1045749177,16474,12,-0.18017578125,-1.01519775390625,0.08978271484375
1759858016617,1045749177,16474,13,-0.189453125,-0.98712158203125,0.10247802734375
1759858016617,1045749177,16474,14,-0.181396484375,-1.02569580078125,0.09246826171875
1759858016617,1045749177,16474,15,-0.1455078125,-1.00885009765625,0.10784912109375
1759858016617,1045749177,16474,16,-0.20654296875,-1.02642822265625,0.13714599609375
1759858016617,1045749177,16474,17,-0.193359375,-1.02545166015625,0.10931396484375
1759858016617,1045749177,16474,18,-0.1943359375,-1.01202392578125,0.10833740234375
1759858016617,1045749177,16474,19,-0.19189453125,-0.98931884765625,0.12371826171875
1759858016617,1045749177,16474,20,-0.181884765625,-0.99420166015625,0.10028076171875
1759858016617,1045749177,16474,21,-0.14990234375,-0.95050048828125,0.02288818359375
1759858016617,1045749177,16474,22,-0.169189453125,-1.01861572265625,0.16619873046875
1759858016617,1045749177,16474,23,-0.2578125,-1.06036376953125,0.17791748046875
1759858016617,1045749177,16474,24,-0.18896484375,-1.06207275390625,0.09661865234375
1759858016617,1045749177,16474,25,-0.14306640625,-0.97515869140625,-0.01885986328125
1759858016617,1045749177,16474,26,-0.140625,-0.92047119140625,0.03924560546875
1759858016617,1045749177,16474,27,-0.262939453125,-1.08135986328125,0.20477294921875
1759858016617,1045749177,16474,28,-0.24267578125,-1.03350830078125,0.12078857421875
1759858016617,1045749177,16474,29,-0.159912109375,-0.96710205078125,0.01336669921875
1759858016617,1045749177,16474,30,-0.13232421875,-1.00079345703125,0.01800537109375
1759858016617,1045749177,16474,31,-0.187255859375,-1.02423095703125,0.13616943359375
1759858019141,1045751696,16475,0,-0.22705078125,-1.04473876953125,0.10809326171875
1759858019141,1045751696,16475,1,-0.15673828125,-1.01617431640625,0.07049560546875
1759858019141,1045751696,16475,2,-0.11767578125,-1.00323486328125,0.06170654296875
1759858019141,1045751696,16475,3,-0.13623046875,-0.99957275390625,0.07073974609375
1759858019141,1045751696,16475,4,-0.157958984375,-0.99591064453125,0.09930419921875
1759858019141,1045751696,16475,5,-0.163818359375,-1.02764892578125,0.12835693359375
1759858019141,1045751696,16475,6,-0.14794921875,-1.04327392578125,0.11590576171875
1759858019141,1045751696,16475,7,-0.166015625,-1.01617431640625,0.11785888671875
1759858019141,1045751696,16475,8,-0.1669921875,-1.01397705078125,0.11907958984375
1759858019141,1045751696,16475,9,-0.169677734375,-0.99859619140625,0.12396240234375
1759858019141,1045751696,16475,10,-0.153564453125,-0.96881103515625,0.05291748046875
1759858019141,1045751696,16475,11,-0.120849609375,-0.93121337890625,0.09320068359375
1759858019141,1045751696,16475,12,-0.222412109375,-1.11383056640625,0.21917724609375
1759858019141,1045751696,16475,13,-0.1875,-1.05206298828125,0.13787841796875
1759858019141,1045751696,16475,14,-0.118896484375,-0.99346923828125,0.04583740234375
1759858019141,1045751696,16475,15,-0.092041015625,-0.97247314453125,0.00579833984375
1759858019141,1045751696,16475,16,-0.14208984375,-0.99249267578125,0.11614990234375
1759858019141,1045751696,16475,17,-0.156494140625,-1.02203369140625,0.17083740234375
1759858019141,1045751696,16475,18,-0.19775390625,-1.08819580078125,0.17767333984375
1759858019141,1045751696,16475,19,-0.07080078125,-0.95562744140625,0.03582763671875
1759858019141,1045751696,16475,20,-0.115478515625,-1.01031494140625,0.07879638671875
1759858019141,1045751696,16475,21,-0.1025390625,-1.04864501953125,0.14373779296875
1759858019141,1045751696,16475,22,-0.165283203125,-1.02496337890625,0.14398193359375
1759858019141,1045751696,16475,23,-0.054931640625,-0.96856689453125,0.07098388671875
1759858019141,1045751696,16475,24,-0.132568359375,-1.05401611328125,0.19573974609375
1759858019141,1045751696,16475,25,-0.11181640625,-1.00225830078125,0.08905029296875
1759858019141,1045751696,16475,26,-0.102783203125,-0.96490478515625,0.13812255859375
1759858019141,1045751696,16475,27,-0.1328125,-1.10308837890625,0.10589599609375
1759858019141,1045751696,16475,28,-0.120849609375,-0.91900634765625,0.10369873046875
1759858019141,1045751696,16475,29,-0.0849609375,-1.08575439453125,0.13372802734375
1759858019141,1045751696,16475,30,-0.08642578125,-0.97955322265625,0.07635498046875
1759858019141,1045751696,16475,31,-0.079833984375,-1.04962158203125,0.11517333984375
1759858021661,1045754215,16476,0,-0.055419921875,-1.01910400390625,0.07098388671875
1759858021661,1045754215,16476,1,-0.041259765625,-0.99810791015625,0.06781005859375
1759858021661,1045754215,16476,2,-0.081298828125,-1.03057861328125,0.08685302734375
1759858021661,1045754215,16476,3,-0.06005859375,-1.05767822265625,0.07562255859375
1759858021661,1045754215,16476,4,-0.015380859375,-1.00543212890625,0.01654052734375
1759858021661,1045754215,16476,5,-0.0341796875,-1.04766845703125,0.07464599609375
1759858021661,1045754215,16476,6,-0.060546875,-0.99859619140625,0.07415771484375
1759858021661,1045754215,16476,7,-0.0322265625,-1.03619384765625,0.09564208984375
1759858021661,1045754215,16476,8,-0.031494140625,-1.04156494140625,0.07635498046875
1759858021661,1045754215,16476,9,0.02099609375,-1.05108642578125,0.07830810546875
1759858021661,1045754215,16476,10,0.10595703125,-1.04327392578125,0.04046630859375
1759858021661,1045754215,16476,11,0.004150390625,-0.99273681640625,-0.00787353515625
1759858021661,1045754215,16476,12,-0.007568359375,-1.02593994140625,0.03558349609375
1759858021661,1045754215,16476,13,-0.04736328125,-1.01812744140625,0.04852294921875
1759858021661,1045754215,16476,14,-0.107177734375,-1.00738525390625,0.04583740234375
1759858021661,1045754215,16476,15,-0.148681640625,-0.96099853515625,0.14666748046875
1759858021661,1045754215,16476,16,-0.0986328125,-1.12872314453125,0.21282958984375
1759858021661,1045754215,16476,17,-0.16357421875,-0.96148681640625,0.07635498046875
1759858021661,1045754215,16476,18,-0.113525390625,-0.97906494140625,0.10833740234375
1759858021661,1045754215,16476,19,-0.0478515625,-0.98834228515625,0.10467529296875
1759858021661,1045754215,16476,20,-0.1298828125,-1.04449462890625,0.19793701171875
1759858021661,1045754215,16476,21,-0.1396484375,-1.04766845703125,0.13568115234375
1759858021661,1045754215,16476,22,-0.075439453125,-0.95440673828125,0.08782958984375
1759858021661,1045754215,16476,23,-0.102783203125,-1.08795166015625,0.17987060546875
1759858021661,1045754215,16476,24,-0.105712890625,-1.00128173828125,0.14862060546875
1759858021661,1045754215,16476,25,-0.0400390625,-1.00494384765625,0.13494873046875
1759858021661,1045754215,16476,26,-0.11669921875,-1.04156494140625,0.14886474609375
1759858021661,1045754215,16476,27,-0.21533203125,-1.00225830078125,0.08953857421875
1759858021661,1045754215,16476,28,-0.117919921875,-0.95245361328125,0.05657958984375
1759858021661,1045754215,16476,29,-0.148681640625,-0.97637939453125,0.12689208984375
1759858021661,1045754215,16476,30,-0.140380859375,-1.06207275390625,0.10614013671875
1759858021661,1045754215,16476,31,-0.064697265625,-1.00152587890625,0.11419677734375
1759858024179,1045756728,16477,0,-0.089111328125,-1.06451416015625,0.12738037109375
1759858024179,1045756728,16477,1,-0.14892578125,-1.03326416015625,0.10174560546875
1759858024179,1045756728,16477,2,-0.12841796875,-1.02325439453125,0.06976318359375
1759858024179,1045756728,16477,3,-0.064697265625,-1.03936767578125,0.04730224609375
1759858024179,1045756728,16477,4,-0.073974609375,-1.01446533203125,0.06390380859375
1759858024179,1045756728,16477,5,-0.1015625,-1.00762939453125,0.04290771484375
1759858024179,1045756728,16477,6,-0.031494140625,-0.92095947265625,-0.05841064453125
1759858024179,1045756728,16477,7,-0.237060546875,-1.05352783203125,0.18597412109375
1759858024179,1045756728,16477,8,-0.21533203125,-1.11627197265625,0.09222412109375
1759858024179,1045756728,16477,9,-0.202392578125,-0.99468994140625,0.07562255859375
1759858024179,1045756728,16477,10,-0.121826171875,-0.97467041015625,-0.06182861328125
1759858024179,1045756728,16477,11,-0.1328125,-0.94268798828125,0.10394287109375
1759858024179,1045756728,16477,12,-0.198974609375,-1.18023681640625,0.11834716796875
1759858024179,1045756728,16477,13,-0.11376953125,-0.95343017578125,-0.04010009765625
1759858024179,1045756728,16477,14,-0.1669921875,-0.99761962890625,0.09002685546875
1759858024179,1045756728,16477,15,-0.115478515625,-1.11041259765625,0.03924560546875
1759858024179,1045756728,16477,16,-0.106201171875,-0.91778564453125,0.01947021484375
1759858024179,1045756728,16477,17,-0.11376953125,-1.09478759765625,0.03729248046875
1759858024179,1045756728,16477,18,-0.079345703125,-1.01373291015625,0.00946044921875
1759858024179,1045756728,16477,19,-0.11767578125,-1.02593994140625,0.02508544921875
1759858024179,1045756728,16477,20,-0.11376953125,-1.06158447265625,0.05145263671875
1759858024179,1045756728,16477,21,-0.112548828125,-1.01910400390625,0.02313232421875
1759858024179,1045756728,16477,22,-0.09521484375,-1.03131103515625,0.02850341796875
1759858024179,1045756728,16477,23,-0.116455078125,-1.02813720703125,0.05267333984375
1759858024179,1045756728,16477,24,-0.11669921875,-1.02130126953125,0.05560302734375
1759858024179,1045756728,16477,25,-0.128173828125,-1.00640869140625,0.05999755859375
1759858024179,1045756728,16477,26,-0.15283203125,-0.99908447265625,0.03680419921875
1759858024179,1045756728,16477,27,-0.11572265625,-0.97320556640625,0.07147216796875
1759858024179,1045756728,16477,28,-0.199462890625,-1.04766845703125,0.14324951171875
1759858024179,1045756728,16477,29,-0.21728515625,-1.01544189453125,0.15399169921875
1759858024179,1045756728,16477,30,-0.1669921875,-0.97540283203125,0.03143310546875
1759858024179,1045756728,16477,31,-0.130615234375,-0.98419189453125,0.01068115234375
1759858026703,1045759247,16478,0,-0.177734375,-1.08892822265625,0.08172607421875
1759858026703,1045759247,16478,1,-0.0986328125,-1.07965087890625,0.01190185546875
1759858026703,1045759247,16478,2,-0.06494140625,-0.93609619140625,-0.04351806640625
1759858026703,1045759247,16478,3,-0.115234375,-1.08160400390625,-0.00152587890625
1759858026703,1045759247,16478,4,-0.0537109375,-1.00518798828125,-0.04302978515625
1759858026703,1045759247,16478,5,-0.044677734375,-1.02349853515625,-0.01934814453125
1759858026703,1045759247,16478,6,0.0,-1.05865478515625,-0.04449462890625
1759858026703,1045759247,16478,7,0.028564453125,-1.01202392578125,-0.05767822265625
1759858026703,1045759247,16478,8,0.0302734375,-1.05743408203125,-0.05352783203125
1759858026703,1045759247,16478,9,0.07421875,-0.98199462890625,-0.10162353515625
1759858026703,1045759247,16478,10,0.0673828125,-1.03570556640625,-0.09991455078125
1759858026703,1045759247,16478,11,0.092041015625,-1.04058837890625,-0.12432861328125
1759858026703,1045759247,16478,12,0.09521484375,-0.99517822265625,-0.10626220703125
1759858026703,1045759247,16478,13,0.127197265625,-1.10089111328125,-0.10308837890625
1759858026703,1045759247,16478,14,0.100341796875,-0.96905517578125,-0.10821533203125
1759858026703,1045759247,16478,15,-0.039306640625,-1.07550048828125,-0.04132080078125
1759858026703,1045759247,16478,16,0.009521484375,-1.04205322265625,-0.01397705078125
1759858026703,1045759247,16478,17,-0.007568359375,-1.01470947265625,0.01531982421875
1759858026703,1045759247,16478,18,-0.026123046875,-1.01934814453125,0.04901123046875
1759858026703,1045759247,16478,19,-0.035400390625,-1.00030517578125,0.08392333984375
1759858026703,1045759247,16478,20,-0.045654296875,-1.00128173828125,0.10980224609375
1759858026703,1045759247,16478,21,-0.072509765625,-1.00762939453125,0.10516357421875
1759858026703,1045759247,16478,22,-0.0849609375,-0.98126220703125,0.08734130859375
1759858026703,1045759247,16478,23,-0.111328125,-0.98077392578125,0.11932373046875
1759858026703,1045759247,16478,24,-0.189208984375,-1.07794189453125,0.17913818359375
1759858026703,1045759247,16478,25,-0.156982421875,-0.96490478515625,0.19964599609375
1759858026703,1045759247,16478,26,-0.185791015625,-1.03717041015625,0.17572021484375
1759858026703,1045759247,16478,27,-0.105224609375,-1.00543212890625,0.08367919921875
1759858026703,1045759247,16478,28,-0.0869140625,-0.98516845703125,0.06341552734375
1759858026703,1045759247,16478,29,-0.171142578125,-1.04962158203125,0.15545654296875
1759858026703,1045759247,16478,30,-0.15283203125,-1.02447509765625,0.12493896484375
1759858026703,1045759247,16478,31,-0.13134765625,-1.00811767578125,0.08099365234375
1759858029219,1045761760,16479,0,-0.106201171875,-0.98565673828125,0.09197998046875
1759858029219,1045761760,16479,1,-0.075927734375,-1.06549072265625,0.15399169921875
1759858029219,1045761760,16479,2,-0.0908203125,-1.00323486328125,0.08050537109375
1759858029219,1045761760,16479,3,-0.067138671875,-0.98443603515625,0.09295654296875
1759858029219,1045761760,16479,4,-0.0908203125,-1.07110595703125,0.12591552734375
1759858029219,1045761760,16479,5,-0.0908203125,-1.00762939453125,0.12689208984375
1759858029219,1045761760,16479,6,-0.134521484375,-1.02374267578125,0.14276123046875
1759858029219,1045761760,16479,7,-0.140869140625,-1.02056884765625,0.14935302734375
1759858029219,1045761760,16479,8,-0.16748046875,-1.00225830078125,0.13446044921875
1759858029219,1045761760,16479,9,-0.19873046875,-0.99737548828125,0.14910888671875
1759858029219,1045761760,16479,10,-0.211669921875,-0.97369384765625,0.13763427734375
1759858029219,1045761760,16479,11,-0.169921875,-0.96514892578125,0.09906005859375
1759858029219,1045761760,16479,12,-0.2255859375,-0.99591064453125,0.23236083984375
1759858029219,1045761760,16479,13,-0.2265625,-1.06353759765625,0.21405029296875
1759858029219,1045761760,16479,14,-0.19873046875,-0.95977783203125,0.15716552734375
1759858029219,1045761760,16479,15,-0.149658203125,-0.99200439453125,0.11639404296875
1759858029219,1045761760,16479,16,-0.14892578125,-0.96710205078125,0.14398193359375
1759858029219,1045761760,16479,17,-0.212890625,-1.03009033203125,0.16497802734375
1759858029219,1045761760,16479,18,-0.1875,-0.98980712890625,0.15521240234375
1759858029219,1045761760,16479,19,-0.19482421875,-1.00860595703125,0.13397216796875
1759858029219,1045761760,16479,20,-0.177978515625,-0.97491455078125,0.12347412109375
1759858029219,1045761760,16479,21,-0.158447265625,-1.03643798828125,0.14764404296875
1759858029219,1045761760,16479,22,-0.18701171875,-1.04058837890625,0.15936279296875
1759858029219,1045761760,16479,23,-0.251220703125,-1.01544189453125,0.16961669921875
1759858029219,1045761760,16479,24,-0.13330078125,-1.02496337890625,0.16986083984375
1759858029219,1045761760,16479,25,-0.128173828125,-0.97174072265625,0.13299560546875
1759858029219,1045761760,16479,26,-0.1591796875,-0.97198486328125,0.11370849609375
1759858029219,1045761760,16479,27,-0.1328125,-0.96173095703125,0.05609130859375
1759858029219,1045761760,16479,28,-0.166259765625,-0.99176025390625,0.17913818359375
1759858029219,1045761760,16479,29,-0.216552734375,-1.08477783203125,0.20086669921875
1759858029219,1045761760,16479,30,-0.181884765625,-1.00274658203125,0.13543701171875
1759858029219,1045761760,16479,31,-0.12939453125,-0.96881103515625,0.06365966796875
1759858031743,1045764273,16480,0,-0.158203125,-0.99273681640625,0.11956787109375
1759858031743,1045764273,16480,1,-0.17333984375,-1.02471923828125,0.12518310546875
1759858031743,1045764273,16480,2,-0.177978515625,-1.00958251953125,0.10540771484375
1759858031743,1045764273,16480,3,-0.1630859375,-1.02764892578125,0.10809326171875
1759858031743,1045764273,16480,4,-0.17138671875,-1.00445556640625,0.08148193359375
1759858031743,1045764273,16480,5,-0.1572265625,-1.02886962890625,0.06488037109375
1759858031743,1045764273,16480,6,-0.1142578125,-1.03839111328125,0.05120849609375
1759858031743,1045764273,16480,7,-0.10107421875,-0.99884033203125,0.03167724609375
1759858031743,1045764273,16480,8,-0.1201171875,-1.02886962890625,0.03656005859375
1759858031743,1045764273,16480,9,-0.117431640625,-1.00885009765625,0.02557373046875
1759858031743,1045764273,16480,10,-0.103759765625,-1.01568603515625,0.02093505859375
1759858031743,1045764273,16480,11,-0.106689453125,-1.05499267578125,0.04852294921875
1759858031743,1045764273,16480,12,-0.066162109375,-1.02301025390625,-0.00689697265625
1759858031743,1045764273,16480,13,-0.063720703125,-1.01470947265625,-0.00079345703125
1759858031743,1045764273,16480,14,-0.052001953125,-1.04522705078125,-0.00225830078125
1759858031743,1045764273,16480,15,-0.0361328125,-1.02691650390625,-0.02301025390625
1759858031743,1045764273,16480,16,-0.016845703125,-1.02471923828125,-0.02520751953125
1759858031743,1045764273,16480,17,0.008544921875,-1.03765869140625,-0.04132080078125
1759858031743,1045764273,16480,18,0.014892578125,-1.02154541015625,-0.05841064453125
1759858031743,1045764273,16480,19,0.03076171875,-1.04058837890625,-0.05645751953125
1759858031743,1045764273,16480,20,0.0361328125,-1.02740478515625,-0.06549072265625
1759858031743,1045764273,16480,21,0.05517578125,-1.01959228515625,-0.04962158203125
1759858031743,1045764273,16480,22,0.084716796875,-1.04840087890625,-0.08477783203125
1759858031743,1045764273,16480,23,0.06982421875,-1.06207275390625,-0.05450439453125
1759858031743,1045764273,16480,24,0.043212890625,-1.02813720703125,-0.09332275390625
1759858031743,1045764273,16480,25,0.02685546875,-1.05767822265625,-0.00933837890625
1759858031743,1045764273,16480,26,-0.02734375,-1.04547119140625,0.02313232421875
1759858031743,1045764273,16480,27,-0.0615234375,-1.01446533203125,0.04046630859375
1759858031743,1045764273,16480,28,-0.080810546875,-1.00421142578125,0.07244873046875
1759858031743,1045764273,16480,29,-0.12255859375,-0.99420166015625,0.09857177734375
1759858031743,1045764273,16480,30,-0.143310546875,-0.97467041015625,0.06195068359375
1759858031743,1045764273,16480,31,-0.0322265625,-0.93243408203125,0.03363037109375
1759858034263,1045766792,16481,0,-0.202392578125,-1.05035400390625,0.22894287109375
1759858034263,1045766792,16481,1,-0.16845703125,-1.11334228515625,0.12493896484375
1759858034263,1045766792,16481,2,-0.174072265625,-0.99591064453125,0.10784912109375
1759858034263,1045766792,16481,3,-0.09228515625,-1.05914306640625,0.02996826171875
1759858034263,1045766792,16481,4,-0.02734375,-0.94390869140625,0.00823974609375
1759858034263,1045766792,16481,5,-0.10205078125,-1.03106689453125,0.06854248046875
1759858034263,1045766792,16481,6,-0.15234375,-1.07305908203125,0.14495849609375
1759858034263,1045766792,16481,7,-0.173095703125,-1.09014892578125,0.15277099609375
1759858034263,1045766792,16481,8,-0.12060546875,-1.03887939453125,0.16717529296875
1759858034263,1045766792,16481,9,-0.063720703125,-0.96832275390625,0.12396240234375
1759858034263,1045766792,16481,10,-0.07421875,-0.95343017578125,0.09588623046875
1759858034263,1045766792,16481,11,-0.0830078125,-0.93756103515625,0.05364990234375
1759858034263,1045766792,16481,12,-0.0771484375,-0.96148681640625,0.18060302734375
1759858034263,1045766792,16481,13,-0.1748046875,-1.10601806640625,0.23382568359375
1759858034263,1045766792,16481,14,-0.16015625,-1.01885986328125,0.15667724609375
1759858034263,1045766792,16481,15,-0.146728515625,-1.04400634765625,0.13031005859375
1759858034263,1045766792,16481,16,-0.052734375,-1.00225830078125,0.06268310546875
1759858034263,1045766792,16481,17,-0.0224609375,-0.95416259765625,0.05218505859375
1759858034263,1045766792,16481,18,-0.0830078125,-1.05963134765625,0.14349365234375
1759858034263,1045766792,16481,19,-0.1220703125,-1.05670166015625,0.10223388671875
1759858034263,1045766792,16481,20,-0.0703125,-1.00543212890625,0.10125732421875
1759858034263,1045766792,16481,21,-0.035888671875,-1.08966064453125,0.08782958984375
1759858034263,1045766792,16481,22,0.0048828125,-0.91168212890625,0.00115966796875
1759858034263,1045766792,16481,23,-0.09912109375,-1.04449462890625,0.10076904296875
1759858034263,1045766792,16481,24,-0.122802734375,-1.10577392578125,0.09295654296875
1759858034263,1045766792,16481,25,-0.024169921875,-0.97222900390625,0.00531005859375
1759858034263,1045766792,16481,26,-0.055908203125,-1.04058837890625,0.05096435546875
1759858034263,1045766792,16481,27,-0.060546875,-1.04449462890625,0.07635498046875
1759858034263,1045766792,16481,28,-0.026123046875,-1.02667236328125,0.02679443359375
1759858034263,1045766792,16481,29,-0.058349609375,-1.05572509765625,0.06024169921875
1759858034263,1045766792,16481,30,-0.155029296875,-1.04010009765625,0.09051513671875
1759858034263,1045766792,16481,31,-0.142333984375,-1.02252197265625,0.09857177734375
1759858036778,1045769305,16482,0,-0.106689453125,-1.03936767578125,0.12664794921875
1759858036778,1045769305,16482,1,-0.108154296875,-0.98443603515625,0.08734130859375
1759858036778,1045769305,16482,2,-0.055908203125,-0.89727783203125,-0.03668212890625
1759858036778,1045769305,16482,3,-0.164306640625,-1.04302978515625,0.22430419921875
1759858036778,1045769305,16482,4,-0.17041015625,-1.03546142578125,0.23260498046875
1759858036778,1045769305,16482,5,-0.22802734375,-1.05938720703125,0.22039794921875
1759858036778,1045769305,16482,6,-0.18896484375,-0.99444580078125,0.14617919921875
1759858036778,1045769305,16482,7,-0.0263671875,-0.93121337890625,0.04559326171875
1759858036778,1045769305,16482,8,-0.13232421875,-1.03692626953125,0.16741943359375
1759858036778,1045769305,16482,9,-0.20068359375,-1.04327392578125,0.16717529296875
1759858036778,1045769305,16482,10,-0.249755859375,-1.00738525390625,0.16253662109375
1759858036778,1045769305,16482,11,-0.156494140625,-1.02911376953125,0.09466552734375
1759858036778,1045769305,16482,12,0.002197265625,-0.92462158203125,0.04803466796875
1759858036778,1045769305,16482,13,-0.13720703125,-1.01519775390625,0.14227294921875
1759858036778,1045769305,16482,14,-0.2158203125,-1.06085205078125,0.20599365234375
1759858036778,1045769305,16482,15,-0.1484375,-1.03546142578125,0.16864013671875
1759858036778,1045769305,16482,16,-0.1396484375,-0.99371337890625,0.16253662109375
1759858036778,1045769305,16482,17,-0.130615234375,-1.00714111328125,0.18499755859375
1759858036778,1045769305,16482,18,-0.133056640625,-1.00518798828125,0.18621826171875
1759858036778,1045769305,16482,19,-0.15087890625,-0.98712158203125,0.15179443359375
1759858036778,1045769305,16482,20,-0.125244140625,-0.95709228515625,0.07464599609375
1759858036778,1045769305,16482,21,-0.046875,-0.93902587890625,0.12615966796875
1759858036778,1045769305,16482,22,-0.210205078125,-1.08673095703125,0.18304443359375
