receivedPhoneTimestamp,respeckTimestamp,packetSeqNum,sampleSeqNum,accelX,accelY,accelZ
1759858452222,1046184233,16647,0,-0.928466796875,0.05780029296875,-0.28106689453125
1759858452222,1046184233,16647,1,-0.98388671875,0.01190185546875,-0.43707275390625
1759858452222,1046184233,16647,2,-1.00439453125,-0.06060791015625,-0.53106689453125
1759858452222,1046184233,16647,3,-0.93408203125,-0.05865478515625,-0.57745361328125
1759858452222,1046184233,16647,4,-0.861328125,-0.09844970703125,-0.52105712890625
1759858452222,1046184233,16647,5,-0.892333984375,-0.13336181640625,-0.55938720703125
1759858452222,1046184233,16647,6,-0.890869140625,-0.07647705078125,-0.34503173828125
1759858452222,1046184233,16647,7,-0.990966796875,0.07269287109375,-0.21173095703125
1759858452222,1046184233,16647,8,-1.00927734375,0.07220458984375,-0.24542236328125
1759858452222,1046184233,16647,9,-1.039306640625,0.10101318359375,-0.20465087890625
1759858452222,1046184233,16647,10,-1.00830078125,0.11346435546875,-0.19073486328125
1759858452222,1046184233,16647,11,-1.131591796875,0.09051513671875,-0.28472900390625
1759858452222,1046184233,16647,12,-1.04443359375,0.03265380859375,-0.19268798828125
1759858452222,1046184233,16647,13,-1.002197265625,0.07025146484375,-0.13848876953125
1759858452222,1046184233,16647,14,-0.995849609375,-0.03204345703125,-0.33843994140625
1759858452222,1046184233,16647,15,-0.9033203125,-0.15093994140625,-0.52227783203125
1759858452222,1046184233,16647,16,-0.830810546875,-0.13531494140625,-0.60430908203125
1759858452222,1046184233,16647,17,-0.843017578125,-0.10260009765625,-0.64703369140625
1759858452222,1046184233,16647,18,-0.750244140625,-0.05059814453125,-0.75933837890625
1759858452222,1046184233,16647,19,-0.71484375,-0.03448486328125,-0.74249267578125
1759858452222,1046184233,16647,20,-0.770751953125,-0.03643798828125,-0.70709228515625
1759858452222,1046184233,16647,21,-0.772216796875,-0.05816650390625,-0.72784423828125
1759858452222,1046184233,16647,22,-0.763671875,-0.10430908203125,-0.70928955078125
1759858452222,1046184233,16647,23,-0.789306640625,-0.13140869140625,-0.67291259765625
1759858452222,1046184233,16647,24,-0.781005859375,-0.11529541015625,-0.68365478515625
1759858452222,1046184233,16647,25,-0.7939453125,-0.10113525390625,-0.68780517578125
1759858452222,1046184233,16647,26,-0.79345703125,-0.08502197265625,-0.68096923828125
1759858452222,1046184233,16647,27,-0.783203125,-0.07965087890625,-0.67340087890625
1759858452222,1046184233,16647,28,-0.796630859375,-0.08233642578125,-0.66754150390625
1759858452222,1046184233,16647,29,-0.819580078125,-0.08331298828125,-0.65557861328125
1759858452222,1046184233,16647,30,-0.833251953125,-0.08013916015625,-0.65191650390625
1759858452222,1046184233,16647,31,-0.826904296875,-0.07208251953125,-0.64093017578125
1759858454747,1046186746,16648,0,-0.824951171875,-0.06451416015625,-0.64263916015625
1759858454747,1046186746,16648,1,-0.821044921875,-0.05889892578125,-0.65240478515625
1759858454747,1046186746,16648,2,-0.81884765625,-0.05303955078125,-0.66510009765625
1759858454747,1046186746,16648,3,-0.81689453125,-0.05279541015625,-0.65606689453125
1759858454747,1046186746,16648,4,-0.819580078125,-0.05767822265625,-0.65679931640625
1759858454747,1046186746,16648,5,-0.80126953125,-0.05401611328125,-0.66729736328125
1759858454747,1046186746,16648,6,-0.810791015625,-0.05133056640625,-0.67120361328125
1759858454747,1046186746,16648,7,-0.814697265625,-0.05450439453125,-0.66217041015625
1759858454747,1046186746,16648,8,-0.809814453125,-0.05841064453125,-0.66363525390625
1759858454747,1046186746,16648,9,-0.80615234375,-0.05499267578125,-0.66363525390625
1759858454747,1046186746,16648,10,-0.8125,-0.05621337890625,-0.67022705078125
1759858454747,1046186746,16648,11,-0.810791015625,-0.05694580078125,-0.66558837890625
1759858454747,1046186746,16648,12,-0.81005859375,-0.05621337890625,-0.66754150390625
1759858454747,1046186746,16648,13,-0.81201171875,-0.05694580078125,-0.67022705078125
1759858454747,1046186746,16648,14,-0.8046875,-0.05474853515625,-0.66339111328125
1759858454747,1046186746,16648,15,-0.811279296875,-0.05328369140625,-0.66583251953125
1759858454747,1046186746,16648,16,-0.81591796875,-0.05474853515625,-0.66436767578125
1759858454747,1046186746,16648,17,-0.814697265625,-0.05792236328125,-0.66217041015625
1759858454747,1046186746,16648,18,-0.814453125,-0.05596923828125,-0.65875244140625
1759858454747,1046186746,16648,19,-0.815673828125,-0.05621337890625,-0.66363525390625
1759858454747,1046186746,16648,20,-0.815185546875,-0.05499267578125,-0.66534423828125
1759858454747,1046186746,16648,21,-0.812744140625,-0.05889892578125,-0.66412353515625
1759858454747,1046186746,16648,22,-0.815185546875,-0.05767822265625,-0.66265869140625
1759858454747,1046186746,16648,23,-0.814208984375,-0.05621337890625,-0.66314697265625
1759858454747,1046186746,16648,24,-0.815185546875,-0.06109619140625,-0.65802001953125
1759858454747,1046186746,16648,25,-0.81787109375,-0.05841064453125,-0.66094970703125
1759858454747,1046186746,16648,26,-0.816650390625,-0.06231689453125,-0.65948486328125
1759858454747,1046186746,16648,27,-0.8154296875,-0.06231689453125,-0.66070556640625
1759858454747,1046186746,16648,28,-0.813232421875,-0.06451416015625,-0.66070556640625
1759858454747,1046186746,16648,29,-0.818115234375,-0.06988525390625,-0.66314697265625
1759858454747,1046186746,16648,30,-0.813720703125,-0.07086181640625,-0.66314697265625
1759858454747,1046186746,16648,31,-0.814208984375,-0.06964111328125,-0.66168212890625
1759858457269,1046189259,16649,0,-0.813232421875,-0.06939697265625,-0.66217041015625
1759858457269,1046189259,16649,1,-0.812744140625,-0.06842041015625,-0.66632080078125
1759858457269,1046189259,16649,2,-0.814453125,-0.07427978515625,-0.66265869140625
1759858457269,1046189259,16649,3,-0.814208984375,-0.07110595703125,-0.66314697265625
1759858457269,1046189259,16649,4,-0.81494140625,-0.07501220703125,-0.66363525390625
1759858457269,1046189259,16649,5,-0.814453125,-0.07623291015625,-0.66119384765625
1759858457269,1046189259,16649,6,-0.814208984375,-0.07696533203125,-0.66290283203125
1759858457269,1046189259,16649,7,-0.812744140625,-0.07696533203125,-0.66265869140625
1759858457269,1046189259,16649,8,-0.80859375,-0.07452392578125,-0.66461181640625
1759858457269,1046189259,16649,9,-0.808837890625,-0.07745361328125,-0.66168212890625
1759858457269,1046189259,16649,10,-0.818115234375,-0.07989501953125,-0.65948486328125
1759858457269,1046189259,16649,11,-0.824951171875,-0.08087158203125,-0.65240478515625
1759858457269,1046189259,16649,12,-0.82666015625,-0.08135986328125,-0.64703369140625
1759858457269,1046189259,16649,13,-0.830810546875,-0.08135986328125,-0.63970947265625
1759858457269,1046189259,16649,14,-0.8330078125,-0.07867431640625,-0.64190673828125
1759858457269,1046189259,16649,15,-0.83056640625,-0.07891845703125,-0.63922119140625
1759858457269,1046189259,16649,16,-0.828369140625,-0.07965087890625,-0.63775634765625
1759858457269,1046189259,16649,17,-0.826416015625,-0.08599853515625,-0.64215087890625
1759858457269,1046189259,16649,18,-0.82421875,-0.08843994140625,-0.64874267578125
1759858457269,1046189259,16649,19,-0.82568359375,-0.08575439453125,-0.64703369140625
1759858457269,1046189259,16649,20,-0.8232421875,-0.08258056640625,-0.64483642578125
1759858457269,1046189259,16649,21,-0.827880859375,-0.08453369140625,-0.64678955078125
1759858457269,1046189259,16649,22,-0.8291015625,-0.08770751953125,-0.64141845703125
1759858457269,1046189259,16649,23,-0.82666015625,-0.08575439453125,-0.63800048828125
1759858457269,1046189259,16649,24,-0.822509765625,-0.09088134765625,-0.64556884765625
1759858457269,1046189259,16649,25,-0.822998046875,-0.09063720703125,-0.64776611328125
1759858457269,1046189259,16649,26,-0.824462890625,-0.09136962890625,-0.65045166015625
1759858457269,1046189259,16649,27,-0.826416015625,-0.08624267578125,-0.64312744140625
1759858457269,1046189259,16649,28,-0.828125,-0.09014892578125,-0.63800048828125
1759858457269,1046189259,16649,29,-0.830322265625,-0.08892822265625,-0.64288330078125
1759858457269,1046189259,16649,30,-0.8291015625,-0.09356689453125,-0.64239501953125
1759858457269,1046189259,16649,31,-0.828369140625,-0.08941650390625,-0.64630126953125
1759858459787,1046191772,16650,0,-0.822021484375,-0.08624267578125,-0.64654541015625
1759858459787,1046191772,16650,1,-0.82177734375,-0.08697509765625,-0.64532470703125
1759858459787,1046191772,16650,2,-0.82177734375,-0.09161376953125,-0.64996337890625
1759858459787,1046191772,16650,3,-0.82275390625,-0.08917236328125,-0.64825439453125
1759858459787,1046191772,16650,4,-0.826171875,-0.08843994140625,-0.64630126953125
1759858459787,1046191772,16650,5,-0.827392578125,-0.08917236328125,-0.64752197265625
1759858459787,1046191772,16650,6,-0.823486328125,-0.09136962890625,-0.64605712890625
1759858459787,1046191772,16650,7,-0.821533203125,-0.09210205078125,-0.64849853515625
1759858459787,1046191772,16650,8,-0.8232421875,-0.09307861328125,-0.65362548828125
1759858459787,1046191772,16650,9,-0.84033203125,-0.09210205078125,-0.63116455078125
1759858459787,1046191772,16650,10,-0.850341796875,-0.10089111328125,-0.61749267578125
1759858459787,1046191772,16650,11,-0.84130859375,-0.07891845703125,-0.61578369140625
1759858459787,1046191772,16650,12,-0.845703125,-0.07427978515625,-0.62261962890625
1759858459787,1046191772,16650,13,-0.841552734375,-0.07452392578125,-0.63873291015625
1759858459787,1046191772,16650,14,-0.82080078125,-0.07647705078125,-0.63726806640625
1759858459787,1046191772,16650,15,-0.822998046875,-0.07281494140625,-0.65924072265625
1759858459787,1046191772,16650,16,-0.829833984375,-0.07720947265625,-0.64801025390625
1759858459787,1046191772,16650,17,-0.825439453125,-0.07769775390625,-0.64361572265625
1759858459787,1046191772,16650,18,-0.824951171875,-0.07452392578125,-0.64752197265625
1759858459787,1046191772,16650,19,-0.826416015625,-0.07403564453125,-0.64752197265625
1759858459787,1046191772,16650,20,-0.823486328125,-0.07452392578125,-0.65118408203125
1759858459787,1046191772,16650,21,-0.82861328125,-0.07281494140625,-0.64288330078125
1759858459787,1046191772,16650,22,-0.82958984375,-0.07598876953125,-0.63458251953125
1759858459787,1046191772,16650,23,-0.8330078125,-0.07208251953125,-0.63824462890625
1759858459787,1046191772,16650,24,-0.833251953125,-0.07330322265625,-0.63726806640625
1759858459787,1046191772,16650,25,-0.8291015625,-0.07525634765625,-0.64508056640625
1759858459787,1046191772,16650,26,-0.83154296875,-0.07647705078125,-0.64141845703125
1759858459787,1046191772,16650,27,-0.828369140625,-0.07452392578125,-0.64508056640625
1759858459787,1046191772,16650,28,-0.82861328125,-0.07598876953125,-0.64752197265625
1759858459787,1046191772,16650,29,-0.831298828125,-0.07720947265625,-0.64434814453125
1759858459787,1046191772,16650,30,-0.82666015625,-0.07843017578125,-0.64434814453125
1759858459787,1046191772,16650,31,-0.825927734375,-0.07550048828125,-0.64581298828125
1759858462305,1046194285,16651,0,-0.825439453125,-0.07427978515625,-0.64263916015625
1759858462305,1046194285,16651,1,-0.822021484375,-0.08062744140625,-0.64947509765625
1759858462305,1046194285,16651,2,-0.827880859375,-0.07965087890625,-0.64703369140625
1759858462305,1046194285,16651,3,-0.8291015625,-0.07989501953125,-0.63970947265625
1759858462305,1046194285,16651,4,-0.828125,-0.07794189453125,-0.64678955078125
1759858462305,1046194285,16651,5,-0.828369140625,-0.08013916015625,-0.64239501953125
1759858462305,1046194285,16651,6,-0.8232421875,-0.08258056640625,-0.64727783203125
1759858462305,1046194285,16651,7,-0.82177734375,-0.08282470703125,-0.64947509765625
1759858462305,1046194285,16651,8,-0.833251953125,-0.08258056640625,-0.64312744140625
1759858462305,1046194285,16651,9,-0.830810546875,-0.08502197265625,-0.63604736328125
1759858462305,1046194285,16651,10,-0.833984375,-0.08941650390625,-0.62603759765625
1759858462305,1046194285,16651,11,-0.84228515625,-0.09674072265625,-0.62237548828125
1759858462305,1046194285,16651,12,-0.85009765625,-0.10528564453125,-0.62896728515625
1759858462305,1046194285,16651,13,-0.84130859375,-0.10894775390625,-0.61944580078125
1759858462305,1046194285,16651,14,-0.838623046875,-0.11016845703125,-0.62310791015625
1759858462305,1046194285,16651,15,-0.84619140625,-0.11895751953125,-0.60870361328125
1759858462305,1046194285,16651,16,-0.84521484375,-0.11676025390625,-0.61114501953125
1759858462305,1046194285,16651,17,-0.851318359375,-0.12823486328125,-0.60260009765625
1759858462305,1046194285,16651,18,-0.8466796875,-0.13580322265625,-0.60406494140625
1759858462305,1046194285,16651,19,-0.845703125,-0.13970947265625,-0.60211181640625
1759858462305,1046194285,16651,20,-0.859130859375,-0.14556884765625,-0.59698486328125
1759858462305,1046194285,16651,21,-0.852783203125,-0.15802001953125,-0.58990478515625
1759858462305,1046194285,16651,22,-0.85546875,-0.16705322265625,-0.60284423828125
1759858462305,1046194285,16651,23,-0.85107421875,-0.17584228515625,-0.60357666015625
1759858462305,1046194285,16651,24,-0.849853515625,-0.17926025390625,-0.60308837890625
1759858462305,1046194285,16651,25,-0.844970703125,-0.19146728515625,-0.60455322265625
1759858462305,1046194285,16651,26,-0.84326171875,-0.18658447265625,-0.61041259765625
1759858462305,1046194285,16651,27,-0.844970703125,-0.17828369140625,-0.60577392578125
1759858462305,1046194285,16651,28,-0.84716796875,-0.17803955078125,-0.60357666015625
1759858462305,1046194285,16651,29,-0.8427734375,-0.17291259765625,-0.60577392578125
1759858462305,1046194285,16651,30,-0.861572265625,-0.16778564453125,-0.59771728515625
1759858462305,1046194285,16651,31,-0.8544921875,-0.16339111328125,-0.59381103515625
1759858464827,1046196798,16652,0,-0.853759765625,-0.14678955078125,-0.59454345703125
1759858464827,1046196798,16652,1,-0.851806640625,-0.13922119140625,-0.59136962890625
1759858464827,1046196798,16652,2,-0.8525390625,-0.15386962890625,-0.60406494140625
1759858464827,1046196798,16652,3,-0.848876953125,-0.15386962890625,-0.61358642578125
1759858464827,1046196798,16652,4,-0.8466796875,-0.15045166015625,-0.60552978515625
1759858464827,1046196798,16652,5,-0.851318359375,-0.14825439453125,-0.60870361328125
1759858464827,1046196798,16652,6,-0.8447265625,-0.14605712890625,-0.60333251953125
1759858464827,1046196798,16652,7,-0.8515625,-0.13800048828125,-0.59796142578125
1759858464827,1046196798,16652,8,-0.85302734375,-0.13751220703125,-0.60382080078125
1759858464827,1046196798,16652,9,-0.8427734375,-0.13848876953125,-0.61407470703125
1759858464827,1046196798,16652,10,-0.83984375,-0.13775634765625,-0.61822509765625
1759858464827,1046196798,16652,11,-0.84375,-0.13897705078125,-0.61041259765625
1759858464827,1046196798,16652,12,-0.860595703125,-0.15142822265625,-0.61016845703125
1759858464827,1046196798,16652,13,-0.852294921875,-0.14874267578125,-0.60479736328125
1759858464827,1046196798,16652,14,-0.8447265625,-0.13604736328125,-0.60968017578125
1759858464827,1046196798,16652,15,-0.847900390625,-0.13824462890625,-0.60797119140625
1759858464827,1046196798,16652,16,-0.849365234375,-0.12847900390625,-0.61065673828125
1759858464827,1046196798,16652,17,-0.847412109375,-0.13018798828125,-0.60821533203125
1759858464827,1046196798,16652,18,-0.851806640625,-0.12823486328125,-0.61260986328125
1759858464827,1046196798,16652,19,-0.85986328125,-0.13189697265625,-0.60845947265625
1759858464827,1046196798,16652,20,-0.859130859375,-0.13018798828125,-0.59185791015625
1759858464827,1046196798,16652,21,-0.84716796875,-0.12725830078125,-0.58673095703125
1759858464827,1046196798,16652,22,-0.857666015625,-0.14288330078125,-0.58575439453125
1759858464827,1046196798,16652,23,-0.85595703125,-0.14215087890625,-0.58575439453125
1759858464827,1046196798,16652,24,-0.855224609375,-0.17218017578125,-0.60626220703125
1759858464827,1046196798,16652,25,-0.854248046875,-0.19195556640625,-0.60552978515625
1759858464827,1046196798,16652,26,-0.847900390625,-0.19635009765625,-0.61529541015625
1759858464827,1046196798,16652,27,-0.8271484375,-0.19342041015625,-0.60601806640625
1759858464827,1046196798,16652,28,-0.840087890625,-0.19830322265625,-0.61383056640625
1759858464827,1046196798,16652,29,-0.848388671875,-0.19171142578125,-0.60601806640625
1759858464827,1046196798,16652,30,-0.84423828125,-0.18780517578125,-0.60357666015625
1759858464827,1046196798,16652,31,-0.83203125,-0.17974853515625,-0.60162353515625
1759858467346,1046199311,16653,0,-0.851318359375,-0.18267822265625,-0.60357666015625
1759858467346,1046199311,16653,1,-0.8486328125,-0.18609619140625,-0.60601806640625
1759858467346,1046199311,16653,2,-0.853759765625,-0.18072509765625,-0.60284423828125
1759858467346,1046199311,16653,3,-0.84912109375,-0.16607666015625,-0.59185791015625
1759858467346,1046199311,16653,4,-0.85693359375,-0.16754150390625,-0.59429931640625
1759858467346,1046199311,16653,5,-0.856689453125,-0.16510009765625,-0.58551025390625
1759858467346,1046199311,16653,6,-0.859375,-0.15899658203125,-0.58966064453125
1759858467346,1046199311,16653,7,-0.85791015625,-0.15753173828125,-0.59844970703125
1759858467346,1046199311,16653,8,-0.853759765625,-0.15216064453125,-0.59722900390625
1759858467346,1046199311,16653,9,-0.850341796875,-0.15460205078125,-0.59405517578125
1759858467346,1046199311,16653,10,-0.847412109375,-0.15533447265625,-0.60845947265625
1759858467346,1046199311,16653,11,-0.853515625,-0.15655517578125,-0.60235595703125
1759858467346,1046199311,16653,12,-0.85498046875,-0.16607666015625,-0.59503173828125
1759858467346,1046199311,16653,13,-0.84716796875,-0.16436767578125,-0.60357666015625
1759858467346,1046199311,16653,14,-0.84765625,-0.16217041015625,-0.60333251953125
1759858467346,1046199311,16653,15,-0.8505859375,-0.15557861328125,-0.60113525390625
1759858467346,1046199311,16653,16,-0.855224609375,-0.15509033203125,-0.60162353515625
1759858467346,1046199311,16653,17,-0.855224609375,-0.16265869140625,-0.59722900390625
1759858467346,1046199311,16653,18,-0.85107421875,-0.16339111328125,-0.59893798828125
1759858467346,1046199311,16653,19,-0.8525390625,-0.16119384765625,-0.60015869140625
1759858467346,1046199311,16653,20,-0.8525390625,-0.16021728515625,-0.59796142578125
1759858467346,1046199311,16653,21,-0.854248046875,-0.16094970703125,-0.59674072265625
1759858467346,1046199311,16653,22,-0.855712890625,-0.15582275390625,-0.59161376953125
1759858467346,1046199311,16653,23,-0.8564453125,-0.15826416015625,-0.59747314453125
1759858467346,1046199311,16653,24,-0.86083984375,-0.15118408203125,-0.59088134765625
1759858467346,1046199311,16653,25,-0.857177734375,-0.15875244140625,-0.59478759765625
1759858467346,1046199311,16653,26,-0.846435546875,-0.15338134765625,-0.59576416015625
1759858467346,1046199311,16653,27,-0.85693359375,-0.15704345703125,-0.59747314453125
1759858467346,1046199311,16653,28,-0.8603515625,-0.15313720703125,-0.59600830078125
1759858467346,1046199311,16653,29,-0.85546875,-0.15216064453125,-0.59820556640625
1759858467346,1046199311,16653,30,-0.85400390625,-0.15142822265625,-0.59796142578125
1759858467346,1046199311,16653,31,-0.85546875,-0.15411376953125,-0.59967041015625
1759858469866,1046201824,16654,0,-0.85791015625,-0.15875244140625,-0.60040283203125
1759858469866,1046201824,16654,1,-0.8515625,-0.15435791015625,-0.58868408203125
1759858469866,1046201824,16654,2,-0.856689453125,-0.15655517578125,-0.59405517578125
1759858469866,1046201824,16654,3,-0.85791015625,-0.15631103515625,-0.59429931640625
1759858469866,1046201824,16654,4,-0.85595703125,-0.15460205078125,-0.59503173828125
1759858469866,1046201824,16654,5,-0.855712890625,-0.15509033203125,-0.59600830078125
1759858469866,1046201824,16654,6,-0.85546875,-0.15850830078125,-0.59259033203125
1759858469866,1046201824,16654,7,-0.85595703125,-0.15899658203125,-0.59185791015625
1759858469866,1046201824,16654,8,-0.8544921875,-0.16070556640625,-0.59454345703125
1759858469866,1046201824,16654,9,-0.85302734375,-0.15948486328125,-0.59381103515625
1759858469866,1046201824,16654,10,-0.8564453125,-0.15850830078125,-0.58917236328125
1759858469866,1046201824,16654,11,-0.855224609375,-0.16265869140625,-0.60040283203125
1759858469866,1046201824,16654,12,-0.85302734375,-0.16363525390625,-0.59527587890625
1759858469866,1046201824,16654,13,-0.85546875,-0.16510009765625,-0.59429931640625
1759858469866,1046201824,16654,14,-0.852783203125,-0.16558837890625,-0.59991455078125
1759858469866,1046201824,16654,15,-0.854248046875,-0.16607666015625,-0.59454345703125
1759858469866,1046201824,16654,16,-0.854736328125,-0.16729736328125,-0.59381103515625
1759858469866,1046201824,16654,17,-0.855224609375,-0.16510009765625,-0.59527587890625
1759858469866,1046201824,16654,18,-0.85302734375,-0.16290283203125,-0.59893798828125
1759858469866,1046201824,16654,19,-0.853759765625,-0.16461181640625,-0.59576416015625
1759858469866,1046201824,16654,20,-0.85693359375,-0.16705322265625,-0.59210205078125
1759858469866,1046201824,16654,21,-0.8564453125,-0.16436767578125,-0.59356689453125
1759858469866,1046201824,16654,22,-0.854248046875,-0.16827392578125,-0.58941650390625
1759858469866,1046201824,16654,23,-0.856689453125,-0.16973876953125,-0.59381103515625
1759858469866,1046201824,16654,24,-0.8544921875,-0.17095947265625,-0.58917236328125
1759858469866,1046201824,16654,25,-0.854736328125,-0.17242431640625,-0.59454345703125
1759858469866,1046201824,16654,26,-0.856201171875,-0.16998291015625,-0.59259033203125
1759858469866,1046201824,16654,27,-0.856201171875,-0.17462158203125,-0.58648681640625
1759858469866,1046201824,16654,28,-0.859619140625,-0.17144775390625,-0.58453369140625
1759858469866,1046201824,16654,29,-0.858154296875,-0.17169189453125,-0.58575439453125
1759858469866,1046201824,16654,30,-0.859375,-0.17242431640625,-0.58404541015625
1759858469866,1046201824,16654,31,-0.860595703125,-0.16949462890625,-0.58306884765625
1759858472388,1046204337,16655,0,-0.862060546875,-0.16632080078125,-0.58160400390625
1759858472388,1046204337,16655,1,-0.860595703125,-0.16412353515625,-0.58428955078125
1759858472388,1046204337,16655,2,-0.86083984375,-0.16241455078125,-0.58892822265625
1759858472388,1046204337,16655,3,-0.861083984375,-0.16632080078125,-0.58087158203125
1759858472388,1046204337,16655,4,-0.860595703125,-0.16070556640625,-0.59356689453125
1759858472388,1046204337,16655,5,-0.859130859375,-0.16314697265625,-0.58404541015625
1759858472388,1046204337,16655,6,-0.86083984375,-0.16802978515625,-0.58746337890625
1759858472388,1046204337,16655,7,-0.8583984375,-0.16900634765625,-0.59014892578125
1759858472388,1046204337,16655,8,-0.857421875,-0.16754150390625,-0.59259033203125
1759858472388,1046204337,16655,9,-0.85693359375,-0.16632080078125,-0.58795166015625
1759858472388,1046204337,16655,10,-0.85888671875,-0.16607666015625,-0.58526611328125
1759858472388,1046204337,16655,11,-0.85791015625,-0.16729736328125,-0.58819580078125
1759858472388,1046204337,16655,12,-0.85791015625,-0.16729736328125,-0.58892822265625
1759858472388,1046204337,16655,13,-0.857421875,-0.16778564453125,-0.59161376953125
1759858472388,1046204337,16655,14,-0.858154296875,-0.16534423828125,-0.59234619140625
1759858472388,1046204337,16655,15,-0.855224609375,-0.16290283203125,-0.59259033203125
1759858472388,1046204337,16655,16,-0.85498046875,-0.15899658203125,-0.59332275390625
1759858472388,1046204337,16655,17,-0.857666015625,-0.16705322265625,-0.59210205078125
1759858472388,1046204337,16655,18,-0.85693359375,-0.16583251953125,-0.59576416015625
1759858472388,1046204337,16655,19,-0.8525390625,-0.16632080078125,-0.59771728515625
1759858472388,1046204337,16655,20,-0.851806640625,-0.16436767578125,-0.59014892578125
1759858472388,1046204337,16655,21,-0.85546875,-0.16754150390625,-0.59844970703125
1759858472388,1046204337,16655,22,-0.855712890625,-0.16729736328125,-0.59674072265625
1759858472388,1046204337,16655,23,-0.85498046875,-0.16680908203125,-0.59649658203125
1759858472388,1046204337,16655,24,-0.851318359375,-0.16632080078125,-0.59918212890625
1759858472388,1046204337,16655,25,-0.853271484375,-0.16485595703125,-0.59967041015625
1759858472388,1046204337,16655,26,-0.851318359375,-0.16607666015625,-0.59991455078125
1759858472388,1046204337,16655,27,-0.85498046875,-0.16632080078125,-0.59136962890625
1759858472388,1046204337,16655,28,-0.85400390625,-0.16778564453125,-0.59527587890625
1759858472388,1046204337,16655,29,-0.85595703125,-0.16607666015625,-0.59063720703125
1759858472388,1046204337,16655,30,-0.857177734375,-0.16754150390625,-0.59698486328125
1759858472388,1046204337,16655,31,-0.854248046875,-0.16998291015625,-0.59405517578125
1759858474910,1046206856,16656,0,-0.855712890625,-0.16900634765625,-0.59429931640625
1759858474910,1046206856,16656,1,-0.85400390625,-0.17218017578125,-0.59625244140625
1759858474910,1046206856,16656,2,-0.852294921875,-0.17291259765625,-0.59259033203125
1759858474910,1046206856,16656,3,-0.851806640625,-0.17218017578125,-0.59259033203125
1759858474910,1046206856,16656,4,-0.853271484375,-0.16973876953125,-0.59747314453125
1759858474910,1046206856,16656,5,-0.8544921875,-0.17266845703125,-0.59381103515625
1759858474910,1046206856,16656,6,-0.855224609375,-0.17266845703125,-0.59381103515625
1759858474910,1046206856,16656,7,-0.8505859375,-0.17291259765625,-0.59967041015625
1759858474910,1046206856,16656,8,-0.849853515625,-0.17120361328125,-0.59527587890625
1759858474910,1046206856,16656,9,-0.85400390625,-0.17144775390625,-0.59796142578125
1759858474910,1046206856,16656,10,-0.85205078125,-0.17218017578125,-0.59698486328125
1759858474910,1046206856,16656,11,-0.855712890625,-0.17364501953125,-0.58599853515625
1759858474910,1046206856,16656,12,-0.852294921875,-0.17315673828125,-0.61187744140625
1759858474910,1046206856,16656,13,-0.84423828125,-0.16851806640625,-0.59771728515625
1759858474910,1046206856,16656,14,-0.849365234375,-0.16510009765625,-0.60089111328125
1759858474910,1046206856,16656,15,-0.85546875,-0.17315673828125,-0.60235595703125
1759858474910,1046206856,16656,16,-0.849853515625,-0.17193603515625,-0.59893798828125
1759858474910,1046206856,16656,17,-0.85009765625,-0.17877197265625,-0.59112548828125
1759858474910,1046206856,16656,18,-0.86669921875,-0.18170166015625,-0.58795166015625
1759858474910,1046206856,16656,19,-0.865966796875,-0.17510986328125,-0.57818603515625
1759858474910,1046206856,16656,20,-0.861572265625,-0.16558837890625,-0.57061767578125
1759858474910,1046206856,16656,21,-0.864501953125,-0.15557861328125,-0.58111572265625
1759858474910,1046206856,16656,22,-0.86181640625,-0.15289306640625,-0.58599853515625
1759858474910,1046206856,16656,23,-0.8603515625,-0.15728759765625,-0.58795166015625
1759858474910,1046206856,16656,24,-0.853271484375,-0.15997314453125,-0.59942626953125
1759858474910,1046206856,16656,25,-0.853515625,-0.16021728515625,-0.60040283203125
1759858474910,1046206856,16656,26,-0.8525390625,-0.15948486328125,-0.59552001953125
1759858474910,1046206856,16656,27,-0.855224609375,-0.16314697265625,-0.59503173828125
1759858474910,1046206856,16656,28,-0.855224609375,-0.16168212890625,-0.59014892578125
1759858474910,1046206856,16656,29,-0.85595703125,-0.16339111328125,-0.58795166015625
1759858474910,1046206856,16656,30,-0.858154296875,-0.16632080078125,-0.59332275390625
1759858474910,1046206856,16656,31,-0.8583984375,-0.16778564453125,-0.59503173828125
1759858477427,1046209375,16657,0,-0.8564453125,-0.16607666015625,-0.59210205078125
1759858477427,1046209375,16657,1,-0.8583984375,-0.16729736328125,-0.58795166015625
1759858477427,1046209375,16657,2,-0.86083984375,-0.16607666015625,-0.58233642578125
1759858477427,1046209375,16657,3,-0.8583984375,-0.16510009765625,-0.58795166015625
1759858477427,1046209375,16657,4,-0.857177734375,-0.16656494140625,-0.59259033203125
1759858477427,1046209375,16657,5,-0.85791015625,-0.16680908203125,-0.59088134765625
1759858477427,1046209375,16657,6,-0.85986328125,-0.16607666015625,-0.58990478515625
1759858477427,1046209375,16657,7,-0.861328125,-0.16680908203125,-0.58697509765625
1759858477427,1046209375,16657,8,-0.8603515625,-0.16754150390625,-0.58795166015625
1759858477427,1046209375,16657,9,-0.861572265625,-0.16680908203125,-0.58551025390625
1759858477427,1046209375,16657,10,-0.859375,-0.16656494140625,-0.58331298828125
1759858477427,1046209375,16657,11,-0.8583984375,-0.16461181640625,-0.58648681640625
1759858477427,1046209375,16657,12,-0.858154296875,-0.16802978515625,-0.58209228515625
1759858477427,1046209375,16657,13,-0.859619140625,-0.16754150390625,-0.59014892578125
1759858477427,1046209375,16657,14,-0.859130859375,-0.16632080078125,-0.58673095703125
1759858477427,1046209375,16657,15,-0.857666015625,-0.16851806640625,-0.58697509765625
1759858477427,1046209375,16657,16,-0.86083984375,-0.17120361328125,-0.58673095703125
1759858477427,1046209375,16657,17,-0.859619140625,-0.16754150390625,-0.58428955078125
1759858477427,1046209375,16657,18,-0.8603515625,-0.16510009765625,-0.58624267578125
1759858477427,1046209375,16657,19,-0.857421875,-0.16558837890625,-0.58331298828125
1759858477427,1046209375,16657,20,-0.860595703125,-0.16656494140625,-0.57769775390625
1759858477427,1046209375,16657,21,-0.8642578125,-0.16925048828125,-0.58355712890625
1759858477427,1046209375,16657,22,-0.861572265625,-0.16998291015625,-0.57916259765625
1759858477427,1046209375,16657,23,-0.8603515625,-0.17291259765625,-0.57891845703125
1759858477427,1046209375,16657,24,-0.859130859375,-0.17340087890625,-0.57989501953125
1759858477427,1046209375,16657,25,-0.86572265625,-0.17779541015625,-0.57452392578125
1759858477427,1046209375,16657,26,-0.86474609375,-0.17413330078125,-0.57720947265625
1759858477427,1046209375,16657,27,-0.86083984375,-0.17535400390625,-0.57989501953125
1759858477427,1046209375,16657,28,-0.86328125,-0.17340087890625,-0.57794189453125
1759858477427,1046209375,16657,29,-0.866455078125,-0.17608642578125,-0.58160400390625
1759858477427,1046209375,16657,30,-0.86279296875,-0.17681884765625,-0.57940673828125
1759858477427,1046209375,16657,31,-0.86083984375,-0.17584228515625,-0.57891845703125
1759858479949,1046211894,16658,0,-0.86572265625,-0.17877197265625,-0.58038330078125
1759858479949,1046211894,16658,1,-0.868408203125,-0.18023681640625,-0.57086181640625
1759858479949,1046211894,16658,2,-0.866943359375,-0.17340087890625,-0.56964111328125
1759858479949,1046211894,16658,3,-0.86865234375,-0.17193603515625,-0.57354736328125
1759858479949,1046211894,16658,4,-0.870361328125,-0.16925048828125,-0.57061767578125
1759858479949,1046211894,16658,5,-0.868896484375,-0.16412353515625,-0.57501220703125
1759858479949,1046211894,16658,6,-0.868896484375,-0.15704345703125,-0.57232666015625
1759858479949,1046211894,16658,7,-0.86669921875,-0.16241455078125,-0.57257080078125
1759858479949,1046211894,16658,8,-0.861328125,-0.16729736328125,-0.58184814453125
1759858479949,1046211894,16658,9,-0.863525390625,-0.15753173828125,-0.58428955078125
1759858479949,1046211894,16658,10,-0.863525390625,-0.16436767578125,-0.58111572265625
1759858479949,1046211894,16658,11,-0.8642578125,-0.16314697265625,-0.57867431640625
1759858479949,1046211894,16658,12,-0.86279296875,-0.16485595703125,-0.58160400390625
1759858479949,1046211894,16658,13,-0.863037109375,-0.16510009765625,-0.58062744140625
1759858479949,1046211894,16658,14,-0.86279296875,-0.16754150390625,-0.57916259765625
1759858479949,1046211894,16658,15,-0.8642578125,-0.16802978515625,-0.58013916015625
1759858479949,1046211894,16658,16,-0.864990234375,-0.16754150390625,-0.57672119140625
1759858479949,1046211894,16658,17,-0.866455078125,-0.17022705078125,-0.57403564453125
1759858479949,1046211894,16658,18,-0.868408203125,-0.17047119140625,-0.57696533203125
1759858479949,1046211894,16658,19,-0.865966796875,-0.16949462890625,-0.57330322265625
1759858479949,1046211894,16658,20,-0.86181640625,-0.17047119140625,-0.57794189453125
1759858479949,1046211894,16658,21,-0.864501953125,-0.17095947265625,-0.57257080078125
1759858479949,1046211894,16658,22,-0.8642578125,-0.16876220703125,-0.58013916015625
