receivedPhoneTimestamp,respeckTimestamp,packetSeqNum,sampleSeqNum,accelX,accelY,accelZ
1759502359566,689960582,28022,0,-0.087158203125,-0.96978759765625,0.21771240234375
1759502359566,689960582,28022,1,-0.09130859375,-0.96759033203125,0.20965576171875
1759502359566,689960582,28022,2,-0.0927734375,-0.97003173828125,0.21185302734375
1759502359566,689960582,28022,3,-0.09033203125,-0.96636962890625,0.21331787109375
1759502359566,689960582,28022,4,-0.08984375,-0.96881103515625,0.21258544921875
1759502359566,689960582,28022,5,-0.08984375,-0.96856689453125,0.21917724609375
1759502359566,689960582,28022,6,-0.088134765625,-0.96563720703125,0.21722412109375
1759502359566,689960582,28022,7,-0.0830078125,-0.95782470703125,0.22210693359375
1759502359566,689960582,28022,8,-0.082275390625,-0.95733642578125,0.21405029296875
1759502359566,689960582,28022,9,-0.0869140625,-0.97662353515625,0.22283935546875
1759502359566,689960582,28022,10,-0.088134765625,-0.96832275390625,0.21600341796875
1759502359566,689960582,28022,11,-0.08544921875,-0.95953369140625,0.21551513671875
1759502359566,689960582,28022,12,-0.075439453125,-0.97637939453125,0.21429443359375
1759502359566,689960582,28022,13,-0.0751953125,-0.97540283203125,0.20355224609375
1759502359566,689960582,28022,14,-0.082763671875,-0.96441650390625,0.20892333984375
1759502359566,689960582,28022,15,-0.07763671875,-0.97149658203125,0.19891357421875
1759502359566,689960582,28022,16,-0.080322265625,-0.98101806640625,0.20623779296875
1759502359566,689960582,28022,17,-0.088623046875,-0.96124267578125,0.21160888671875
1759502359566,689960582,28022,18,-0.08349609375,-0.97222900390625,0.20770263671875
1759502359566,689960582,28022,19,-0.0859375,-0.96759033203125,0.20501708984375
1759502359566,689960582,28022,20,-0.088623046875,-0.97320556640625,0.20404052734375
1759502359566,689960582,28022,21,-0.084228515625,-0.97418212890625,0.20037841796875
1759502359566,689960582,28022,22,-0.07861328125,-0.97320556640625,0.20257568359375
1759502359566,689960582,28022,23,-0.083251953125,-0.96783447265625,0.20428466796875
1759502359566,689960582,28022,24,-0.087646484375,-0.97271728515625,0.21234130859375
1759502359566,689960582,28022,25,-0.083740234375,-0.96392822265625,0.21185302734375
1759502359566,689960582,28022,26,-0.093994140625,-0.97076416015625,0.20184326171875
1759502359566,689960582,28022,27,-0.077880859375,-0.97686767578125,0.20062255859375
1759502359566,689960582,28022,28,-0.087158203125,-0.96710205078125,0.20233154296875
1759502359566,689960582,28022,29,-0.08251953125,-0.96905517578125,0.20623779296875
1759502359566,689960582,28022,30,-0.0947265625,-0.96807861328125,0.20526123046875
1759502359566,689960582,28022,31,-0.09423828125,-0.96929931640625,0.20452880859375
1759502362296,689963125,28023,0,-0.0908203125,-0.97540283203125,0.19281005859375
1759502362296,689963125,28023,1,-0.084228515625,-0.97393798828125,0.20013427734375
1759502362296,689963125,28023,2,-0.09521484375,-0.96466064453125,0.21380615234375
1759502362296,689963125,28023,3,-0.076171875,-0.98590087890625,0.18328857421875
1759502362296,689963125,28023,4,-0.086669921875,-0.95440673828125,0.20892333984375
1759502362296,689963125,28023,5,-0.057861328125,-0.97100830078125,0.19500732421875
1759502362296,689963125,28023,6,-0.068115234375,-0.97662353515625,0.18743896484375
1759502362296,689963125,28023,7,-0.0693359375,-0.97735595703125,0.18963623046875
1759502362296,689963125,28023,8,-0.061279296875,-0.99859619140625,0.19525146484375
1759502362296,689963125,28023,9,-0.0625,-0.96490478515625,0.19476318359375
1759502362296,689963125,28023,10,-0.06201171875,-0.92999267578125,0.24310302734375
1759502362296,689963125,28023,11,-0.082763671875,-0.99078369140625,0.20379638671875
1759502362296,689963125,28023,12,0.013916015625,-0.98638916015625,0.18353271484375
1759502362296,689963125,28023,13,-0.08740234375,-0.94903564453125,0.21575927734375
1759502362296,689963125,28023,14,-0.056884765625,-0.99420166015625,0.21038818359375
1759502362296,689963125,28023,15,-0.0439453125,-0.96051025390625,0.20843505859375
1759502362296,689963125,28023,16,-0.072265625,-0.96490478515625,0.21405029296875
1759502362296,689963125,28023,17,-0.075927734375,-0.96856689453125,0.21405029296875
1759502362296,689963125,28023,18,-0.0712890625,-0.97222900390625,0.21063232421875
1759502362296,689963125,28023,19,-0.08203125,-0.97003173828125,0.21917724609375
1759502362296,689963125,28023,20,-0.07275390625,-0.97711181640625,0.20989990234375
1759502362296,689963125,28023,21,-0.0634765625,-0.96295166015625,0.21453857421875
1759502362296,689963125,28023,22,-0.069091796875,-0.96783447265625,0.21746826171875
1759502362296,689963125,28023,23,-0.094970703125,-0.99298095703125,0.17474365234375
1759502362296,689963125,28023,24,-0.064208984375,-0.98297119140625,0.18988037109375
1759502362296,689963125,28023,25,-0.068359375,-0.97930908203125,0.18450927734375
1759502362296,689963125,28023,26,-0.0791015625,-0.96978759765625,0.19598388671875
1759502362296,689963125,28023,27,-0.080078125,-0.94610595703125,0.17279052734375
1759502362296,689963125,28023,28,-0.05224609375,-0.98785400390625,0.20745849609375
1759502362296,689963125,28023,29,-0.05224609375,-0.98248291015625,0.17401123046875
1759502362296,689963125,28023,30,-0.056640625,-0.98541259765625,0.16156005859375
1759502362296,689963125,28023,31,-0.046630859375,-0.97540283203125,0.17376708984375
1759502364636,689965668,28024,0,-0.03369140625,-1.01177978515625,0.14080810546875
1759502364636,689965668,28024,1,-0.037353515625,-0.93682861328125,0.20574951171875
1759502364636,689965668,28024,2,-0.05322265625,-0.96417236328125,0.24798583984375
1759502364636,689965668,28024,3,-0.06689453125,-0.97442626953125,0.17010498046875
1759502364636,689965668,28024,4,0.044921875,-0.99859619140625,0.18060302734375
1759502364636,689965668,28024,5,-0.05615234375,-0.96539306640625,0.16082763671875
1759502364636,689965668,28024,6,-0.073486328125,-0.99981689453125,0.17474365234375
1759502364636,689965668,28024,7,-0.057373046875,-0.97711181640625,0.19476318359375
1759502364636,689965668,28024,8,-0.059814453125,-0.97418212890625,0.18646240234375
1759502364636,689965668,28024,9,-0.065673828125,-0.98052978515625,0.18109130859375
1759502364636,689965668,28024,10,-0.0546875,-0.97418212890625,0.18719482421875
1759502364636,689965668,28024,11,-0.0576171875,-0.97491455078125,0.18353271484375
1759502364636,689965668,28024,12,-0.058837890625,-0.97711181640625,0.18792724609375
1759502364636,689965668,28024,13,-0.066162109375,-0.97955322265625,0.19110107421875
1759502364636,689965668,28024,14,-0.049072265625,-0.97662353515625,0.17840576171875
1759502364636,689965668,28024,15,-0.044677734375,-0.97955322265625,0.17498779296875
1759502364636,689965668,28024,16,-0.05322265625,-0.97979736328125,0.17425537109375
1759502364636,689965668,28024,17,-0.067626953125,-0.97174072265625,0.17791748046875
1759502364636,689965668,28024,18,-0.07470703125,-0.98883056640625,0.18402099609375
1759502364636,689965668,28024,19,-0.05322265625,-0.98516845703125,0.17596435546875
1759502364636,689965668,28024,20,-0.05712890625,-0.98052978515625,0.17523193359375
1759502364636,689965668,28024,21,-0.05224609375,-0.98175048828125,0.16644287109375
1759502364636,689965668,28024,22,-0.0517578125,-0.98052978515625,0.17083740234375
1759502364636,689965668,28024,23,-0.056396484375,-0.97613525390625,0.17913818359375
1759502364636,689965668,28024,24,-0.06494140625,-0.98443603515625,0.17303466796875
1759502364636,689965668,28024,25,-0.04736328125,-0.98468017578125,0.17767333984375
1759502364636,689965668,28024,26,-0.0302734375,-0.97955322265625,0.17596435546875
1759502364636,689965668,28024,27,-0.0439453125,-0.97442626953125,0.18304443359375
1759502364636,689965668,28024,28,-0.047607421875,-0.98712158203125,0.17742919921875
1759502364636,689965668,28024,29,-0.03369140625,-0.96246337890625,0.18426513671875
1759502364636,689965668,28024,30,-0.06787109375,-0.98175048828125,0.18426513671875
1759502364636,689965668,28024,31,-0.066650390625,-0.99029541015625,0.16253662109375
1759502367171,689968211,28025,0,-0.05029296875,-0.98101806640625,0.15423583984375
1759502367171,689968211,28025,1,-0.064208984375,-0.98736572265625,0.15863037109375
1759502367171,689968211,28025,2,-0.07763671875,-0.97833251953125,0.16815185546875
1759502367171,689968211,28025,3,-0.090087890625,-0.97662353515625,0.17864990234375
1759502367171,689968211,28025,4,-0.074462890625,-0.98297119140625,0.17059326171875
1759502367171,689968211,28025,5,-0.069580078125,-0.98907470703125,0.16058349609375
1759502367171,689968211,28025,6,-0.0849609375,-0.99005126953125,0.16009521484375
1759502367171,689968211,28025,7,-0.08935546875,-0.98980712890625,0.15765380859375
1759502367171,689968211,28025,8,-0.104736328125,-0.98760986328125,0.17132568359375
1759502367171,689968211,28025,9,-0.110107421875,-0.97174072265625,0.16473388671875
1759502367171,689968211,28025,10,-0.104736328125,-0.98956298828125,0.16912841796875
1759502367171,689968211,28025,11,-0.08544921875,-0.97930908203125,0.15911865234375
1759502367171,689968211,28025,12,-0.06884765625,-0.96221923828125,0.15423583984375
1759502367171,689968211,28025,13,-0.061767578125,-0.98077392578125,0.17230224609375
1759502367171,689968211,28025,14,-0.08056640625,-0.99224853515625,0.17303466796875
1759502367171,689968211,28025,15,-0.086669921875,-0.98956298828125,0.16717529296875
1759502367171,689968211,28025,16,-0.078125,-0.97979736328125,0.16693115234375
1759502367171,689968211,28025,17,-0.04150390625,-0.97711181640625,0.16815185546875
1759502367171,689968211,28025,18,-0.024658203125,-0.97808837890625,0.18084716796875
1759502367171,689968211,28025,19,-0.062744140625,-0.98126220703125,0.18572998046875
1759502367171,689968211,28025,20,-0.058837890625,-0.96270751953125,0.19329833984375
1759502367171,689968211,28025,21,-0.071533203125,-0.96588134765625,0.20135498046875
1759502367171,689968211,28025,22,-0.079833984375,-0.99127197265625,0.17816162109375
1759502367171,689968211,28025,23,-0.067626953125,-0.97955322265625,0.16009521484375
1759502367171,689968211,28025,24,-0.067138671875,-0.98419189453125,0.15374755859375
1759502367171,689968211,28025,25,-0.060791015625,-0.99224853515625,0.16082763671875
1759502367171,689968211,28025,26,-0.0732421875,-0.97662353515625,0.17205810546875
1759502367171,689968211,28025,27,-0.09326171875,-0.97442626953125,0.17620849609375
1759502367171,689968211,28025,28,-0.08251953125,-0.98590087890625,0.16009521484375
1759502367171,689968211,28025,29,-0.067138671875,-0.98590087890625,0.15667724609375
1759502367171,689968211,28025,30,-0.070068359375,-0.98272705078125,0.15618896484375
1759502367171,689968211,28025,31,-0.07763671875,-0.98858642578125,0.16131591796875
1759502369706,689970754,28026,0,-0.075927734375,-0.97735595703125,0.15936279296875
1759502369706,689970754,28026,1,-0.08642578125,-0.98175048828125,0.16497802734375
1759502369706,689970754,28026,2,-0.078369140625,-0.98541259765625,0.15863037109375
1759502369706,689970754,28026,3,-0.072265625,-0.98785400390625,0.14642333984375
1759502369706,689970754,28026,4,-0.07373046875,-0.98712158203125,0.14447021484375
1759502369706,689970754,28026,5,-0.0693359375,-0.99005126953125,0.13934326171875
1759502369706,689970754,28026,6,-0.07177734375,-0.99029541015625,0.14715576171875
1759502369706,689970754,28026,7,-0.083740234375,-0.97052001953125,0.16644287109375
1759502369706,689970754,28026,8,-0.117919921875,-0.98980712890625,0.15911865234375
1759502369706,689970754,28026,9,-0.09326171875,-0.98736572265625,0.14984130859375
1759502369706,689970754,28026,10,-0.0927734375,-0.98052978515625,0.14422607421875
1759502369706,689970754,28026,11,-0.08642578125,-0.99346923828125,0.14227294921875
1759502369706,689970754,28026,12,-0.0859375,-0.98126220703125,0.16131591796875
1759502369706,689970754,28026,13,-0.10546875,-0.97247314453125,0.16961669921875
1759502369706,689970754,28026,14,-0.099365234375,-0.98834228515625,0.16668701171875
1759502369706,689970754,28026,15,-0.07568359375,-0.97564697265625,0.15960693359375
1759502369706,689970754,28026,16,-0.07666015625,-0.98199462890625,0.15472412109375
1759502369706,689970754,28026,17,-0.087890625,-0.98809814453125,0.16107177734375
1759502369706,689970754,28026,18,-0.091552734375,-0.97979736328125,0.16619873046875
1759502369706,689970754,28026,19,-0.109130859375,-0.97564697265625,0.16497802734375
1759502369706,689970754,28026,20,-0.094482421875,-0.98321533203125,0.16668701171875
1759502369706,689970754,28026,21,-0.08642578125,-0.98101806640625,0.15985107421875
1759502369706,689970754,28026,22,-0.091796875,-0.99102783203125,0.16815185546875
1759502369706,689970754,28026,23,-0.106201171875,-0.98590087890625,0.17132568359375
1759502369706,689970754,28026,24,-0.109375,-0.97320556640625,0.18353271484375
1759502369706,689970754,28026,25,-0.109619140625,-0.98443603515625,0.19061279296875
1759502369706,689970754,28026,26,-0.0732421875,-0.96929931640625,0.17791748046875
1759502369706,689970754,28026,27,-0.075927734375,-0.96783447265625,0.17059326171875
1759502369706,689970754,28026,28,-0.060302734375,-0.96832275390625,0.15179443359375
1759502369706,689970754,28026,29,-0.06298828125,-0.99786376953125,0.16717529296875
1759502369706,689970754,28026,30,-0.0703125,-0.99395751953125,0.15008544921875
1759502369706,689970754,28026,31,-0.09033203125,-0.97393798828125,0.16912841796875
1759502372241,689973297,28027,0,-0.08642578125,-0.97247314453125,0.18231201171875
1759502372241,689973297,28027,1,-0.076904296875,-0.98883056640625,0.16693115234375
1759502372241,689973297,28027,2,-0.066162109375,-0.98248291015625,0.16009521484375
1759502372241,689973297,28027,3,-0.086669921875,-0.97686767578125,0.16839599609375
1759502372241,689973297,28027,4,-0.10009765625,-0.97613525390625,0.17938232421875
1759502372241,689973297,28027,5,-0.097900390625,-0.98541259765625,0.17547607421875
1759502372241,689973297,28027,6,-0.05322265625,-0.97760009765625,0.17181396484375
1759502372241,689973297,28027,7,-0.03662109375,-0.98931884765625,0.15911865234375
1759502372241,689973297,28027,8,-0.063232421875,-0.97369384765625,0.18133544921875
1759502372241,689973297,28027,9,-0.081787109375,-0.98712158203125,0.19207763671875
1759502372241,689973297,28027,10,-0.05859375,-0.96221923828125,0.19525146484375
1759502372241,689973297,28027,11,-0.056884765625,-0.97613525390625,0.19232177734375
1759502372241,689973297,28027,12,-0.044921875,-0.98663330078125,0.16937255859375
1759502372241,689973297,28027,13,-0.0380859375,-0.98883056640625,0.16717529296875
1759502372241,689973297,28027,14,-0.052734375,-0.96734619140625,0.18060302734375
1759502372241,689973297,28027,15,-0.051025390625,-0.96881103515625,0.18768310546875
1759502372241,689973297,28027,16,-0.080322265625,-0.96441650390625,0.20550537109375
1759502372241,689973297,28027,17,-0.047119140625,-0.99664306640625,0.17230224609375
1759502372241,689973297,28027,18,-0.05029296875,-0.98687744140625,0.15570068359375
1759502372241,689973297,28027,19,-0.059814453125,-0.98052978515625,0.16790771484375
1759502372241,689973297,28027,20,-0.065185546875,-0.97393798828125,0.19671630859375
1759502372241,689973297,28027,21,-0.078125,-0.99029541015625,0.18084716796875
1759502372241,689973297,28027,22,-0.074951171875,-0.97344970703125,0.15618896484375
1759502372241,689973297,28027,23,-0.0361328125,-0.98443603515625,0.16229248046875
1759502372241,689973297,28027,24,-0.041259765625,-0.98345947265625,0.17962646484375
1759502372241,689973297,28027,25,-0.055419921875,-0.97027587890625,0.19866943359375
1759502372241,689973297,28027,26,-0.056884765625,-0.97808837890625,0.19183349609375
1759502372241,689973297,28027,27,-0.049072265625,-0.97784423828125,0.17572021484375
1759502372241,689973297,28027,28,-0.028076171875,-0.97052001953125,0.18084716796875
1759502372241,689973297,28027,29,-0.031494140625,-0.98638916015625,0.18157958984375
1759502372241,689973297,28027,30,-0.048095703125,-0.98565673828125,0.17889404296875
1759502372241,689973297,28027,31,-0.059326171875,-0.97906494140625,0.18084716796875
1759502374774,689975840,28028,0,-0.042236328125,-0.97906494140625,0.18719482421875
1759502374774,689975840,28028,1,-0.0263671875,-0.98052978515625,0.18157958984375
1759502374774,689975840,28028,2,-0.028564453125,-0.97686767578125,0.18548583984375
1759502374774,689975840,28028,3,-0.053466796875,-0.97979736328125,0.20819091796875
1759502374774,689975840,28028,4,-0.057861328125,-0.96636962890625,0.17010498046875
1759502374774,689975840,28028,5,-0.04443359375,-0.97637939453125,0.19720458984375
1759502374774,689975840,28028,6,-0.026123046875,-0.98712158203125,0.17742919921875
1759502374774,689975840,28028,7,-0.02880859375,-0.96539306640625,0.14862060546875
1759502374774,689975840,28028,8,-0.037109375,-0.99615478515625,0.14666748046875
1759502374774,689975840,28028,9,-0.078857421875,-0.97857666015625,0.17376708984375
1759502374774,689975840,28028,10,-0.084228515625,-0.98980712890625,0.15667724609375
1759502374774,689975840,28028,11,-0.0830078125,-0.98809814453125,0.15228271484375
1759502374774,689975840,28028,12,-0.075927734375,-0.98590087890625,0.13543701171875
1759502374774,689975840,28028,13,-0.07763671875,-0.99151611328125,0.12933349609375
1759502374774,689975840,28028,14,-0.097900390625,-0.98638916015625,0.14276123046875
1759502374774,689975840,28028,15,-0.128173828125,-0.98443603515625,0.14788818359375
1759502374774,689975840,28028,16,-0.1337890625,-0.98297119140625,0.13153076171875
1759502374774,689975840,28028,17,-0.12744140625,-0.98858642578125,0.12884521484375
1759502374774,689975840,28028,18,-0.10888671875,-0.99249267578125,0.10784912109375
1759502374774,689975840,28028,19,-0.111083984375,-0.99102783203125,0.11199951171875
1759502374774,689975840,28028,20,-0.1181640625,-0.98931884765625,0.13104248046875
1759502374774,689975840,28028,21,-0.117431640625,-0.99078369140625,0.12103271484375
1759502374774,689975840,28028,22,-0.132568359375,-0.97344970703125,0.12127685546875
1759502374774,689975840,28028,23,-0.119873046875,-1.00054931640625,0.12347412109375
1759502374774,689975840,28028,24,-0.11767578125,-0.99078369140625,0.10614013671875
1759502374774,689975840,28028,25,-0.117431640625,-0.98638916015625,0.12396240234375
1759502374774,689975840,28028,26,-0.133544921875,-0.98272705078125,0.13421630859375
1759502374774,689975840,28028,27,-0.117431640625,-0.99493408203125,0.13177490234375
1759502374774,689975840,28028,28,-0.0927734375,-0.99078369140625,0.11004638671875
1759502374774,689975840,28028,29,-0.07958984375,-0.98443603515625,0.11663818359375
1759502374774,689975840,28028,30,-0.11474609375,-0.99273681640625,0.12567138671875
1759502374774,689975840,28028,31,-0.1328125,-0.98638916015625,0.14178466796875
1759502377311,689978383,28029,0,-0.099365234375,-0.98394775390625,0.13641357421875
1759502377311,689978383,28029,1,-0.066162109375,-0.98590087890625,0.12640380859375
1759502377311,689978383,28029,2,-0.052734375,-0.99224853515625,0.12664794921875
1759502377311,689978383,28029,3,-0.0673828125,-0.98785400390625,0.13177490234375
1759502377311,689978383,28029,4,-0.0908203125,-0.98638916015625,0.14007568359375
1759502377311,689978383,28029,5,-0.0849609375,-0.98541259765625,0.14837646484375
1759502377311,689978383,28029,6,-0.060546875,-0.98516845703125,0.14056396484375
1759502377311,689978383,28029,7,-0.044189453125,-0.99566650390625,0.13739013671875
1759502377311,689978383,28029,8,-0.042724609375,-0.98541259765625,0.14080810546875
1759502377311,689978383,28029,9,-0.06884765625,-0.98858642578125,0.13690185546875
1759502377311,689978383,28029,10,-0.07080078125,-0.98809814453125,0.14910888671875
1759502377311,689978383,28029,11,-0.059814453125,-0.98321533203125,0.15277099609375
1759502377311,689978383,28029,12,-0.0517578125,-0.98883056640625,0.14862060546875
1759502377311,689978383,28029,13,-0.059814453125,-0.98809814453125,0.14788818359375
1759502377311,689978383,28029,14,-0.066162109375,-0.98297119140625,0.15057373046875
1759502377311,689978383,28029,15,-0.06201171875,-0.98785400390625,0.15643310546875
1759502377311,689978383,28029,16,-0.06787109375,-0.98834228515625,0.14495849609375
1759502377311,689978383,28029,17,-0.05615234375,-0.98638916015625,0.15374755859375
1759502377311,689978383,28029,18,-0.044189453125,-0.98931884765625,0.14031982421875
1759502377311,689978383,28029,19,-0.034423828125,-0.98199462890625,0.16278076171875
1759502377311,689978383,28029,20,-0.082275390625,-0.97296142578125,0.17034912109375
1759502377311,689978383,28029,21,-0.101318359375,-0.97564697265625,0.17303466796875
1759502377311,689978383,28029,22,-0.08349609375,-0.98736572265625,0.14910888671875
1759502377311,689978383,28029,23,-0.087890625,-0.98931884765625,0.12591552734375
1759502377311,689978383,28029,24,-0.085693359375,-0.99639892578125,0.12298583984375
1759502377311,689978383,28029,25,-0.117919921875,-0.99517822265625,0.13323974609375
1759502377311,689978383,28029,26,-0.14306640625,-0.97174072265625,0.14788818359375
1759502377311,689978383,28029,27,-0.114990234375,-0.99176025390625,0.14764404296875
1759502377311,689978383,28029,28,-0.111328125,-0.98638916015625,0.12396240234375
1759502377311,689978383,28029,29,-0.1123046875,-0.99200439453125,0.10858154296875
1759502377311,689978383,28029,30,-0.111572265625,-0.99346923828125,0.11834716796875
1759502377311,689978383,28029,31,-0.130126953125,-0.97857666015625,0.13421630859375
1759502380041,689980926,28030,0,-0.14013671875,-0.98907470703125,0.12786865234375
1759502380041,689980926,28030,1,-0.1220703125,-0.98663330078125,0.12322998046875
1759502380041,689980926,28030,2,-0.107421875,-0.98931884765625,0.11981201171875
1759502380041,689980926,28030,3,-0.105712890625,-0.99932861328125,0.12469482421875
1759502380041,689980926,28030,4,-0.125244140625,-0.98028564453125,0.14007568359375
1759502380041,689980926,28030,5,-0.127197265625,-0.98028564453125,0.15277099609375
1759502380041,689980926,28030,6,-0.11474609375,-0.98565673828125,0.15374755859375
1759502380041,689980926,28030,7,-0.0966796875,-0.97979736328125,0.13934326171875
1759502380041,689980926,28030,8,-0.100341796875,-0.98980712890625,0.14105224609375
1759502380041,689980926,28030,9,-0.126953125,-0.98663330078125,0.13934326171875
1759502380041,689980926,28030,10,-0.118408203125,-0.97564697265625,0.15472412109375
1759502380041,689980926,28030,11,-0.11083984375,-0.98516845703125,0.15985107421875
1759502380041,689980926,28030,12,-0.087890625,-0.98272705078125,0.15350341796875
1759502380041,689980926,28030,13,-0.084228515625,-0.98077392578125,0.15081787109375
1759502380041,689980926,28030,14,-0.07958984375,-0.98614501953125,0.15692138671875
1759502380041,689980926,28030,15,-0.083740234375,-0.96905517578125,0.16400146484375
1759502380041,689980926,28030,16,-0.086669921875,-0.98492431640625,0.16033935546875
1759502380041,689980926,28030,17,-0.0654296875,-0.98980712890625,0.16644287109375
1759502380041,689980926,28030,18,-0.063232421875,-0.98028564453125,0.15179443359375
1759502380041,689980926,28030,19,-0.062255859375,-0.98834228515625,0.15789794921875
1759502380041,689980926,28030,20,-0.0869140625,-0.97711181640625,0.16448974609375
1759502380041,689980926,28030,21,-0.08154296875,-0.98907470703125,0.15863037109375
1759502380041,689980926,28030,22,-0.07763671875,-0.98345947265625,0.16033935546875
1759502380041,689980926,28030,23,-0.0576171875,-0.98101806640625,0.16790771484375
1759502380041,689980926,28030,24,-0.083740234375,-0.99273681640625,0.17498779296875
1759502380041,689980926,28030,25,-0.057861328125,-0.98907470703125,0.15960693359375
1759502380041,689980926,28030,26,-0.08642578125,-0.96759033203125,0.18328857421875
1759502380041,689980926,28030,27,-0.0869140625,-0.98077392578125,0.16644287109375
1759502380041,689980926,28030,28,-0.070556640625,-0.97857666015625,0.16937255859375
1759502380041,689980926,28030,29,-0.0595703125,-0.96807861328125,0.15203857421875
1759502380041,689980926,28030,30,-0.06884765625,-0.99298095703125,0.15643310546875
1759502380041,689980926,28030,31,-0.08056640625,-0.99346923828125,0.15399169921875
1759502382381,689983470,28031,0,-0.09375,-0.97760009765625,0.15203857421875
1759502382381,689983470,28031,1,-0.0859375,-0.98736572265625,0.15740966796875
1759502382381,689983470,28031,2,-0.06591796875,-0.98492431640625,0.13592529296875
1759502382381,689983470,28031,3,-0.0703125,-0.99761962890625,0.12420654296875
1759502382381,689983470,28031,4,-0.094970703125,-0.98834228515625,0.13226318359375
1759502382381,689983470,28031,5,-0.112548828125,-0.98858642578125,0.13250732421875
1759502382381,689983470,28031,6,-0.110595703125,-0.99053955078125,0.12860107421875
1759502382381,689983470,28031,7,-0.08203125,-0.98394775390625,0.12298583984375
1759502382381,689983470,28031,8,-0.0791015625,-0.99664306640625,0.12274169921875
1759502382381,689983470,28031,9,-0.0888671875,-0.98931884765625,0.11981201171875
1759502382381,689983470,28031,10,-0.099365234375,-0.97906494140625,0.13201904296875
1759502382381,689983470,28031,11,-0.10595703125,-0.99346923828125,0.14129638671875
1759502382381,689983470,28031,12,-0.09228515625,-0.99176025390625,0.12713623046875
1759502382381,689983470,28031,13,-0.075927734375,-0.98809814453125,0.11737060546875
1759502382381,689983470,28031,14,-0.070068359375,-0.99444580078125,0.12127685546875
1759502382381,689983470,28031,15,-0.082275390625,-0.98736572265625,0.13275146484375
1759502382381,689983470,28031,16,-0.08935546875,-0.98980712890625,0.13616943359375
1759502382381,689983470,28031,17,-0.07861328125,-0.98638916015625,0.11859130859375
1759502382381,689983470,28031,18,-0.064453125,-0.98370361328125,0.13446044921875
1759502382381,689983470,28031,19,-0.06103515625,-0.99078369140625,0.14276123046875
1759502382381,689983470,28031,20,-0.0830078125,-0.98785400390625,0.14813232421875
1759502382381,689983470,28031,21,-0.082275390625,-0.98223876953125,0.15325927734375
1759502382381,689983470,28031,22,-0.0625,-0.99517822265625,0.14959716796875
1759502382381,689983470,28031,23,-0.092529296875,-0.97637939453125,0.14495849609375
1759502382381,689983470,28031,24,-0.071533203125,-0.98419189453125,0.14105224609375
1759502382381,689983470,28031,25,-0.065185546875,-0.99176025390625,0.14569091796875
1759502382381,689983470,28031,26,-0.07568359375,-0.98321533203125,0.13885498046875
1759502382381,689983470,28031,27,-0.088623046875,-0.98468017578125,0.14935302734375
1759502382381,689983470,28031,28,-0.10009765625,-0.99005126953125,0.14251708984375
1759502382381,689983470,28031,29,-0.093017578125,-0.98223876953125,0.14495849609375
1759502382381,689983470,28031,30,-0.0751953125,-0.99176025390625,0.13739013671875
1759502382381,689983470,28031,31,-0.074462890625,-0.99249267578125,0.15008544921875
1759502384916,689986013,28032,0,-0.0849609375,-0.98028564453125,0.14520263671875
1759502384916,689986013,28032,1,-0.101806640625,-0.98956298828125,0.15594482421875
1759502384916,689986013,28032,2,-0.096435546875,-0.97906494140625,0.15179443359375
1759502384916,689986013,28032,3,-0.085205078125,-0.98492431640625,0.14764404296875
1759502384916,689986013,28032,4,-0.08203125,-0.98077392578125,0.15057373046875
1759502384916,689986013,28032,5,-0.08984375,-0.98858642578125,0.15716552734375
1759502384916,689986013,28032,6,-0.089599609375,-0.97833251953125,0.15863037109375
1759502384916,689986013,28032,7,-0.104248046875,-0.98565673828125,0.15667724609375
1759502384916,689986013,28032,8,-0.0791015625,-0.98931884765625,0.14984130859375
1759502384916,689986013,28032,9,-0.080810546875,-0.98394775390625,0.15545654296875
1759502384916,689986013,28032,10,-0.093994140625,-0.97784423828125,0.16497802734375
1759502384916,689986013,28032,11,-0.10205078125,-0.98345947265625,0.16253662109375
1759502384916,689986013,28032,12,-0.0927734375,-0.98150634765625,0.15594482421875
1759502384916,689986013,28032,13,-0.078369140625,-0.98663330078125,0.15374755859375
1759502384916,689986013,28032,14,-0.083984375,-0.97833251953125,0.15911865234375
1759502384916,689986013,28032,15,-0.10888671875,-0.98956298828125,0.15985107421875
1759502384916,689986013,28032,16,-0.09716796875,-0.97833251953125,0.16156005859375
1759502384916,689986013,28032,17,-0.079345703125,-0.97760009765625,0.15740966796875
1759502384916,689986013,28032,18,-0.078125,-0.98541259765625,0.15814208984375
1759502384916,689986013,28032,19,-0.10302734375,-0.97808837890625,0.16302490234375
1759502384916,689986013,28032,20,-0.11767578125,-0.98736572265625,0.15911865234375
1759502384916,689986013,28032,21,-0.0732421875,-0.98638916015625,0.15423583984375
1759502384916,689986013,28032,22,-0.077880859375,-0.98419189453125,0.14495849609375
1759502384916,689986013,28032,23,-0.08349609375,-0.98687744140625,0.15374755859375
1759502384916,689986013,28032,24,-0.090087890625,-0.98345947265625,0.15618896484375
1759502384916,689986013,28032,25,-0.08935546875,-0.98272705078125,0.16424560546875
1759502384916,689986013,28032,26,-0.089111328125,-0.98345947265625,0.16278076171875
1759502384916,689986013,28032,27,-0.0947265625,-0.98223876953125,0.16204833984375
1759502384916,689986013,28032,28,-0.085693359375,-0.98590087890625,0.15155029296875
1759502384916,689986013,28032,29,-0.082763671875,-0.97930908203125,0.15863037109375
1759502384916,689986013,28032,30,-0.09765625,-0.98077392578125,0.16400146484375
1759502384916,689986013,28032,31,-0.101318359375,-0.98760986328125,0.16400146484375
1759502387840,689988556,28033,0,-0.09521484375,-0.97857666015625,0.15936279296875
1759502387840,689988556,28033,1,-0.09619140625,-0.98516845703125,0.18011474609375
1759502387840,689988556,28033,2,-0.11279296875,-0.99127197265625,0.16522216796875
1759502387840,689988556,28033,3,-0.078125,-0.97662353515625,0.14569091796875
1759502387840,689988556,28033,4,-0.084716796875,-1.00030517578125,0.11981201171875
1759502387840,689988556,28033,5,-0.071044921875,-0.97393798828125,0.12884521484375
1759502387840,689988556,28033,6,-0.0703125,-0.97540283203125,0.10955810546875
1759502387840,689988556,28033,7,-0.079833984375,-0.99176025390625,0.11322021484375
1759502387840,689988556,28033,8,-0.072998046875,-1.00762939453125,0.11370849609375
1759502387840,689988556,28033,9,-0.093994140625,-0.98443603515625,0.12347412109375
1759502387840,689988556,28033,10,-0.081298828125,-0.99420166015625,0.11981201171875
1759502387840,689988556,28033,11,-0.095947265625,-0.98638916015625,0.12152099609375
1759502387840,689988556,28033,12,-0.08544921875,-0.99468994140625,0.12152099609375
1759502387840,689988556,28033,13,-0.0888671875,-0.98785400390625,0.12176513671875
1759502387840,689988556,28033,14,-0.097900390625,-0.98712158203125,0.13275146484375
1759502387840,689988556,28033,15,-0.107421875,-0.99078369140625,0.13934326171875
1759502387840,689988556,28033,16,-0.09765625,-0.98663330078125,0.13665771484375
1759502387840,689988556,28033,17,-0.092041015625,-0.98760986328125,0.13983154296875
1759502387840,689988556,28033,18,-0.09521484375,-0.98883056640625,0.14007568359375
1759502387840,689988556,28033,19,-0.088623046875,-0.98663330078125,0.13690185546875
1759502387840,689988556,28033,20,-0.08544921875,-0.98785400390625,0.13519287109375
1759502387840,689988556,28033,21,-0.090576171875,-0.98638916015625,0.13739013671875
1759502387840,689988556,28033,22,-0.094482421875,-0.98809814453125,0.14202880859375
1759502387840,689988556,28033,23,-0.105712890625,-0.98907470703125,0.14617919921875
1759502387840,689988556,28033,24,-0.093017578125,-0.98931884765625,0.13299560546875
1759502387840,689988556,28033,25,-0.089111328125,-0.98468017578125,0.14154052734375
1759502387840,689988556,28033,26,-0.1083984375,-0.98590087890625,0.14178466796875
1759502387840,689988556,28033,27,-0.09326171875,-0.99346923828125,0.13568115234375
