receivedPhoneTimestamp,respeckTimestamp,packetSeqNum,sampleSeqNum,accelX,accelY,accelZ
1759617649849,741298561,9068,10,-0.09716796875,-1.02081298828125,-0.12725830078125
1759617649849,741298561,9068,11,-0.114013671875,-1.03009033203125,-0.12115478515625
1759617649849,741298561,9068,12,-0.123291015625,-1.02227783203125,-0.12921142578125
1759617649849,741298561,9068,13,-0.123046875,-1.01568603515625,-0.13580322265625
1759617649849,741298561,9068,14,-0.12060546875,-1.02667236328125,-0.14166259765625
1759617649849,741298561,9068,15,-0.1064453125,-1.01861572265625,-0.12603759765625
1759617649849,741298561,9068,16,-0.116943359375,-1.02203369140625,-0.11627197265625
1759617649849,741298561,9068,17,-0.10302734375,-1.02154541015625,-0.13409423828125
1759617649849,741298561,9068,18,-0.091064453125,-1.02325439453125,-0.11993408203125
1759617649849,741298561,9068,19,-0.12744140625,-1.01031494140625,-0.14630126953125
1759617649849,741298561,9068,20,-0.126708984375,-1.02667236328125,-0.08331298828125
1759617649849,741298561,9068,21,-0.105224609375,-1.02838134765625,-0.09893798828125
1759617649849,741298561,9068,22,-0.13525390625,-1.01275634765625,-0.10235595703125
1759617649849,741298561,9068,23,-0.1474609375,-1.02130126953125,-0.08013916015625
1759617649849,741298561,9068,24,-0.1552734375,-1.02545166015625,-0.06109619140625
1759617649849,741298561,9068,25,-0.14697265625,-1.01934814453125,-0.06524658203125
1759617649849,741298561,9068,26,-0.155517578125,-1.01104736328125,-0.04742431640625
1759617649849,741298561,9068,27,-0.1552734375,-1.01910400390625,-0.04620361328125
1759617649849,741298561,9068,28,-0.160400390625,-1.03009033203125,-0.02374267578125
1759617649849,741298561,9068,29,-0.168212890625,-1.01959228515625,-0.01202392578125
1759617649849,741298561,9068,30,-0.1591796875,-1.01031494140625,-0.01910400390625
1759617649849,741298561,9068,31,-0.156005859375,-1.03009033203125,-0.01470947265625
1759617652371,741301110,9069,0,-0.171630859375,-1.01837158203125,0.01947021484375
1759617652371,741301110,9069,1,-0.169189453125,-1.01324462890625,-0.00323486328125
1759617652371,741301110,9069,2,-0.17919921875,-1.01568603515625,0.00067138671875
1759617652371,741301110,9069,3,-0.16748046875,-1.02618408203125,0.00262451171875
1759617652371,741301110,9069,4,-0.166259765625,-1.00933837890625,-0.01861572265625
1759617652371,741301110,9069,5,-0.164794921875,-1.02081298828125,-0.01007080078125
1759617652371,741301110,9069,6,-0.170166015625,-1.02374267578125,-0.01324462890625
1759617652371,741301110,9069,7,-0.161376953125,-1.02032470703125,-0.01593017578125
1759617652371,741301110,9069,8,-0.15478515625,-1.02301025390625,-0.02716064453125
1759617652371,741301110,9069,9,-0.1513671875,-1.02154541015625,-0.03619384765625
1759617652371,741301110,9069,10,-0.14404296875,-1.02276611328125,-0.05133056640625
1759617652371,741301110,9069,11,-0.138671875,-1.01763916015625,-0.05987548828125
1759617652371,741301110,9069,12,-0.157470703125,-1.02349853515625,-0.06866455078125
1759617652371,741301110,9069,13,-0.13232421875,-1.02935791015625,-0.04840087890625
1759617652371,741301110,9069,14,-0.124755859375,-1.01885986328125,-0.05279541015625
1759617652371,741301110,9069,15,-0.123046875,-1.02178955078125,-0.03228759765625
1759617652371,741301110,9069,16,-0.14453125,-1.03350830078125,-0.02032470703125
1759617652371,741301110,9069,17,-0.10302734375,-1.01129150390625,-0.03546142578125
1759617652371,741301110,9069,18,-0.036376953125,-1.04180908203125,-0.02520751953125
1759617652371,741301110,9069,19,-0.09619140625,-1.02081298828125,-0.02349853515625
1759617652371,741301110,9069,20,-0.125,-1.02471923828125,-0.00225830078125
1759617652371,741301110,9069,21,-0.128662109375,-1.03375244140625,0.01336669921875
1759617652371,741301110,9069,22,-0.132568359375,-1.02374267578125,0.03118896484375
1759617652371,741301110,9069,23,-0.128173828125,-1.01519775390625,0.05487060546875
1759617652371,741301110,9069,24,-0.12353515625,-1.01837158203125,0.06683349609375
1759617652371,741301110,9069,25,-0.1083984375,-1.01788330078125,0.06268310546875
1759617652371,741301110,9069,26,-0.09228515625,-1.02716064453125,0.02996826171875
1759617652371,741301110,9069,27,-0.072265625,-1.01983642578125,0.03875732421875
1759617652371,741301110,9069,28,-0.091796875,-1.05548095703125,0.01141357421875
1759617652371,741301110,9069,29,-0.013427734375,-1.00860595703125,-0.03497314453125
1759617652371,741301110,9069,30,-0.06298828125,-1.03131103515625,-0.03594970703125
1759617652371,741301110,9069,31,-0.081298828125,-1.02667236328125,-0.03179931640625
1759617654911,741303659,9070,0,-0.064208984375,-1.02886962890625,-0.03790283203125
1759617654911,741303659,9070,1,-0.06591796875,-1.03594970703125,-0.05279541015625
1759617654911,741303659,9070,2,-0.06005859375,-1.02227783203125,-0.06573486328125
1759617654911,741303659,9070,3,-0.094482421875,-1.02496337890625,-0.05303955078125
1759617654911,741303659,9070,4,-0.102783203125,-1.02740478515625,-0.04376220703125
1759617654911,741303659,9070,5,-0.04150390625,-1.02960205078125,-0.04132080078125
1759617654911,741303659,9070,6,-0.040283203125,-1.01739501953125,-0.06744384765625
1759617654911,741303659,9070,7,-0.059326171875,-1.03863525390625,-0.06085205078125
1759617654911,741303659,9070,8,-0.075927734375,-1.02545166015625,-0.06475830078125
1759617654911,741303659,9070,9,-0.08154296875,-1.03472900390625,-0.06109619140625
1759617654911,741303659,9070,10,-0.08056640625,-1.01812744140625,-0.04644775390625
1759617654911,741303659,9070,11,-0.07470703125,-1.03277587890625,-0.04547119140625
1759617654911,741303659,9070,12,-0.087158203125,-1.02716064453125,-0.03375244140625
1759617654911,741303659,9070,13,-0.077880859375,-1.03399658203125,-0.04034423828125
1759617654911,741303659,9070,14,-0.06005859375,-1.02691650390625,-0.04302978515625
1759617654911,741303659,9070,15,-0.062744140625,-1.03082275390625,-0.03448486328125
1759617654911,741303659,9070,16,-0.070068359375,-1.03302001953125,-0.02838134765625
1759617654911,741303659,9070,17,-0.079345703125,-1.02520751953125,-0.00299072265625
1759617654911,741303659,9070,18,-0.08984375,-1.02935791015625,-0.00054931640625
1759617654911,741303659,9070,19,-0.088134765625,-1.01812744140625,-0.00274658203125
1759617654911,741303659,9070,20,-0.071044921875,-1.02349853515625,0.00311279296875
1759617654911,741303659,9070,21,-0.072021484375,-1.02691650390625,0.00360107421875
1759617654911,741303659,9070,22,-0.0771484375,-1.03277587890625,0.01019287109375
1759617654911,741303659,9070,23,-0.081787109375,-1.02960205078125,0.02484130859375
1759617654911,741303659,9070,24,-0.0869140625,-1.02911376953125,0.02923583984375
1759617654911,741303659,9070,25,-0.0830078125,-1.01959228515625,0.02459716796875
1759617654911,741303659,9070,26,-0.07763671875,-1.03106689453125,0.02703857421875
1759617654911,741303659,9070,27,-0.0732421875,-1.02618408203125,0.02484130859375
1759617654911,741303659,9070,28,-0.090576171875,-1.02008056640625,0.03680419921875
1759617654911,741303659,9070,29,-0.11328125,-1.02471923828125,0.01873779296875
1759617654911,741303659,9070,30,-0.056640625,-1.01910400390625,0.02947998046875
1759617654911,741303659,9070,31,-0.0791015625,-1.03350830078125,0.01995849609375
1759617657445,741306208,9071,0,-0.07861328125,-1.02227783203125,0.02117919921875
1759617657445,741306208,9071,1,-0.0771484375,-1.02642822265625,0.02874755859375
1759617657445,741306208,9071,2,-0.087890625,-1.02130126953125,0.03021240234375
1759617657445,741306208,9071,3,-0.073486328125,-1.02691650390625,0.01776123046875
1759617657445,741306208,9071,4,-0.0654296875,-1.02764892578125,0.01043701171875
1759617657445,741306208,9071,5,-0.07177734375,-1.02935791015625,0.00238037109375
1759617657445,741306208,9071,6,-0.078125,-1.02008056640625,0.03973388671875
1759617657445,741306208,9071,7,-0.104736328125,-1.02642822265625,0.04681396484375
1759617657445,741306208,9071,8,-0.113525390625,-1.03472900390625,0.05584716796875
1759617657445,741306208,9071,9,-0.11328125,-1.01397705078125,0.03314208984375
1759617657445,741306208,9071,10,-0.07666015625,-1.02593994140625,0.02313232421875
1759617657445,741306208,9071,11,-0.083251953125,-1.02398681640625,0.01849365234375
1759617657445,741306208,9071,12,-0.09228515625,-1.03350830078125,0.00750732421875
1759617657445,741306208,9071,13,-0.114990234375,-1.02276611328125,-0.00518798828125
1759617657445,741306208,9071,14,-0.114013671875,-1.02471923828125,-0.01812744140625
1759617657445,741306208,9071,15,-0.110107421875,-1.02618408203125,-0.03350830078125
1759617657445,741306208,9071,16,-0.099365234375,-1.02716064453125,-0.01348876953125
1759617657445,741306208,9071,17,-0.142578125,-1.02642822265625,-0.03448486328125
1759617657445,741306208,9071,18,-0.100341796875,-1.02545166015625,-0.03155517578125
1759617657445,741306208,9071,19,-0.101318359375,-1.02789306640625,-0.05401611328125
1759617657445,741306208,9071,20,-0.109619140625,-1.02447509765625,-0.06036376953125
1759617657445,741306208,9071,21,-0.131103515625,-1.01763916015625,-0.06109619140625
1759617657445,741306208,9071,22,-0.119873046875,-1.02569580078125,-0.06231689453125
1759617657445,741306208,9071,23,-0.1005859375,-1.03204345703125,-0.05303955078125
1759617657445,741306208,9071,24,-0.1044921875,-1.03033447265625,-0.04376220703125
1759617657445,741306208,9071,25,-0.105712890625,-1.01983642578125,-0.04376220703125
1759617657445,741306208,9071,26,-0.08984375,-1.02203369140625,-0.04107666015625
1759617657445,741306208,9071,27,-0.0830078125,-1.03326416015625,-0.03887939453125
1759617657445,741306208,9071,28,-0.10302734375,-1.02789306640625,-0.03570556640625
1759617657445,741306208,9071,29,-0.074462890625,-1.03326416015625,-0.05108642578125
1759617657445,741306208,9071,30,-0.09619140625,-1.02178955078125,-0.06378173828125
1759617657445,741306208,9071,31,-0.09912109375,-1.03155517578125,-0.06549072265625
1759617659982,741308757,9072,0,-0.0888671875,-1.02325439453125,-0.07208251953125
1759617659982,741308757,9072,1,-0.10400390625,-1.03326416015625,-0.07232666015625
1759617659982,741308757,9072,2,-0.091796875,-1.02496337890625,-0.06768798828125
1759617659982,741308757,9072,3,-0.0849609375,-1.03106689453125,-0.07110595703125
1759617659982,741308757,9072,4,-0.08349609375,-1.02789306640625,-0.06915283203125
1759617659982,741308757,9072,5,-0.073486328125,-1.02642822265625,-0.06988525390625
1759617659982,741308757,9072,6,-0.086181640625,-1.02862548828125,-0.05841064453125
1759617659982,741308757,9072,7,-0.08349609375,-1.02764892578125,-0.05230712890625
1759617659982,741308757,9072,8,-0.09423828125,-1.02716064453125,-0.05230712890625
1759617659982,741308757,9072,9,-0.0947265625,-1.02349853515625,-0.05255126953125
1759617659982,741308757,9072,10,-0.0966796875,-1.03106689453125,-0.05670166015625
1759617659982,741308757,9072,11,-0.08740234375,-1.02545166015625,-0.07452392578125
1759617659982,741308757,9072,12,-0.095947265625,-1.02740478515625,-0.07989501953125
1759617659982,741308757,9072,13,-0.08837890625,-1.02789306640625,-0.08526611328125
1759617659982,741308757,9072,14,-0.086669921875,-1.02301025390625,-0.09552001953125
1759617659982,741308757,9072,15,-0.0908203125,-1.02593994140625,-0.10284423828125
1759617659982,741308757,9072,16,-0.0849609375,-1.03106689453125,-0.11187744140625
1759617659982,741308757,9072,17,-0.075439453125,-1.02276611328125,-0.11212158203125
1759617659982,741308757,9072,18,-0.081298828125,-1.02984619140625,-0.10382080078125
1759617659982,741308757,9072,19,-0.082763671875,-1.01788330078125,-0.10284423828125
1759617659982,741308757,9072,20,-0.0673828125,-1.03106689453125,-0.11163330078125
1759617659982,741308757,9072,21,-0.069091796875,-1.03057861328125,-0.08892822265625
1759617659982,741308757,9072,22,-0.0693359375,-1.02423095703125,-0.09210205078125
1759617659982,741308757,9072,23,-0.081298828125,-1.03131103515625,-0.07745361328125
1759617659982,741308757,9072,24,-0.09375,-1.02398681640625,-0.06817626953125
1759617659982,741308757,9072,25,-0.051025390625,-1.04254150390625,-0.07940673828125
1759617659982,741308757,9072,26,-0.044921875,-1.02056884765625,-0.09014892578125
1759617659982,741308757,9072,27,-0.070556640625,-1.03302001953125,-0.07501220703125
1759617659982,741308757,9072,28,-0.0849609375,-1.04595947265625,-0.04937744140625
1759617659982,741308757,9072,29,-0.091064453125,-1.02447509765625,-0.01641845703125
1759617659982,741308757,9072,30,-0.07275390625,-1.02423095703125,-0.02667236328125
1759617659982,741308757,9072,31,-0.091552734375,-1.02105712890625,-0.02911376953125
1759617662514,741311300,9073,0,-0.091552734375,-1.02130126953125,-0.02764892578125
1759617662514,741311300,9073,1,-0.095703125,-1.01885986328125,-0.01202392578125
1759617662514,741311300,9073,2,-0.09375,-1.02813720703125,-0.00665283203125
1759617662514,741311300,9073,3,-0.087646484375,-1.02740478515625,-0.01470947265625
1759617662514,741311300,9073,4,-0.057373046875,-1.02496337890625,-0.03839111328125
1759617662514,741311300,9073,5,-0.055908203125,-1.02667236328125,-0.07330322265625
1759617662514,741311300,9073,6,-0.019287109375,-1.03204345703125,-0.11822509765625
1759617662514,741311300,9073,7,-0.052734375,-1.02276611328125,-0.10137939453125
1759617662514,741311300,9073,8,-0.073974609375,-1.02471923828125,-0.05035400390625
1759617662514,741311300,9073,9,-0.11669921875,-1.03424072265625,-0.03717041015625
1759617662514,741311300,9073,10,-0.071533203125,-1.03033447265625,-0.03472900390625
1759617662514,741311300,9073,11,-0.068359375,-1.02008056640625,-0.05084228515625
1759617662514,741311300,9073,12,-0.079833984375,-1.02764892578125,-0.04693603515625
1759617662514,741311300,9073,13,-0.103515625,-1.02423095703125,-0.02325439453125
1759617662514,741311300,9073,14,-0.122802734375,-1.02886962890625,-0.01275634765625
1759617662514,741311300,9073,15,-0.12451171875,-1.01495361328125,0.00164794921875
1759617662514,741311300,9073,16,-0.132568359375,-1.03350830078125,0.01361083984375
1759617662514,741311300,9073,17,-0.125732421875,-1.02130126953125,0.02239990234375
1759617662514,741311300,9073,18,-0.14208984375,-1.02862548828125,0.03314208984375
1759617662514,741311300,9073,19,-0.158447265625,-1.01544189453125,0.03143310546875
1759617662514,741311300,9073,20,-0.14990234375,-1.02032470703125,0.02459716796875
1759617662514,741311300,9073,21,-0.139892578125,-1.01837158203125,0.02801513671875
1759617662514,741311300,9073,22,-0.1552734375,-1.02081298828125,0.03167724609375
1759617662514,741311300,9073,23,-0.154052734375,-1.01763916015625,0.03143310546875
1759617662514,741311300,9073,24,-0.15185546875,-1.01739501953125,0.04681396484375
1759617662514,741311300,9073,25,-0.15673828125,-1.02447509765625,0.05804443359375
1759617662514,741311300,9073,26,-0.120849609375,-1.01934814453125,0.04193115234375
1759617662514,741311300,9073,27,-0.105712890625,-1.02886962890625,0.03558349609375
1759617662514,741311300,9073,28,-0.13623046875,-1.01959228515625,0.01654052734375
1759617662514,741311300,9073,29,-0.134521484375,-1.01910400390625,0.05242919921875
1759617662514,741311300,9073,30,-0.1572265625,-1.01275634765625,0.07904052734375
1759617662514,741311300,9073,31,-0.16845703125,-1.02008056640625,0.07952880859375
1759617665050,741313849,9074,0,-0.164306640625,-1.00323486328125,0.07318115234375
1759617665050,741313849,9074,1,-0.120361328125,-1.01837158203125,0.05657958984375
1759617665050,741313849,9074,2,-0.1376953125,-1.00933837890625,0.07073974609375
1759617665050,741313849,9074,3,-0.214111328125,-1.00616455078125,0.07489013671875
1759617665050,741313849,9074,4,-0.188232421875,-1.00396728515625,0.07537841796875
1759617665050,741313849,9074,5,-0.212890625,-1.00738525390625,0.08782958984375
1759617665050,741313849,9074,6,-0.17041015625,-1.02667236328125,0.04534912109375
1759617665050,741313849,9074,7,-0.124755859375,-1.01934814453125,-0.00274658203125
1759617665050,741313849,9074,8,-0.102294921875,-1.02740478515625,-0.04986572265625
1759617665050,741313849,9074,9,-0.15673828125,-1.02496337890625,-0.02178955078125
1759617665050,741313849,9074,10,-0.17236328125,-1.00372314453125,0.03485107421875
1759617665050,741313849,9074,11,-0.169677734375,-1.02203369140625,0.02801513671875
1759617665050,741313849,9074,12,-0.109375,-1.03350830078125,0.00042724609375
1759617665050,741313849,9074,13,-0.083251953125,-1.02227783203125,-0.01275634765625
1759617665050,741313849,9074,14,-0.087646484375,-1.03253173828125,-0.00103759765625
1759617665050,741313849,9074,15,-0.10791015625,-1.02398681640625,0.01068115234375
1759617665050,741313849,9074,16,-0.1220703125,-1.02716064453125,0.00775146484375
1759617665050,741313849,9074,17,-0.111572265625,-1.02252197265625,0.00775146484375
1759617665050,741313849,9074,18,-0.114501953125,-1.02178955078125,0.02020263671875
1759617665050,741313849,9074,19,-0.0751953125,-1.02130126953125,0.01654052734375
1759617665050,741313849,9074,20,-0.10595703125,-1.02227783203125,0.02557373046875
1759617665050,741313849,9074,21,-0.10595703125,-1.02618408203125,0.03778076171875
1759617665050,741313849,9074,22,-0.11669921875,-1.02178955078125,0.03875732421875
1759617665050,741313849,9074,23,-0.10791015625,-1.01373291015625,0.04364013671875
1759617665050,741313849,9074,24,-0.102294921875,-1.02423095703125,0.04876708984375
1759617665050,741313849,9074,25,-0.12109375,-1.02008056640625,0.05780029296875
1759617665050,741313849,9074,26,-0.154296875,-1.02813720703125,0.04290771484375
1759617665050,741313849,9074,27,-0.104248046875,-1.01641845703125,0.04144287109375
1759617665050,741313849,9074,28,-0.100341796875,-1.01788330078125,0.04241943359375
1759617665050,741313849,9074,29,-0.1064453125,-1.03155517578125,0.04193115234375
1759617665050,741313849,9074,30,-0.115966796875,-1.02081298828125,0.04095458984375
1759617665050,741313849,9074,31,-0.110595703125,-1.02325439453125,0.03778076171875
1759617667587,741316398,9075,0,-0.1103515625,-1.02423095703125,0.02947998046875
1759617667587,741316398,9075,1,-0.118896484375,-1.02227783203125,0.02777099609375
1759617667587,741316398,9075,2,-0.107666015625,-1.02130126953125,0.02581787109375
1759617667587,741316398,9075,3,-0.112548828125,-1.01446533203125,0.02020263671875
1759617667587,741316398,9075,4,-0.12353515625,-1.03350830078125,0.02337646484375
1759617667587,741316398,9075,5,-0.112060546875,-1.01593017578125,0.02166748046875
1759617667587,741316398,9075,6,-0.111572265625,-1.02423095703125,0.01580810546875
1759617667587,741316398,9075,7,-0.110107421875,-1.02716064453125,0.01727294921875
1759617667587,741316398,9075,8,-0.10693359375,-1.02496337890625,0.00433349609375
1759617667587,741316398,9075,9,-0.10498046875,-1.02374267578125,0.00238037109375
1759617667587,741316398,9075,10,-0.103759765625,-1.02838134765625,0.00823974609375
1759617667587,741316398,9075,11,-0.0966796875,-1.03057861328125,0.00677490234375
1759617667587,741316398,9075,12,-0.1015625,-1.03204345703125,-0.00030517578125
1759617667587,741316398,9075,13,-0.084228515625,-1.02642822265625,-0.00079345703125
1759617667587,741316398,9075,14,-0.08984375,-1.02716064453125,-0.00128173828125
1759617667587,741316398,9075,15,-0.090087890625,-1.03033447265625,-0.00250244140625
1759617667587,741316398,9075,16,-0.089111328125,-1.02301025390625,-0.00030517578125
1759617667587,741316398,9075,17,-0.09033203125,-1.02569580078125,-0.00201416015625
1759617667587,741316398,9075,18,-0.090087890625,-1.02545166015625,0.00408935546875
1759617667587,741316398,9075,19,-0.095947265625,-1.03228759765625,0.01043701171875
1759617667587,741316398,9075,20,-0.107421875,-1.01788330078125,0.01068115234375
1759617667587,741316398,9075,21,-0.094482421875,-1.01885986328125,0.01287841796875
1759617667587,741316398,9075,22,-0.0908203125,-1.03375244140625,0.02215576171875
1759617667587,741316398,9075,23,-0.10595703125,-1.02935791015625,0.01849365234375
1759617667587,741316398,9075,24,-0.095458984375,-1.02520751953125,0.01776123046875
1759617667587,741316398,9075,25,-0.098876953125,-1.02984619140625,0.02093505859375
1759617667587,741316398,9075,26,-0.11181640625,-1.02081298828125,0.01434326171875
1759617667587,741316398,9075,27,-0.10009765625,-1.02252197265625,0.00653076171875
1759617667587,741316398,9075,28,-0.123046875,-1.02886962890625,-0.01300048828125
1759617667587,741316398,9075,29,-0.11376953125,-1.02154541015625,-0.01885986328125
1759617667587,741316398,9075,30,-0.103515625,-1.03277587890625,-0.02081298828125
1759617667587,741316398,9075,31,-0.096923828125,-1.02471923828125,-0.01568603515625
1759617670125,741318947,9076,0,-0.09130859375,-1.02618408203125,-0.03033447265625
1759617670125,741318947,9076,1,-0.09814453125,-1.02691650390625,-0.02496337890625
1759617670125,741318947,9076,2,-0.08642578125,-1.02618408203125,-0.02374267578125
1759617670125,741318947,9076,3,-0.110107421875,-1.02423095703125,-0.02691650390625
1759617670125,741318947,9076,4,-0.094970703125,-1.03131103515625,-0.02960205078125
1759617670125,741318947,9076,5,-0.09521484375,-1.02203369140625,-0.02520751953125
1759617670125,741318947,9076,6,-0.09521484375,-1.03277587890625,-0.02301025390625
1759617670125,741318947,9076,7,-0.104248046875,-1.02203369140625,-0.02130126953125
1759617670125,741318947,9076,8,-0.1064453125,-1.01983642578125,-0.01544189453125
1759617670125,741318947,9076,9,-0.129150390625,-1.02423095703125,-0.00665283203125
1759617670125,741318947,9076,10,-0.13330078125,-1.02984619140625,-0.01812744140625
1759617670125,741318947,9076,11,-0.11181640625,-1.02496337890625,-0.00958251953125
1759617670125,741318947,9076,12,-0.0947265625,-1.02935791015625,-0.01031494140625
1759617670125,741318947,9076,13,-0.118896484375,-1.03546142578125,-0.02130126953125
1759617670125,741318947,9076,14,-0.10107421875,-1.02789306640625,-0.02886962890625
1759617670125,741318947,9076,15,-0.093017578125,-1.02496337890625,-0.02593994140625
1759617670125,741318947,9076,16,-0.093505859375,-1.02911376953125,-0.02911376953125
1759617670125,741318947,9076,17,-0.079345703125,-1.01983642578125,-0.02593994140625
1759617670125,741318947,9076,18,-0.134765625,-1.02813720703125,-0.04132080078125
1759617670125,741318947,9076,19,-0.082763671875,-1.02301025390625,-0.01251220703125
1759617670125,741318947,9076,20,-0.089111328125,-1.02423095703125,-0.02886962890625
1759617670125,741318947,9076,21,-0.121826171875,-1.02911376953125,-0.02056884765625
1759617670125,741318947,9076,22,-0.0927734375,-1.03155517578125,-0.00372314453125
1759617670125,741318947,9076,23,-0.11083984375,-1.03082275390625,-0.00347900390625
1759617670125,741318947,9076,24,-0.10205078125,-1.02545166015625,0.00750732421875
1759617670125,741318947,9076,25,-0.103515625,-1.01788330078125,0.01434326171875
1759617670125,741318947,9076,26,-0.106689453125,-1.02789306640625,0.01751708984375
1759617670125,741318947,9076,27,-0.0927734375,-1.02032470703125,0.02777099609375
1759617670125,741318947,9076,28,-0.1083984375,-1.02471923828125,0.02508544921875
1759617670125,741318947,9076,29,-0.0966796875,-1.02691650390625,0.02752685546875
1759617670125,741318947,9076,30,-0.116455078125,-1.02642822265625,0.01873779296875
1759617670125,741318947,9076,31,-0.09716796875,-1.02105712890625,0.01947021484375
1759617672656,741321496,9077,0,-0.09912109375,-1.02716064453125,0.00946044921875
1759617672656,741321496,9077,1,-0.10791015625,-1.02886962890625,0.01116943359375
1759617672656,741321496,9077,2,-0.108154296875,-1.02325439453125,0.01531982421875
1759617672656,741321496,9077,3,-0.092041015625,-1.02545166015625,0.01361083984375
1759617672656,741321496,9077,4,-0.10400390625,-1.02667236328125,0.00189208984375
1759617672656,741321496,9077,5,-0.09619140625,-1.02569580078125,-0.00323486328125
1759617672656,741321496,9077,6,-0.0966796875,-1.02301025390625,-0.01690673828125
1759617672656,741321496,9077,7,-0.101318359375,-1.02593994140625,-0.02325439453125
1759617672656,741321496,9077,8,-0.10498046875,-1.02642822265625,-0.01202392578125
1759617672656,741321496,9077,9,-0.105712890625,-1.02911376953125,-0.02349853515625
1759617672656,741321496,9077,10,-0.0966796875,-1.02105712890625,-0.02447509765625
1759617672656,741321496,9077,11,-0.097900390625,-1.02349853515625,-0.01568603515625
1759617672656,741321496,9077,12,-0.1123046875,-1.03302001953125,-0.01422119140625
1759617672656,741321496,9077,13,-0.10302734375,-1.02496337890625,-0.01031494140625
1759617672656,741321496,9077,14,-0.105224609375,-1.02423095703125,-0.00640869140625
1759617672656,741321496,9077,15,-0.12353515625,-1.02252197265625,-6.103515625e-05
1759617672656,741321496,9077,16,-0.119384765625,-1.02252197265625,0.00360107421875
1759617672656,741321496,9077,17,-0.113525390625,-1.02349853515625,-0.00347900390625
1759617672656,741321496,9077,18,-0.135498046875,-1.02252197265625,-0.02130126953125
1759617672656,741321496,9077,19,-0.125732421875,-1.02374267578125,-0.02008056640625
1759617672656,741321496,9077,20,-0.1376953125,-1.02178955078125,-0.00616455078125
1759617672656,741321496,9077,21,-0.131103515625,-1.01812744140625,-0.01129150390625
1759617672656,741321496,9077,22,-0.12451171875,-1.02545166015625,-0.01031494140625
1759617672656,741321496,9077,23,-0.130615234375,-1.02960205078125,-0.01910400390625
1759617672656,741321496,9077,24,-0.1064453125,-1.02423095703125,-0.01910400390625
1759617672656,741321496,9077,25,-0.14013671875,-1.02569580078125,-0.00103759765625
1759617672656,741321496,9077,26,-0.14013671875,-1.01885986328125,-0.00079345703125
1759617672656,741321496,9077,27,-0.12109375,-1.02423095703125,0.00726318359375
1759617672656,741321496,9077,28,-0.120361328125,-1.02471923828125,0.00189208984375
1759617672656,741321496,9077,29,-0.12841796875,-1.01837158203125,0.02069091796875
1759617672656,741321496,9077,30,-0.135498046875,-1.02862548828125,0.03240966796875
1759617672656,741321496,9077,31,-0.11767578125,-1.01666259765625,0.02606201171875
1759617675191,741324045,9078,0,-0.1240234375,-1.02276611328125,0.02435302734375
1759617675191,741324045,9078,1,-0.112060546875,-1.02642822265625,0.01751708984375
1759617675191,741324045,9078,2,-0.114990234375,-1.02545166015625,0.02191162109375
1759617675191,741324045,9078,3,-0.107421875,-1.02081298828125,0.02191162109375
1759617675191,741324045,9078,4,-0.092529296875,-1.03277587890625,0.00164794921875
1759617675191,741324045,9078,5,-0.115478515625,-1.02398681640625,0.01214599609375
1759617675191,741324045,9078,6,-0.10302734375,-1.02691650390625,0.00994873046875
1759617675191,741324045,9078,7,-0.1015625,-1.02154541015625,0.00994873046875
1759617675191,741324045,9078,8,-0.09765625,-1.02496337890625,0.00726318359375
1759617675191,741324045,9078,9,-0.09912109375,-1.02935791015625,0.01507568359375
1759617675191,741324045,9078,10,-0.104248046875,-1.02252197265625,0.01800537109375
1759617675191,741324045,9078,11,-0.106201171875,-1.02325439453125,0.01556396484375
1759617675191,741324045,9078,12,-0.1064453125,-1.02081298828125,0.02435302734375
1759617675191,741324045,9078,13,-0.104736328125,-1.02618408203125,0.02630615234375
1759617675191,741324045,9078,14,-0.106201171875,-1.02618408203125,0.03387451171875
1759617675191,741324045,9078,15,-0.113037109375,-1.02716064453125,0.02410888671875
1759617675191,741324045,9078,16,-0.126708984375,-1.01885986328125,0.02386474609375
1759617675191,741324045,9078,17,-0.120361328125,-1.02252197265625,0.01385498046875
1759617675191,741324045,9078,18,-0.123779296875,-1.02569580078125,0.01141357421875
1759617675191,741324045,9078,19,-0.125732421875,-1.01666259765625,-0.00103759765625
1759617675191,741324045,9078,20,-0.13427734375,-1.02496337890625,-0.01275634765625
1759617675191,741324045,9078,21,-0.1279296875,-1.02252197265625,-0.00982666015625
1759617675191,741324045,9078,22,-0.1162109375,-1.02740478515625,-0.02716064453125
1759617675191,741324045,9078,23,-0.131591796875,-1.02691650390625,-0.03594970703125
1759617675191,741324045,9078,24,-0.129150390625,-1.02716064453125,-0.04522705078125
1759617675191,741324045,9078,25,-0.12548828125,-1.02374267578125,-0.04400634765625
1759617675191,741324045,9078,26,-0.131591796875,-1.02691650390625,-0.04791259765625
1759617675191,741324045,9078,27,-0.129150390625,-1.01373291015625,-0.03668212890625
1759617675191,741324045,9078,28,-0.1337890625,-1.02764892578125,-0.02935791015625
1759617675191,741324045,9078,29,-0.108642578125,-1.02130126953125,-0.03009033203125
1759617675191,741324045,9078,30,-0.126220703125,-1.01983642578125,-0.03643798828125
1759617675191,741324045,9078,31,-0.139404296875,-1.03399658203125,-0.02960205078125
1759617677732,741326595,9079,0,-0.1337890625,-1.01959228515625,-0.02740478515625
1759617677732,741326595,9079,1,-0.13671875,-1.02764892578125,-0.02398681640625
1759617677732,741326595,9079,2,-0.052490234375,-1.03204345703125,-0.01275634765625
1759617677732,741326595,9079,3,-0.116455078125,-1.02276611328125,-0.02593994140625
1759617677732,741326595,9079,4,-0.113525390625,-1.02593994140625,0.00042724609375
1759617677732,741326595,9079,5,-0.093505859375,-1.01885986328125,0.00238037109375
1759617677732,741326595,9079,6,-0.138671875,-1.01251220703125,-0.00592041015625
1759617677732,741326595,9079,7,-0.1181640625,-1.02642822265625,0.00482177734375
1759617677732,741326595,9079,8,-0.1396484375,-1.02178955078125,0.03021240234375
1759617677732,741326595,9079,9,-0.10986328125,-1.02813720703125,0.03216552734375
1759617677732,741326595,9079,10,-0.1123046875,-1.02154541015625,0.01361083984375
1759617677732,741326595,9079,11,-0.11083984375,-1.02911376953125,0.01898193359375
1759617677732,741326595,9079,12,-0.0908203125,-1.02496337890625,0.01605224609375
1759617677732,741326595,9079,13,-0.10693359375,-1.02886962890625,0.02117919921875
1759617677732,741326595,9079,14,-0.09423828125,-1.02081298828125,0.01995849609375
1759617677732,741326595,9079,15,-0.111572265625,-1.02349853515625,0.01800537109375
1759617677732,741326595,9079,16,-0.130126953125,-1.02496337890625,0.02996826171875
1759617677732,741326595,9079,17,-0.11767578125,-1.01959228515625,0.04705810546875
1759617677732,741326595,9079,18,-0.122802734375,-1.02447509765625,0.03094482421875
1759617677732,741326595,9079,19,-0.112060546875,-1.02227783203125,0.04364013671875
1759617677732,741326595,9079,20,-0.1044921875,-1.02130126953125,0.03582763671875
1759617677732,741326595,9079,21,-0.122802734375,-1.02716064453125,0.03363037109375
1759617677732,741326595,9079,22,-0.103759765625,-1.02520751953125,0.03509521484375
1759617677732,741326595,9079,23,-0.11181640625,-1.02130126953125,0.03070068359375
1759617677732,741326595,9079,24,-0.102783203125,-1.02496337890625,0.04217529296875
1759617677732,741326595,9079,25,-0.11328125,-1.01788330078125,0.03363037109375
1759617677732,741326595,9079,26,-0.1181640625,-1.02105712890625,0.04217529296875
1759617677732,741326595,9079,27,-0.110107421875,-1.02301025390625,0.03997802734375
1759617677732,741326595,9079,28,-0.108642578125,-1.02105712890625,0.06024169921875
1759617677732,741326595,9079,29,-0.102294921875,-1.01593017578125,0.04437255859375
1759617677732,741326595,9079,30,-0.101806640625,-1.02301025390625,0.05413818359375
1759617677732,741326595,9079,31,-0.12109375,-1.02349853515625,0.05780029296875
1759617680261,741329144,9080,0,-0.1123046875,-1.02301025390625,0.05926513671875
1759617680261,741329144,9080,1,-0.10791015625,-1.02276611328125,0.05682373046875
1759617680261,741329144,9080,2,-0.1005859375,-1.02398681640625,0.04022216796875
1759617680261,741329144,9080,3,-0.1123046875,-1.02667236328125,0.03851318359375
1759617680261,741329144,9080,4,-0.109375,-1.02227783203125,0.03802490234375
1759617680261,741329144,9080,5,-0.08349609375,-1.02081298828125,0.03802490234375
1759617680261,741329144,9080,6,-0.1064453125,-1.01910400390625,0.02410888671875
1759617680261,741329144,9080,7,-0.112548828125,-1.02374267578125,0.02532958984375
1759617680261,741329144,9080,8,-0.119384765625,-1.02911376953125,0.03045654296875
1759617680261,741329144,9080,9,-0.10546875,-1.02325439453125,0.01995849609375
