receivedPhoneTimestamp,respeckTimestamp,packetSeqNum,sampleSeqNum,accelX,accelY,accelZ
1759327752045,515537174,6818,20,-0.612060546875,-0.04547119140625,0.72406005859375
1759327752045,515537174,6818,21,-0.613525390625,-0.05255126953125,0.73187255859375
1759327752045,515537174,6818,22,-0.605224609375,-0.05133056640625,0.73236083984375
1759327752045,515537174,6818,23,-0.598876953125,-0.05426025390625,0.72991943359375
1759327752045,515537174,6818,24,-0.60595703125,-0.05426025390625,0.73382568359375
1759327752045,515537174,6818,25,-0.614013671875,-0.05499267578125,0.73992919921875
1759327752045,515537174,6818,26,-0.607666015625,-0.06719970703125,0.73577880859375
1759327752045,515537174,6818,27,-0.599609375,-0.05938720703125,0.75042724609375
1759327752045,515537174,6818,28,-0.579833984375,-0.07501220703125,0.75335693359375
1759327752045,515537174,6818,29,-0.567626953125,-0.07037353515625,0.74456787109375
1759327752045,515537174,6818,30,-0.584228515625,-0.06695556640625,0.74627685546875
1759327752045,515537174,6818,31,-0.584716796875,-0.06646728515625,0.74432373046875
1759327754777,515539711,6819,0,-0.587646484375,-0.06402587890625,0.73284912109375
1759327754777,515539711,6819,1,-0.580078125,-0.07720947265625,0.74749755859375
1759327754777,515539711,6819,2,-0.59228515625,-0.06793212890625,0.74945068359375
1759327754777,515539711,6819,3,-0.59619140625,-0.06207275390625,0.74822998046875
1759327754777,515539711,6819,4,-0.5869140625,-0.06207275390625,0.73748779296875
1759327754777,515539711,6819,5,-0.59765625,-0.06475830078125,0.74652099609375
1759327754777,515539711,6819,6,-0.59423828125,-0.06524658203125,0.74652099609375
1759327754777,515539711,6819,7,-0.603515625,-0.05548095703125,0.72894287109375
1759327754777,515539711,6819,8,-0.58984375,-0.06842041015625,0.73236083984375
1759327754777,515539711,6819,9,-0.6044921875,-0.06939697265625,0.74749755859375
1759327754777,515539711,6819,10,-0.5966796875,-0.06158447265625,0.74481201171875
1759327754777,515539711,6819,11,-0.586181640625,-0.06231689453125,0.73870849609375
1759327754777,515539711,6819,12,-0.590576171875,-0.06768798828125,0.74798583984375
1759327754777,515539711,6819,13,-0.578369140625,-0.06036376953125,0.74456787109375
1759327754777,515539711,6819,14,-0.593994140625,-0.06524658203125,0.74188232421875
1759327754777,515539711,6819,15,-0.591552734375,-0.06817626953125,0.74432373046875
1759327754777,515539711,6819,16,-0.600341796875,-0.06207275390625,0.74285888671875
1759327754777,515539711,6819,17,-0.583984375,-0.06695556640625,0.74383544921875
1759327754777,515539711,6819,18,-0.591796875,-0.06134033203125,0.74237060546875
1759327754777,515539711,6819,19,-0.588623046875,-0.07403564453125,0.75115966796875
1759327754777,515539711,6819,20,-0.576416015625,-0.06915283203125,0.74798583984375
1759327754777,515539711,6819,21,-0.579345703125,-0.07550048828125,0.74481201171875
1759327754777,515539711,6819,22,-0.589111328125,-0.07183837890625,0.74798583984375
1759327754777,515539711,6819,23,-0.5908203125,-0.06646728515625,0.74212646484375
1759327754777,515539711,6819,24,-0.580810546875,-0.06939697265625,0.74090576171875
1759327754777,515539711,6819,25,-0.5888671875,-0.07159423828125,0.75140380859375
1759327754777,515539711,6819,26,-0.58251953125,-0.07525634765625,0.75262451171875
1759327754777,515539711,6819,27,-0.575927734375,-0.07135009765625,0.74798583984375
1759327754777,515539711,6819,28,-0.578125,-0.07135009765625,0.75262451171875
1759327754777,515539711,6819,29,-0.578857421875,-0.07476806640625,0.75164794921875
1759327754777,515539711,6819,30,-0.57763671875,-0.07696533203125,0.74969482421875
1759327754777,515539711,6819,31,-0.5869140625,-0.07086181640625,0.74749755859375
1759327757117,515542248,6820,0,-0.580810546875,-0.07745361328125,0.74700927734375
1759327757117,515542248,6820,1,-0.581298828125,-0.07403564453125,0.74945068359375
1759327757117,515542248,6820,2,-0.57421875,-0.07745361328125,0.75115966796875
1759327757117,515542248,6820,3,-0.587158203125,-0.07525634765625,0.75604248046875
1759327757117,515542248,6820,4,-0.57666015625,-0.07012939453125,0.74822998046875
1759327757117,515542248,6820,5,-0.574951171875,-0.07427978515625,0.75091552734375
1759327757117,515542248,6820,6,-0.580078125,-0.07794189453125,0.75262451171875
1759327757117,515542248,6820,7,-0.57861328125,-0.07940673828125,0.74993896484375
1759327757117,515542248,6820,8,-0.58154296875,-0.07501220703125,0.75091552734375
1759327757117,515542248,6820,9,-0.580322265625,-0.07647705078125,0.74871826171875
1759327757117,515542248,6820,10,-0.576416015625,-0.07843017578125,0.75067138671875
1759327757117,515542248,6820,11,-0.572021484375,-0.07769775390625,0.75067138671875
1759327757117,515542248,6820,12,-0.58203125,-0.07989501953125,0.74725341796875
1759327757117,515542248,6820,13,-0.58544921875,-0.08184814453125,0.74798583984375
1759327757117,515542248,6820,14,-0.584228515625,-0.07989501953125,0.74652099609375
1759327757117,515542248,6820,15,-0.578369140625,-0.07940673828125,0.75189208984375
1759327757117,515542248,6820,16,-0.579833984375,-0.07916259765625,0.75384521484375
1759327757117,515542248,6820,17,-0.574462890625,-0.07965087890625,0.74896240234375
1759327757117,515542248,6820,18,-0.580322265625,-0.08038330078125,0.74969482421875
1759327757117,515542248,6820,19,-0.58203125,-0.07989501953125,0.74774169921875
1759327757117,515542248,6820,20,-0.577392578125,-0.08258056640625,0.75091552734375
1759327757117,515542248,6820,21,-0.57666015625,-0.08331298828125,0.75408935546875
1759327757117,515542248,6820,22,-0.576416015625,-0.08062744140625,0.75238037109375
1759327757117,515542248,6820,23,-0.5810546875,-0.08599853515625,0.75506591796875
1759327757117,515542248,6820,24,-0.57861328125,-0.08038330078125,0.75091552734375
1759327757117,515542248,6820,25,-0.577880859375,-0.08013916015625,0.75262451171875
1759327757117,515542248,6820,26,-0.574951171875,-0.08551025390625,0.75067138671875
1759327757117,515542248,6820,27,-0.578857421875,-0.08404541015625,0.75067138671875
1759327757117,515542248,6820,28,-0.575439453125,-0.08721923828125,0.75238037109375
1759327757117,515542248,6820,29,-0.57568359375,-0.08355712890625,0.75555419921875
1759327757117,515542248,6820,30,-0.5673828125,-0.08843994140625,0.75457763671875
1759327757117,515542248,6820,31,-0.569580078125,-0.10699462890625,0.77532958984375
1759327759650,515544785,6821,0,-0.549560546875,-0.09771728515625,0.76434326171875
1759327759650,515544785,6821,1,-0.540283203125,-0.09820556640625,0.77093505859375
1759327759650,515544785,6821,2,-0.534423828125,-0.09552001953125,0.76556396484375
1759327759650,515544785,6821,3,-0.549072265625,-0.08966064453125,0.76654052734375
1759327759650,515544785,6821,4,-0.549072265625,-0.09698486328125,0.75775146484375
1759327759650,515544785,6821,5,-0.552490234375,-0.09649658203125,0.75921630859375
1759327759650,515544785,6821,6,-0.5654296875,-0.09429931640625,0.76678466796875
1759327759650,515544785,6821,7,-0.555908203125,-0.09283447265625,0.75872802734375
1759327759650,515544785,6821,8,-0.55224609375,-0.09307861328125,0.75848388671875
1759327759650,515544785,6821,9,-0.559326171875,-0.09185791015625,0.76336669921875
1759327759650,515544785,6821,10,-0.552978515625,-0.09503173828125,0.76751708984375
1759327759650,515544785,6821,11,-0.55859375,-0.09185791015625,0.76116943359375
1759327759650,515544785,6821,12,-0.5546875,-0.09454345703125,0.76019287109375
1759327759650,515544785,6821,13,-0.560302734375,-0.09893798828125,0.76507568359375
1759327759650,515544785,6821,14,-0.555908203125,-0.09283447265625,0.76702880859375
1759327759650,515544785,6821,15,-0.5537109375,-0.09942626953125,0.76190185546875
1759327759650,515544785,6821,16,-0.5517578125,-0.09356689453125,0.75946044921875
1759327759650,515544785,6821,17,-0.556884765625,-0.09576416015625,0.76531982421875
1759327759650,515544785,6821,18,-0.559326171875,-0.09429931640625,0.76019287109375
1759327759650,515544785,6821,19,-0.559814453125,-0.09844970703125,0.76312255859375
1759327759650,515544785,6821,20,-0.555908203125,-0.09747314453125,0.76385498046875
1759327759650,515544785,6821,21,-0.553466796875,-0.09527587890625,0.76385498046875
1759327759650,515544785,6821,22,-0.552490234375,-0.09625244140625,0.76239013671875
1759327759650,515544785,6821,23,-0.554931640625,-0.09844970703125,0.76458740234375
1759327759650,515544785,6821,24,-0.552978515625,-0.10015869140625,0.76361083984375
1759327759650,515544785,6821,25,-0.55419921875,-0.09698486328125,0.76507568359375
1759327759650,515544785,6821,26,-0.555419921875,-0.09381103515625,0.76361083984375
1759327759650,515544785,6821,27,-0.554931640625,-0.09991455078125,0.76385498046875
1759327759650,515544785,6821,28,-0.55126953125,-0.09552001953125,0.76165771484375
1759327759650,515544785,6821,29,-0.55908203125,-0.09722900390625,0.76019287109375
1759327759650,515544785,6821,30,-0.560546875,-0.10089111328125,0.76043701171875
1759327759650,515544785,6821,31,-0.562744140625,-0.09478759765625,0.75506591796875
1759327762209,515547322,6822,0,-0.5546875,-0.09747314453125,0.76190185546875
1759327762209,515547322,6822,1,-0.552734375,-0.09478759765625,0.76580810546875
1759327762209,515547322,6822,2,-0.553466796875,-0.10333251953125,0.76629638671875
1759327762209,515547322,6822,3,-0.55419921875,-0.09771728515625,0.76312255859375
1759327762209,515547322,6822,4,-0.55810546875,-0.09674072265625,0.76605224609375
1759327762209,515547322,6822,5,-0.552978515625,-0.10113525390625,0.76458740234375
1759327762209,515547322,6822,6,-0.555419921875,-0.09771728515625,0.76312255859375
1759327762209,515547322,6822,7,-0.56591796875,-0.09991455078125,0.76312255859375
1759327762209,515547322,6822,8,-0.552490234375,-0.09649658203125,0.76141357421875
1759327762209,515547322,6822,9,-0.5517578125,-0.09991455078125,0.76824951171875
1759327762209,515547322,6822,10,-0.54931640625,-0.09722900390625,0.76239013671875
1759327762209,515547322,6822,11,-0.55810546875,-0.09674072265625,0.75921630859375
1759327762209,515547322,6822,12,-0.566162109375,-0.10211181640625,0.76043701171875
1759327762209,515547322,6822,13,-0.5517578125,-0.10211181640625,0.76409912109375
1759327762209,515547322,6822,14,-0.557373046875,-0.09600830078125,0.75994873046875
1759327762209,515547322,6822,15,-0.55126953125,-0.09942626953125,0.76385498046875
1759327762209,515547322,6822,16,-0.56005859375,-0.09722900390625,0.76214599609375
1759327762209,515547322,6822,17,-0.558837890625,-0.10211181640625,0.75823974609375
1759327762209,515547322,6822,18,-0.562255859375,-0.09747314453125,0.75677490234375
1759327762209,515547322,6822,19,-0.56005859375,-0.09503173828125,0.76629638671875
1759327762209,515547322,6822,20,-0.554443359375,-0.09649658203125,0.76531982421875
1759327762209,515547322,6822,21,-0.56103515625,-0.09918212890625,0.75848388671875
1759327762209,515547322,6822,22,-0.5556640625,-0.09796142578125,0.76214599609375
1759327762209,515547322,6822,23,-0.566162109375,-0.09747314453125,0.75775146484375
1759327762209,515547322,6822,24,-0.56787109375,-0.09527587890625,0.75018310546875
1759327762209,515547322,6822,25,-0.5703125,-0.09161376953125,0.75091552734375
1759327762209,515547322,6822,26,-0.561279296875,-0.09722900390625,0.76165771484375
1759327762209,515547322,6822,27,-0.55615234375,-0.09454345703125,0.76165771484375
1759327762209,515547322,6822,28,-0.539306640625,-0.07379150390625,0.75555419921875
1759327762209,515547322,6822,29,-0.5947265625,-0.10870361328125,0.75531005859375
1759327762209,515547322,6822,30,-0.595703125,-0.09625244140625,0.73968505859375
1759327762209,515547322,6822,31,-0.59619140625,-0.09259033203125,0.74212646484375
1759327764720,515549859,6823,0,-0.589111328125,-0.09356689453125,0.75311279296875
1759327764720,515549859,6823,1,-0.575927734375,-0.09014892578125,0.74993896484375
1759327764720,515549859,6823,2,-0.588623046875,-0.10186767578125,0.75457763671875
1759327764720,515549859,6823,3,-0.540771484375,-0.10748291015625,0.76605224609375
1759327764720,515549859,6823,4,-0.573486328125,-0.09796142578125,0.78265380859375
1759327764720,515549859,6823,5,-0.570556640625,-0.09869384765625,0.72991943359375
1759327764720,515549859,6823,6,-0.497314453125,-0.10430908203125,0.76019287109375
1759327764720,515549859,6823,7,-0.59912109375,-0.10772705078125,0.79193115234375
1759327764720,515549859,6823,8,-0.580322265625,-0.08941650390625,0.73114013671875
1759327764720,515549859,6823,9,-0.5322265625,-0.08355712890625,0.73040771484375
1759327764720,515549859,6823,10,-0.57666015625,-0.10357666015625,0.77801513671875
1759327764720,515549859,6823,11,-0.56591796875,-0.10162353515625,0.76678466796875
1759327764720,515549859,6823,12,-0.5576171875,-0.08868408203125,0.73333740234375
1759327764720,515549859,6823,13,-0.57373046875,-0.09869384765625,0.74676513671875
1759327764720,515549859,6823,14,-0.58154296875,-0.10919189453125,0.77020263671875
1759327764720,515549859,6823,15,-0.576171875,-0.08917236328125,0.74578857421875
1759327764720,515549859,6823,16,-0.5654296875,-0.08892822265625,0.73992919921875
1759327764720,515549859,6823,17,-0.5966796875,-0.09478759765625,0.75164794921875
1759327764720,515549859,6823,18,-0.5537109375,-0.10528564453125,0.76654052734375
1759327764720,515549859,6823,19,-0.53125,-0.10284423828125,0.77142333984375
1759327764720,515549859,6823,20,-0.561767578125,-0.09356689453125,0.76214599609375
1759327764720,515549859,6823,21,-0.55224609375,-0.08892822265625,0.75384521484375
1759327764720,515549859,6823,22,-0.583984375,-0.09503173828125,0.75286865234375
1759327764720,515549859,6823,23,-0.590087890625,-0.09869384765625,0.75091552734375
1759327764720,515549859,6823,24,-0.566650390625,-0.09210205078125,0.74945068359375
1759327764720,515549859,6823,25,-0.58056640625,-0.08770751953125,0.75238037109375
1759327764720,515549859,6823,26,-0.552001953125,-0.09381103515625,0.75872802734375
1759327764720,515549859,6823,27,-0.578857421875,-0.08428955078125,0.75628662109375
1759327764720,515549859,6823,28,-0.57470703125,-0.08087158203125,0.73602294921875
1759327764720,515549859,6823,29,-0.551025390625,-0.08209228515625,0.72576904296875
1759327764720,515549859,6823,30,-0.624267578125,-0.13507080078125,0.77850341796875
1759327764720,515549859,6823,31,-0.61474609375,-0.07818603515625,0.73626708984375
1759327767257,515552396,6824,0,-0.620361328125,-0.06060791015625,0.72137451171875
1759327767257,515552396,6824,1,-0.60302734375,-0.06353759765625,0.71209716796875
1759327767257,515552396,6824,2,-0.618896484375,-0.07574462890625,0.72869873046875
1759327767257,515552396,6824,3,-0.6142578125,-0.08282470703125,0.73480224609375
1759327767257,515552396,6824,4,-0.600341796875,-0.08477783203125,0.73846435546875
1759327767257,515552396,6824,5,-0.59033203125,-0.08526611328125,0.73748779296875
1759327767257,515552396,6824,6,-0.5966796875,-0.07843017578125,0.73333740234375
1759327767257,515552396,6824,7,-0.610107421875,-0.07672119140625,0.73406982421875
1759327767257,515552396,6824,8,-0.60498046875,-0.07305908203125,0.72625732421875
1759327767257,515552396,6824,9,-0.59716796875,-0.08355712890625,0.73651123046875
1759327767257,515552396,6824,10,-0.59912109375,-0.07769775390625,0.73724365234375
1759327767257,515552396,6824,11,-0.596435546875,-0.07769775390625,0.74261474609375
1759327767257,515552396,6824,12,-0.606689453125,-0.08062744140625,0.74114990234375
1759327767257,515552396,6824,13,-0.60302734375,-0.08184814453125,0.73529052734375
1759327767257,515552396,6824,14,-0.591552734375,-0.07501220703125,0.72601318359375
1759327767257,515552396,6824,15,-0.55029296875,-0.06695556640625,0.73529052734375
1759327767257,515552396,6824,16,-0.61474609375,-0.07037353515625,0.75018310546875
1759327767257,515552396,6824,17,-0.64599609375,-0.08526611328125,0.74163818359375
1759327767257,515552396,6824,18,-0.6318359375,-0.08551025390625,0.73089599609375
1759327767257,515552396,6824,19,-0.580322265625,-0.07183837890625,0.72674560546875
1759327767257,515552396,6824,20,-0.5771484375,-0.08795166015625,0.72650146484375
1759327767257,515552396,6824,21,-0.604736328125,-0.08428955078125,0.74041748046875
1759327767257,515552396,6824,22,-0.5966796875,-0.05694580078125,0.74407958984375
1759327767257,515552396,6824,23,-0.592529296875,-0.07452392578125,0.74041748046875
1759327767257,515552396,6824,24,-0.58544921875,-0.08380126953125,0.73724365234375
1759327767257,515552396,6824,25,-0.5927734375,-0.08648681640625,0.73797607421875
1759327767257,515552396,6824,26,-0.619384765625,-0.09259033203125,0.72674560546875
1759327767257,515552396,6824,27,-0.61962890625,-0.08038330078125,0.72088623046875
1759327767257,515552396,6824,28,-0.6123046875,-0.08551025390625,0.73211669921875
1759327767257,515552396,6824,29,-0.61767578125,-0.07989501953125,0.72039794921875
1759327767257,515552396,6824,30,-0.60791015625,-0.08331298828125,0.72454833984375
1759327767257,515552396,6824,31,-0.61865234375,-0.08038330078125,0.72430419921875
1759327769791,515554933,6825,0,-0.614013671875,-0.08404541015625,0.72821044921875
1759327769791,515554933,6825,1,-0.613037109375,-0.08843994140625,0.71746826171875
1759327769791,515554933,6825,2,-0.60791015625,-0.08673095703125,0.73577880859375
1759327769791,515554933,6825,3,-0.615478515625,-0.07745361328125,0.73187255859375
1759327769791,515554933,6825,4,-0.60595703125,-0.06793212890625,0.72161865234375
1759327769791,515554933,6825,5,-0.609375,-0.10821533203125,0.75164794921875
1759327769791,515554933,6825,6,-0.59423828125,-0.08551025390625,0.74530029296875
1759327769791,515554933,6825,7,-0.58740234375,-0.08843994140625,0.72576904296875
1759327769791,515554933,6825,8,-0.643310546875,-0.08209228515625,0.70477294921875
1759327769791,515554933,6825,9,-0.61767578125,-0.07598876953125,0.73211669921875
1759327769791,515554933,6825,10,-0.586181640625,-0.07916259765625,0.72625732421875
1759327769791,515554933,6825,11,-0.599609375,-0.07061767578125,0.72918701171875
1759327769791,515554933,6825,12,-0.603271484375,-0.07672119140625,0.74383544921875
1759327769791,515554933,6825,13,-0.6220703125,-0.07281494140625,0.72723388671875
1759327769791,515554933,6825,14,-0.6142578125,-0.07916259765625,0.71038818359375
1759327769791,515554933,6825,15,-0.619384765625,-0.07574462890625,0.72259521484375
1759327769791,515554933,6825,16,-0.617919921875,-0.07769775390625,0.72991943359375
1759327769791,515554933,6825,17,-0.61865234375,-0.07135009765625,0.72088623046875
1759327769791,515554933,6825,18,-0.614501953125,-0.07403564453125,0.71868896484375
1759327769791,515554933,6825,19,-0.625732421875,-0.07623291015625,0.71722412109375
1759327769791,515554933,6825,20,-0.625244140625,-0.07135009765625,0.71624755859375
1759327769791,515554933,6825,21,-0.62646484375,-0.08258056640625,0.71624755859375
1759327769791,515554933,6825,22,-0.62109375,-0.06842041015625,0.71160888671875
1759327769791,515554933,6825,23,-0.6259765625,-0.07550048828125,0.71722412109375
1759327769791,515554933,6825,24,-0.626708984375,-0.07745361328125,0.71820068359375
1759327769791,515554933,6825,25,-0.637939453125,-0.06915283203125,0.70867919921875
1759327769791,515554933,6825,26,-0.632080078125,-0.06695556640625,0.71087646484375
1759327769791,515554933,6825,27,-0.6318359375,-0.06109619140625,0.70819091796875
1759327769791,515554933,6825,28,-0.642578125,-0.06427001953125,0.71356201171875
1759327769791,515554933,6825,29,-0.637939453125,-0.06500244140625,0.70721435546875
1759327769791,515554933,6825,30,-0.636962890625,-0.05841064453125,0.70037841796875
1759327769791,515554933,6825,31,-0.643310546875,-0.06207275390625,0.70941162109375
1759327772347,515557470,6826,0,-0.647705078125,-0.06231689453125,0.71112060546875
1759327772347,515557470,6826,1,-0.6416015625,-0.05645751953125,0.69232177734375
1759327772347,515557470,6826,2,-0.63671875,-0.06866455078125,0.70062255859375
1759327772347,515557470,6826,3,-0.64990234375,-0.06622314453125,0.70794677734375
1759327772347,515557470,6826,4,-0.646728515625,-0.06427001953125,0.69866943359375
1759327772347,515557470,6826,5,-0.64599609375,-0.05987548828125,0.69500732421875
1759327772347,515557470,6826,6,-0.63525390625,-0.06744384765625,0.70648193359375
1759327772347,515557470,6826,7,-0.64599609375,-0.07012939453125,0.71160888671875
1759327772347,515557470,6826,8,-0.63427734375,-0.06256103515625,0.70452880859375
1759327772347,515557470,6826,9,-0.64013671875,-0.06549072265625,0.69891357421875
1759327772347,515557470,6826,10,-0.6494140625,-0.07012939453125,0.70745849609375
1759327772347,515557470,6826,11,-0.632080078125,-0.06964111328125,0.70819091796875
1759327772347,515557470,6826,12,-0.634765625,-0.05914306640625,0.70404052734375
1759327772347,515557470,6826,13,-0.63330078125,-0.07012939453125,0.70965576171875
1759327772347,515557470,6826,14,-0.63916015625,-0.06256103515625,0.69940185546875
1759327772347,515557470,6826,15,-0.630859375,-0.06988525390625,0.70770263671875
1759327772347,515557470,6826,16,-0.640869140625,-0.06549072265625,0.70989990234375
1759327772347,515557470,6826,17,-0.640380859375,-0.06622314453125,0.70672607421875
1759327772347,515557470,6826,18,-0.640380859375,-0.06182861328125,0.70281982421875
1759327772347,515557470,6826,19,-0.637939453125,-0.07232666015625,0.70770263671875
1759327772347,515557470,6826,20,-0.642333984375,-0.06842041015625,0.71282958984375
1759327772347,515557470,6826,21,-0.63427734375,-0.06402587890625,0.70037841796875
1759327772347,515557470,6826,22,-0.641357421875,-0.06182861328125,0.70697021484375
1759327772347,515557470,6826,23,-0.63818359375,-0.06793212890625,0.71160888671875
1759327772347,515557470,6826,24,-0.63818359375,-0.06866455078125,0.71282958984375
1759327772347,515557470,6826,25,-0.636474609375,-0.05963134765625,0.70135498046875
1759327772347,515557470,6826,26,-0.63232421875,-0.06500244140625,0.70770263671875
1759327772347,515557470,6826,27,-0.643798828125,-0.06842041015625,0.70428466796875
1759327772347,515557470,6826,28,-0.628173828125,-0.07696533203125,0.71429443359375
1759327772347,515557470,6826,29,-0.634765625,-0.06182861328125,0.71258544921875
1759327772347,515557470,6826,30,-0.62841796875,-0.07305908203125,0.71209716796875
1759327772347,515557470,6826,31,-0.62744140625,-0.07330322265625,0.72283935546875
1759327774860,515560007,6827,0,-0.6181640625,-0.07965087890625,0.72576904296875
1759327774860,515560007,6827,1,-0.609619140625,-0.07525634765625,0.72210693359375
1759327774860,515560007,6827,2,-0.614501953125,-0.07135009765625,0.72406005859375
1759327774860,515560007,6827,3,-0.61865234375,-0.06671142578125,0.72088623046875
1759327774860,515560007,6827,4,-0.61474609375,-0.06988525390625,0.71478271484375
1759327774860,515560007,6827,5,-0.622802734375,-0.07623291015625,0.72381591796875
1759327774860,515560007,6827,6,-0.618896484375,-0.06988525390625,0.71868896484375
1759327774860,515560007,6827,7,-0.624267578125,-0.06524658203125,0.71844482421875
1759327774860,515560007,6827,8,-0.6220703125,-0.07647705078125,0.71746826171875
1759327774860,515560007,6827,9,-0.629150390625,-0.06793212890625,0.72259521484375
1759327774860,515560007,6827,10,-0.619140625,-0.06988525390625,0.71673583984375
1759327774860,515560007,6827,11,-0.619873046875,-0.07037353515625,0.71795654296875
1759327774860,515560007,6827,12,-0.61962890625,-0.07696533203125,0.71917724609375
1759327774860,515560007,6827,13,-0.620849609375,-0.07208251953125,0.72235107421875
1759327774860,515560007,6827,14,-0.619140625,-0.06671142578125,0.71649169921875
1759327774860,515560007,6827,15,-0.6171875,-0.06793212890625,0.71649169921875
1759327774860,515560007,6827,16,-0.619384765625,-0.07647705078125,0.72137451171875
1759327774860,515560007,6827,17,-0.6181640625,-0.07867431640625,0.72259521484375
1759327774860,515560007,6827,18,-0.62353515625,-0.06817626953125,0.71820068359375
1759327774860,515560007,6827,19,-0.618896484375,-0.07720947265625,0.72283935546875
1759327774860,515560007,6827,20,-0.61865234375,-0.07135009765625,0.72259521484375
1759327774860,515560007,6827,21,-0.620361328125,-0.07379150390625,0.71820068359375
1759327774860,515560007,6827,22,-0.621337890625,-0.07769775390625,0.72113037109375
1759327774860,515560007,6827,23,-0.624267578125,-0.07476806640625,0.72015380859375
1759327774860,515560007,6827,24,-0.619140625,-0.06964111328125,0.72064208984375
1759327774860,515560007,6827,25,-0.614501953125,-0.07647705078125,0.72039794921875
1759327774860,515560007,6827,26,-0.622802734375,-0.07867431640625,0.71844482421875
1759327774860,515560007,6827,27,-0.622802734375,-0.07794189453125,0.71868896484375
1759327774860,515560007,6827,28,-0.623779296875,-0.07452392578125,0.71551513671875
1759327774860,515560007,6827,29,-0.619384765625,-0.07989501953125,0.72137451171875
1759327774860,515560007,6827,30,-0.613525390625,-0.07257080078125,0.71722412109375
1759327774860,515560007,6827,31,-0.62255859375,-0.07550048828125,0.71624755859375
1759327777398,515562544,6828,0,-0.623779296875,-0.08721923828125,0.71868896484375
1759327777398,515562544,6828,1,-0.621337890625,-0.07232666015625,0.71795654296875
1759327777398,515562544,6828,2,-0.619384765625,-0.07672119140625,0.72235107421875
1759327777398,515562544,6828,3,-0.616943359375,-0.07965087890625,0.71917724609375
1759327777398,515562544,6828,4,-0.61474609375,-0.08355712890625,0.72674560546875
1759327777398,515562544,6828,5,-0.615478515625,-0.07989501953125,0.72503662109375
1759327777398,515562544,6828,6,-0.61328125,-0.07965087890625,0.71966552734375
1759327777398,515562544,6828,7,-0.621337890625,-0.08135986328125,0.72283935546875
1759327777398,515562544,6828,8,-0.619384765625,-0.07891845703125,0.72210693359375
1759327777398,515562544,6828,9,-0.615234375,-0.08087158203125,0.72503662109375
1759327777398,515562544,6828,10,-0.612548828125,-0.08087158203125,0.71746826171875
1759327777398,515562544,6828,11,-0.61865234375,-0.07818603515625,0.72235107421875
1759327777398,515562544,6828,12,-0.619140625,-0.07379150390625,0.71844482421875
1759327777398,515562544,6828,13,-0.6142578125,-0.08453369140625,0.72210693359375
1759327777398,515562544,6828,14,-0.6181640625,-0.07965087890625,0.71746826171875
1759327777398,515562544,6828,15,-0.6181640625,-0.08087158203125,0.71868896484375
1759327777398,515562544,6828,16,-0.619873046875,-0.07989501953125,0.71405029296875
1759327777398,515562544,6828,17,-0.61962890625,-0.08282470703125,0.71624755859375
1759327777398,515562544,6828,18,-0.6201171875,-0.08282470703125,0.71966552734375
1759327777398,515562544,6828,19,-0.6171875,-0.08135986328125,0.71942138671875
1759327777398,515562544,6828,20,-0.615966796875,-0.08087158203125,0.71893310546875
1759327777398,515562544,6828,21,-0.621826171875,-0.08062744140625,0.72283935546875
1759327777398,515562544,6828,22,-0.61572265625,-0.08282470703125,0.72161865234375
1759327777398,515562544,6828,23,-0.619384765625,-0.08160400390625,0.71942138671875
1759327777398,515562544,6828,24,-0.61865234375,-0.08111572265625,0.71942138671875
1759327777398,515562544,6828,25,-0.618896484375,-0.08331298828125,0.72161865234375
1759327777398,515562544,6828,26,-0.62060546875,-0.08746337890625,0.72064208984375
1759327777398,515562544,6828,27,-0.621826171875,-0.07623291015625,0.72137451171875
1759327777398,515562544,6828,28,-0.623779296875,-0.08721923828125,0.72161865234375
1759327777398,515562544,6828,29,-0.6162109375,-0.08526611328125,0.71527099609375
1759327777398,515562544,6828,30,-0.620361328125,-0.08331298828125,0.72210693359375
1759327777398,515562544,6828,31,-0.617431640625,-0.08428955078125,0.72381591796875
1759327779932,515565082,6829,0,-0.614501953125,-0.08233642578125,0.71697998046875
1759327779932,515565082,6829,1,-0.616455078125,-0.08404541015625,0.71990966796875
1759327779932,515565082,6829,2,-0.617919921875,-0.08599853515625,0.72064208984375
1759327779932,515565082,6829,3,-0.614013671875,-0.08404541015625,0.72259521484375
1759327779932,515565082,6829,4,-0.619384765625,-0.08526611328125,0.72064208984375
1759327779932,515565082,6829,5,-0.616943359375,-0.08331298828125,0.72137451171875
1759327779932,515565082,6829,6,-0.616455078125,-0.08258056640625,0.72601318359375
1759327779932,515565082,6829,7,-0.619384765625,-0.09576416015625,0.72332763671875
1759327779932,515565082,6829,8,-0.6162109375,-0.08306884765625,0.71600341796875
1759327779932,515565082,6829,9,-0.6220703125,-0.08380126953125,0.72332763671875
1759327779932,515565082,6829,10,-0.616943359375,-0.08648681640625,0.71795654296875
1759327779932,515565082,6829,11,-0.6181640625,-0.08941650390625,0.72186279296875
1759327779932,515565082,6829,12,-0.6201171875,-0.08331298828125,0.72015380859375
1759327779932,515565082,6829,13,-0.6220703125,-0.08013916015625,0.71551513671875
1759327779932,515565082,6829,14,-0.620849609375,-0.08282470703125,0.71868896484375
1759327779932,515565082,6829,15,-0.62353515625,-0.08404541015625,0.71502685546875
1759327779932,515565082,6829,16,-0.62158203125,-0.08599853515625,0.71868896484375
1759327779932,515565082,6829,17,-0.61669921875,-0.08209228515625,0.71673583984375
1759327779932,515565082,6829,18,-0.627197265625,-0.08087158203125,0.71844482421875
1759327779932,515565082,6829,19,-0.619140625,-0.08062744140625,0.71746826171875
1759327779932,515565082,6829,20,-0.63134765625,-0.08209228515625,0.71478271484375
1759327779932,515565082,6829,21,-0.618408203125,-0.07623291015625,0.71112060546875
1759327779932,515565082,6829,22,-0.6318359375,-0.07330322265625,0.71575927734375
1759327779932,515565082,6829,23,-0.63037109375,-0.07110595703125,0.71405029296875
1759327779932,515565082,6829,24,-0.629150390625,-0.06964111328125,0.70941162109375
1759327779932,515565082,6829,25,-0.633056640625,-0.06768798828125,0.71112060546875
1759327779932,515565082,6829,26,-0.641845703125,-0.05914306640625,0.70477294921875
1759327779932,515565082,6829,27,-0.6455078125,-0.05596923828125,0.70257568359375
1759327779932,515565082,6829,28,-0.646240234375,-0.06573486328125,0.70233154296875
1759327779932,515565082,6829,29,-0.64453125,-0.06109619140625,0.70184326171875
1759327779932,515565082,6829,30,-0.646240234375,-0.05767822265625,0.69940185546875
1759327779932,515565082,6829,31,-0.646484375,-0.05767822265625,0.70257568359375
1759327782466,515567619,6830,0,-0.6455078125,-0.05206298828125,0.70013427734375
1759327782466,515567619,6830,1,-0.651123046875,-0.05279541015625,0.69256591796875
1759327782466,515567619,6830,2,-0.650634765625,-0.05694580078125,0.69696044921875
1759327782466,515567619,6830,3,-0.65869140625,-0.04644775390625,0.69549560546875
1759327782466,515567619,6830,4,-0.65380859375,-0.04791259765625,0.69744873046875
1759327782466,515567619,6830,5,-0.653564453125,-0.04522705078125,0.69451904296875
1759327782466,515567619,6830,6,-0.65087890625,-0.05133056640625,0.69525146484375
1759327782466,515567619,6830,7,-0.659423828125,-0.04791259765625,0.69207763671875
1759327782466,515567619,6830,8,-0.657958984375,-0.04425048828125,0.69134521484375
1759327782466,515567619,6830,9,-0.65380859375,-0.04547119140625,0.69305419921875
1759327782466,515567619,6830,10,-0.65380859375,-0.04791259765625,0.69232177734375
