receivedPhoneTimestamp,respeckTimestamp,packetSeqNum,sampleSeqNum,accelX,accelY,accelZ
1759847106940,970434805,61177,0,-0.1982421875,-0.97613525390625,-0.22442626953125
1759847106940,970434805,61177,1,-0.202880859375,-0.97882080078125,-0.22686767578125
1759847106940,970434805,61177,2,-0.20263671875,-0.98126220703125,-0.22174072265625
1759847106940,970434805,61177,3,-0.20068359375,-0.97491455078125,-0.22344970703125
1759847106940,970434805,61177,4,-0.20166015625,-0.97515869140625,-0.22174072265625
1759847106940,970434805,61177,5,-0.201171875,-0.97906494140625,-0.21807861328125
1759847106940,970434805,61177,6,-0.2021484375,-0.98052978515625,-0.21417236328125
1759847106940,970434805,61177,7,-0.201416015625,-0.97735595703125,-0.21978759765625
1759847106940,970434805,61177,8,-0.2060546875,-0.98248291015625,-0.21368408203125
1759847106940,970434805,61177,9,-0.204345703125,-0.98590087890625,-0.20904541015625
1759847106940,970434805,61177,10,-0.200439453125,-0.98394775390625,-0.20733642578125
1759847106940,970434805,61177,11,-0.200439453125,-0.98297119140625,-0.20196533203125
1759847106940,970434805,61177,12,-0.198974609375,-0.97784423828125,-0.19952392578125
1759847106940,970434805,61177,13,-0.203125,-0.97125244140625,-0.20489501953125
1759847106940,970434805,61177,14,-0.214599609375,-0.97857666015625,-0.20904541015625
1759847106940,970434805,61177,15,-0.212890625,-0.98419189453125,-0.20343017578125
1759847106940,970434805,61177,16,-0.212158203125,-0.99176025390625,-0.19342041015625
1759847106940,970434805,61177,17,-0.18994140625,-0.98248291015625,-0.19293212890625
1759847106940,970434805,61177,18,-0.194580078125,-0.97662353515625,-0.18975830078125
1759847106940,970434805,61177,19,-0.197265625,-0.98175048828125,-0.19439697265625
1759847106940,970434805,61177,20,-0.205078125,-0.98883056640625,-0.18951416015625
1759847106940,970434805,61177,21,-0.2001953125,-0.98614501953125,-0.18609619140625
1759847106940,970434805,61177,22,-0.20947265625,-0.98883056640625,-0.17852783203125
1759847106940,970434805,61177,23,-0.19873046875,-0.98248291015625,-0.18023681640625
1759847106940,970434805,61177,24,-0.2021484375,-0.98443603515625,-0.17950439453125
1759847106940,970434805,61177,25,-0.2001953125,-0.99249267578125,-0.17486572265625
1759847106940,970434805,61177,26,-0.205078125,-0.97906494140625,-0.18804931640625
1759847106940,970434805,61177,27,-0.203857421875,-0.98858642578125,-0.18438720703125
1759847106940,970434805,61177,28,-0.197509765625,-0.98077392578125,-0.19171142578125
1759847106940,970434805,61177,29,-0.19921875,-0.98516845703125,-0.18267822265625
1759847106940,970434805,61177,30,-0.2587890625,-0.98394775390625,-0.17120361328125
1759847106940,970434805,61177,31,-0.2275390625,-0.96612548828125,-0.23126220703125
1759847109642,970437348,61178,0,-0.228515625,-0.97222900390625,-0.23809814453125
1759847109642,970437348,61178,1,-0.20361328125,-0.97125244140625,-0.22418212890625
1759847109642,970437348,61178,2,-0.197509765625,-0.99224853515625,-0.20709228515625
1759847109642,970437348,61178,3,-0.19140625,-0.97589111328125,-0.22344970703125
1759847109642,970437348,61178,4,-0.20556640625,-0.97833251953125,-0.22222900390625
1759847109642,970437348,61178,5,-0.198974609375,-0.99395751953125,-0.21612548828125
1759847109642,970437348,61178,6,-0.201171875,-0.97979736328125,-0.21221923828125
1759847109642,970437348,61178,7,-0.201171875,-0.97882080078125,-0.20684814453125
1759847109642,970437348,61178,8,-0.211181640625,-0.97808837890625,-0.19805908203125
1759847109642,970437348,61178,9,-0.208740234375,-0.97662353515625,-0.19512939453125
1759847109642,970437348,61178,10,-0.197021484375,-0.99078369140625,-0.18560791015625
1759847109642,970437348,61178,11,-0.207275390625,-0.98175048828125,-0.18218994140625
1759847109642,970437348,61178,12,-0.20751953125,-0.97784423828125,-0.18048095703125
1759847109642,970437348,61178,13,-0.2177734375,-0.98492431640625,-0.17755126953125
1759847109642,970437348,61178,14,-0.21923828125,-0.98126220703125,-0.17169189453125
1759847109642,970437348,61178,15,-0.21923828125,-0.97686767578125,-0.16900634765625
1759847109642,970437348,61178,16,-0.2197265625,-0.97613525390625,-0.17144775390625
1759847109642,970437348,61178,17,-0.2177734375,-0.98077392578125,-0.16632080078125
1759847109642,970437348,61178,18,-0.216796875,-0.98590087890625,-0.16900634765625
1759847109642,970437348,61178,19,-0.21142578125,-0.98150634765625,-0.17388916015625
1759847109642,970437348,61178,20,-0.211669921875,-0.98907470703125,-0.17535400390625
1759847109642,970437348,61178,21,-0.210205078125,-0.99176025390625,-0.18121337890625
1759847109642,970437348,61178,22,-0.213134765625,-0.97979736328125,-0.17584228515625
1759847109642,970437348,61178,23,-0.2119140625,-0.98052978515625,-0.18487548828125
1759847109642,970437348,61178,24,-0.206298828125,-0.98419189453125,-0.18145751953125
1759847109642,970437348,61178,25,-0.211181640625,-0.99151611328125,-0.17413330078125
1759847109642,970437348,61178,26,-0.20703125,-0.98370361328125,-0.18536376953125
1759847109642,970437348,61178,27,-0.203369140625,-0.98736572265625,-0.18023681640625
1759847109642,970437348,61178,28,-0.216064453125,-0.98663330078125,-0.17926025390625
1759847109642,970437348,61178,29,-0.21826171875,-0.98516845703125,-0.17510986328125
1759847109642,970437348,61178,30,-0.22314453125,-0.98150634765625,-0.17901611328125
1759847109642,970437348,61178,31,-0.216064453125,-0.98248291015625,-0.18365478515625
1759847112159,970439891,61179,0,-0.22509765625,-0.98101806640625,-0.18243408203125
1759847112159,970439891,61179,1,-0.229248046875,-0.97589111328125,-0.18902587890625
1759847112159,970439891,61179,2,-0.218505859375,-0.98101806640625,-0.19488525390625
1759847112159,970439891,61179,3,-0.22900390625,-0.98199462890625,-0.19097900390625
1759847112159,970439891,61179,4,-0.22119140625,-0.98175048828125,-0.18829345703125
1759847112159,970439891,61179,5,-0.2216796875,-0.98004150390625,-0.19122314453125
1759847112159,970439891,61179,6,-0.21630859375,-0.98004150390625,-0.19439697265625
1759847112159,970439891,61179,7,-0.224609375,-0.98394775390625,-0.18927001953125
1759847112159,970439891,61179,8,-0.224365234375,-0.97369384765625,-0.19390869140625
1759847112159,970439891,61179,9,-0.233154296875,-0.97467041015625,-0.19512939453125
1759847112159,970439891,61179,10,-0.2333984375,-0.97442626953125,-0.19610595703125
1759847112159,970439891,61179,11,-0.2333984375,-0.98004150390625,-0.19586181640625
1759847112159,970439891,61179,12,-0.226318359375,-0.97589111328125,-0.19854736328125
1759847112159,970439891,61179,13,-0.22119140625,-0.97808837890625,-0.19732666015625
1759847112159,970439891,61179,14,-0.2265625,-0.98199462890625,-0.19586181640625
1759847112159,970439891,61179,15,-0.22265625,-0.97637939453125,-0.20098876953125
1759847112159,970439891,61179,16,-0.21923828125,-0.98590087890625,-0.20709228515625
1759847112159,970439891,61179,17,-0.21630859375,-0.98004150390625,-0.20977783203125
1759847112159,970439891,61179,18,-0.217041015625,-0.97857666015625,-0.20855712890625
1759847112159,970439891,61179,19,-0.22314453125,-0.97784423828125,-0.20489501953125
1759847112159,970439891,61179,20,-0.2158203125,-0.97711181640625,-0.19976806640625
1759847112159,970439891,61179,21,-0.215576171875,-0.98321533203125,-0.20440673828125
1759847112159,970439891,61179,22,-0.203369140625,-0.97930908203125,-0.21197509765625
1759847112159,970439891,61179,23,-0.205810546875,-0.97930908203125,-0.21173095703125
1759847112159,970439891,61179,24,-0.202392578125,-0.98175048828125,-0.20587158203125
1759847112159,970439891,61179,25,-0.19921875,-0.98297119140625,-0.20343017578125
1759847112159,970439891,61179,26,-0.192626953125,-0.97955322265625,-0.19488525390625
1759847112159,970439891,61179,27,-0.200439453125,-1.00543212890625,-0.18170166015625
1759847112159,970439891,61179,28,-0.19482421875,-0.97222900390625,-0.21319580078125
1759847112159,970439891,61179,29,-0.20263671875,-0.98663330078125,-0.19757080078125
1759847112159,970439891,61179,30,-0.2119140625,-0.97467041015625,-0.20025634765625
1759847112159,970439891,61179,31,-0.209228515625,-0.97857666015625,-0.19659423828125
1759847114679,970442434,61180,0,-0.211181640625,-0.97100830078125,-0.19708251953125
1759847114679,970442434,61180,1,-0.209228515625,-0.97393798828125,-0.19342041015625
1759847114679,970442434,61180,2,-0.221923828125,-0.99200439453125,-0.16949462890625
1759847114679,970442434,61180,3,-0.208251953125,-0.98394775390625,-0.17852783203125
1759847114679,970442434,61180,4,-0.208740234375,-0.98858642578125,-0.18267822265625
1759847114679,970442434,61180,5,-0.210205078125,-0.98223876953125,-0.17266845703125
1759847114679,970442434,61180,6,-0.2119140625,-0.99005126953125,-0.17266845703125
1759847114679,970442434,61180,7,-0.21728515625,-0.98663330078125,-0.16973876953125
1759847114679,970442434,61180,8,-0.21337890625,-0.98760986328125,-0.16754150390625
1759847114679,970442434,61180,9,-0.22216796875,-0.98028564453125,-0.16510009765625
1759847114679,970442434,61180,10,-0.22607421875,-0.98785400390625,-0.16436767578125
1759847114679,970442434,61180,11,-0.218994140625,-0.98126220703125,-0.16729736328125
1759847114679,970442434,61180,12,-0.21630859375,-0.98223876953125,-0.16632080078125
1759847114679,970442434,61180,13,-0.21875,-0.98297119140625,-0.16607666015625
1759847114679,970442434,61180,14,-0.21875,-0.98150634765625,-0.16680908203125
1759847114679,970442434,61180,15,-0.224365234375,-0.98370361328125,-0.16802978515625
1759847114679,970442434,61180,16,-0.220947265625,-0.98419189453125,-0.16558837890625
1759847114679,970442434,61180,17,-0.220458984375,-0.98199462890625,-0.16339111328125
1759847114679,970442434,61180,18,-0.220947265625,-0.97857666015625,-0.17828369140625
1759847114679,970442434,61180,19,-0.23095703125,-0.98907470703125,-0.16412353515625
1759847114679,970442434,61180,20,-0.2197265625,-0.97540283203125,-0.19659423828125
1759847114679,970442434,61180,21,-0.226806640625,-0.97784423828125,-0.19903564453125
1759847114679,970442434,61180,22,-0.255615234375,-0.97320556640625,-0.20147705078125
1759847114679,970442434,61180,23,-0.21435546875,-0.97637939453125,-0.19952392578125
1759847114679,970442434,61180,24,-0.228759765625,-0.97930908203125,-0.20294189453125
1759847114679,970442434,61180,25,-0.22021484375,-0.97589111328125,-0.20318603515625
1759847114679,970442434,61180,26,-0.2109375,-0.98101806640625,-0.20806884765625
1759847114679,970442434,61180,27,-0.201904296875,-0.97906494140625,-0.21612548828125
1759847114679,970442434,61180,28,-0.205322265625,-0.98468017578125,-0.21051025390625
1759847114679,970442434,61180,29,-0.20654296875,-0.97344970703125,-0.21417236328125
1759847114679,970442434,61180,30,-0.206787109375,-0.98150634765625,-0.21539306640625
1759847114679,970442434,61180,31,-0.202880859375,-0.97735595703125,-0.21026611328125
1759847117199,970444977,61181,0,-0.205078125,-0.98077392578125,-0.21392822265625
1759847117199,970444977,61181,1,-0.214111328125,-0.97198486328125,-0.21270751953125
1759847117199,970444977,61181,2,-0.21826171875,-0.97344970703125,-0.21002197265625
1759847117199,970444977,61181,3,-0.205322265625,-0.98809814453125,-0.20977783203125
1759847117199,970444977,61181,4,-0.207763671875,-0.98345947265625,-0.20660400390625
1759847117199,970444977,61181,5,-0.21435546875,-0.97271728515625,-0.21002197265625
1759847117199,970444977,61181,6,-0.203125,-0.98370361328125,-0.20367431640625
1759847117199,970444977,61181,7,-0.208251953125,-0.98321533203125,-0.20001220703125
1759847117199,970444977,61181,8,-0.20068359375,-0.97686767578125,-0.20294189453125
1759847117199,970444977,61181,9,-0.203369140625,-0.97930908203125,-0.19854736328125
1759847117199,970444977,61181,10,-0.2021484375,-0.99639892578125,-0.18511962890625
1759847117199,970444977,61181,11,-0.2119140625,-0.97735595703125,-0.18804931640625
1759847117199,970444977,61181,12,-0.209228515625,-0.98516845703125,-0.15338134765625
1759847117199,970444977,61181,13,-0.210205078125,-0.97857666015625,-0.14971923828125
1759847117199,970444977,61181,14,-0.21142578125,-0.97955322265625,-0.15997314453125
1759847117199,970444977,61181,15,-0.212646484375,-0.98590087890625,-0.15728759765625
1759847117199,970444977,61181,16,-0.222412109375,-0.99493408203125,-0.16094970703125
1759847117199,970444977,61181,17,-0.2099609375,-0.98687744140625,-0.16436767578125
1759847117199,970444977,61181,18,-0.208740234375,-0.98394775390625,-0.16607666015625
1759847117199,970444977,61181,19,-0.215576171875,-0.98687744140625,-0.16534423828125
1759847117199,970444977,61181,20,-0.21826171875,-0.98590087890625,-0.16754150390625
1759847117199,970444977,61181,21,-0.216552734375,-0.98712158203125,-0.16046142578125
1759847117199,970444977,61181,22,-0.217041015625,-0.98126220703125,-0.16851806640625
1759847117199,970444977,61181,23,-0.21337890625,-0.98687744140625,-0.17730712890625
1759847117199,970444977,61181,24,-0.2197265625,-0.98468017578125,-0.17120361328125
1759847117199,970444977,61181,25,-0.217041015625,-0.98199462890625,-0.17803955078125
1759847117199,970444977,61181,26,-0.224853515625,-0.98541259765625,-0.17803955078125
1759847117199,970444977,61181,27,-0.2236328125,-0.97930908203125,-0.18463134765625
1759847117199,970444977,61181,28,-0.221923828125,-0.97857666015625,-0.18072509765625
1759847117199,970444977,61181,29,-0.223388671875,-0.98590087890625,-0.18902587890625
1759847117199,970444977,61181,30,-0.22021484375,-0.97906494140625,-0.18658447265625
1759847117199,970444977,61181,31,-0.22119140625,-0.98150634765625,-0.18951416015625
1759847119719,970447520,61182,0,-0.22021484375,-0.97979736328125,-0.19244384765625
1759847119719,970447520,61182,1,-0.222900390625,-0.98272705078125,-0.18951416015625
1759847119719,970447520,61182,2,-0.224365234375,-0.97711181640625,-0.19464111328125
1759847119719,970447520,61182,3,-0.223388671875,-0.97711181640625,-0.19488525390625
1759847119719,970447520,61182,4,-0.21923828125,-0.98101806640625,-0.19000244140625
1759847119719,970447520,61182,5,-0.213134765625,-0.98638916015625,-0.17584228515625
1759847119719,970447520,61182,6,-0.232666015625,-0.97808837890625,-0.18170166015625
1759847119719,970447520,61182,7,-0.222900390625,-0.98394775390625,-0.19293212890625
1759847119719,970447520,61182,8,-0.220947265625,-0.96905517578125,-0.19976806640625
1759847119719,970447520,61182,9,-0.216064453125,-0.96978759765625,-0.20709228515625
1759847119719,970447520,61182,10,-0.224365234375,-0.98468017578125,-0.20391845703125
1759847119719,970447520,61182,11,-0.232666015625,-0.97833251953125,-0.19879150390625
1759847119719,970447520,61182,12,-0.215576171875,-0.97979736328125,-0.20050048828125
1759847119719,970447520,61182,13,-0.208740234375,-0.98004150390625,-0.19830322265625
1759847119719,970447520,61182,14,-0.215576171875,-0.97760009765625,-0.19586181640625
1759847119719,970447520,61182,15,-0.20458984375,-0.98443603515625,-0.19952392578125
1759847119719,970447520,61182,16,-0.181884765625,-0.99029541015625,-0.19732666015625
1759847119719,970447520,61182,17,-0.197509765625,-0.98468017578125,-0.18463134765625
1759847119719,970447520,61182,18,-0.224365234375,-0.97930908203125,-0.18756103515625
1759847119719,970447520,61182,19,-0.220947265625,-0.98077392578125,-0.18243408203125
1759847119719,970447520,61182,20,-0.228271484375,-0.97393798828125,-0.19146728515625
1759847119719,970447520,61182,21,-0.233642578125,-0.98077392578125,-0.18389892578125
1759847119719,970447520,61182,22,-0.230224609375,-0.98077392578125,-0.19171142578125
1759847119719,970447520,61182,23,-0.226318359375,-0.97540283203125,-0.19049072265625
1759847119719,970447520,61182,24,-0.22216796875,-0.97882080078125,-0.18829345703125
1759847119719,970447520,61182,25,-0.22119140625,-0.98004150390625,-0.19390869140625
1759847119719,970447520,61182,26,-0.21337890625,-0.97076416015625,-0.20196533203125
1759847119719,970447520,61182,27,-0.218017578125,-0.98590087890625,-0.19195556640625
1759847119719,970447520,61182,28,-0.2158203125,-0.97589111328125,-0.19464111328125
1759847119719,970447520,61182,29,-0.221923828125,-0.97808837890625,-0.19805908203125
1759847119719,970447520,61182,30,-0.224609375,-0.98248291015625,-0.20074462890625
1759847119719,970447520,61182,31,-0.22314453125,-0.97393798828125,-0.20684814453125
1759847122240,970450063,61183,0,-0.236083984375,-0.97369384765625,-0.20562744140625
1759847122240,970450063,61183,1,-0.246826171875,-0.97052001953125,-0.20831298828125
1759847122240,970450063,61183,2,-0.235595703125,-0.97100830078125,-0.22442626953125
1759847122240,970450063,61183,3,-0.223876953125,-0.97100830078125,-0.22564697265625
1759847122240,970450063,61183,4,-0.217041015625,-0.98565673828125,-0.21905517578125
1759847122240,970450063,61183,5,-0.21240234375,-0.97296142578125,-0.20977783203125
1759847122240,970450063,61183,6,-0.2265625,-0.97613525390625,-0.20391845703125
1759847122240,970450063,61183,7,-0.2060546875,-0.98175048828125,-0.21148681640625
1759847122240,970450063,61183,8,-0.19970703125,-0.99639892578125,-0.18878173828125
1759847122240,970450063,61183,9,-0.2080078125,-0.97198486328125,-0.20294189453125
1759847122240,970450063,61183,10,-0.2099609375,-0.97418212890625,-0.21221923828125
1759847122240,970450063,61183,11,-0.213134765625,-0.96954345703125,-0.21832275390625
1759847122240,970450063,61183,12,-0.21337890625,-0.98394775390625,-0.21612548828125
1759847122240,970450063,61183,13,-0.21435546875,-0.97735595703125,-0.21710205078125
1759847122240,970450063,61183,14,-0.21728515625,-0.97686767578125,-0.21392822265625
1759847122240,970450063,61183,15,-0.218505859375,-0.98272705078125,-0.21319580078125
1759847122240,970450063,61183,16,-0.217529296875,-0.97564697265625,-0.21173095703125
1759847122240,970450063,61183,17,-0.2216796875,-0.97271728515625,-0.21612548828125
1759847122240,970450063,61183,18,-0.218017578125,-0.97637939453125,-0.20513916015625
1759847122240,970450063,61183,19,-0.218505859375,-0.97857666015625,-0.21051025390625
1759847122240,970450063,61183,20,-0.228759765625,-0.97564697265625,-0.20098876953125
1759847122240,970450063,61183,21,-0.225341796875,-0.98077392578125,-0.19903564453125
1759847122240,970450063,61183,22,-0.226806640625,-0.97515869140625,-0.20635986328125
1759847122240,970450063,61183,23,-0.22998046875,-0.97515869140625,-0.20123291015625
1759847122240,970450063,61183,24,-0.228759765625,-0.98101806640625,-0.20245361328125
1759847122240,970450063,61183,25,-0.225830078125,-0.97686767578125,-0.19854736328125
1759847122240,970450063,61183,26,-0.226318359375,-0.98931884765625,-0.18096923828125
1759847122240,970450063,61183,27,-0.225830078125,-0.97369384765625,-0.20635986328125
1759847122240,970450063,61183,28,-0.23095703125,-0.96929931640625,-0.20635986328125
1759847122240,970450063,61183,29,-0.232666015625,-0.97735595703125,-0.20367431640625
1759847122240,970450063,61183,30,-0.22705078125,-0.97271728515625,-0.19903564453125
1759847122240,970450063,61183,31,-0.230712890625,-0.97125244140625,-0.20025634765625
1759847124939,970452606,61184,0,-0.238037109375,-0.98052978515625,-0.19610595703125
1759847124939,970452606,61184,1,-0.224609375,-0.97198486328125,-0.19757080078125
1759847124939,970452606,61184,2,-0.2314453125,-0.97930908203125,-0.19097900390625
1759847124939,970452606,61184,3,-0.228515625,-0.97857666015625,-0.19708251953125
1759847124939,970452606,61184,4,-0.22998046875,-0.97662353515625,-0.20172119140625
1759847124939,970452606,61184,5,-0.22412109375,-0.98077392578125,-0.19976806640625
1759847124939,970452606,61184,6,-0.23193359375,-0.97662353515625,-0.20098876953125
1759847124939,970452606,61184,7,-0.2333984375,-0.97833251953125,-0.20074462890625
1759847124939,970452606,61184,8,-0.23291015625,-0.97564697265625,-0.20269775390625
1759847124939,970452606,61184,9,-0.2294921875,-0.97467041015625,-0.19854736328125
1759847124939,970452606,61184,10,-0.22412109375,-0.97735595703125,-0.19683837890625
1759847124939,970452606,61184,11,-0.233642578125,-0.98419189453125,-0.19171142578125
1759847124939,970452606,61184,12,-0.2353515625,-0.97833251953125,-0.19415283203125
1759847124939,970452606,61184,13,-0.2265625,-0.97833251953125,-0.19439697265625
1759847124939,970452606,61184,14,-0.229248046875,-0.98638916015625,-0.17242431640625
1759847124939,970452606,61184,15,-0.224609375,-0.98419189453125,-0.17730712890625
1759847124939,970452606,61184,16,-0.249755859375,-0.96173095703125,-0.18707275390625
1759847124939,970452606,61184,17,-0.26171875,-0.96856689453125,-0.17730712890625
1759847124939,970452606,61184,18,-0.23828125,-0.97979736328125,-0.18389892578125
1759847124939,970452606,61184,19,-0.24951171875,-0.97808837890625,-0.17437744140625
1759847124939,970452606,61184,20,-0.239501953125,-0.98126220703125,-0.17437744140625
1759847124939,970452606,61184,21,-0.2470703125,-0.98052978515625,-0.17193603515625
1759847124939,970452606,61184,22,-0.23291015625,-0.97979736328125,-0.17071533203125
1759847124939,970452606,61184,23,-0.208251953125,-0.97125244140625,-0.18438720703125
1759847124939,970452606,61184,24,-0.236083984375,-0.97540283203125,-0.16705322265625
1759847124939,970452606,61184,25,-0.234375,-0.98028564453125,-0.19390869140625
1759847124939,970452606,61184,26,-0.2373046875,-0.97930908203125,-0.19635009765625
1759847124939,970452606,61184,27,-0.2265625,-0.97589111328125,-0.19342041015625
1759847124939,970452606,61184,28,-0.20751953125,-0.98492431640625,-0.19195556640625
1759847124939,970452606,61184,29,-0.227294921875,-0.97613525390625,-0.19976806640625
1759847124939,970452606,61184,30,-0.22021484375,-0.98541259765625,-0.22052001953125
1759847124939,970452606,61184,31,-0.229736328125,-0.97247314453125,-0.20782470703125
1759847127459,970455149,61185,0,-0.192138671875,-0.98541259765625,-0.20806884765625
1759847127459,970455149,61185,1,-0.1953125,-0.98809814453125,-0.19879150390625
1759847127459,970455149,61185,2,-0.216064453125,-0.98199462890625,-0.19146728515625
1759847127459,970455149,61185,3,-0.21728515625,-0.98150634765625,-0.19586181640625
1759847127459,970455149,61185,4,-0.21875,-0.97711181640625,-0.19683837890625
1759847127459,970455149,61185,5,-0.223876953125,-0.98272705078125,-0.19512939453125
1759847127459,970455149,61185,6,-0.2041015625,-0.98052978515625,-0.19781494140625
1759847127459,970455149,61185,7,-0.195068359375,-0.97711181640625,-0.19415283203125
1759847127459,970455149,61185,8,-0.18994140625,-0.97955322265625,-0.19879150390625
1759847127459,970455149,61185,9,-0.199462890625,-0.98028564453125,-0.19708251953125
1759847127459,970455149,61185,10,-0.19775390625,-0.98614501953125,-0.19805908203125
1759847127459,970455149,61185,11,-0.20361328125,-0.97882080078125,-0.19659423828125
1759847127459,970455149,61185,12,-0.2080078125,-0.98687744140625,-0.20123291015625
1759847127459,970455149,61185,13,-0.200927734375,-0.98345947265625,-0.20587158203125
1759847127459,970455149,61185,14,-0.189453125,-0.99127197265625,-0.20269775390625
1759847127459,970455149,61185,15,-0.1953125,-0.97247314453125,-0.22247314453125
1759847127459,970455149,61185,16,-0.200439453125,-0.97052001953125,-0.21612548828125
1759847127459,970455149,61185,17,-0.20263671875,-0.97930908203125,-0.22344970703125
1759847127459,970455149,61185,18,-0.21435546875,-0.97564697265625,-0.21661376953125
1759847127459,970455149,61185,19,-0.208984375,-0.98443603515625,-0.21612548828125
1759847127459,970455149,61185,20,-0.208740234375,-0.97686767578125,-0.21124267578125
1759847127459,970455149,61185,21,-0.21044921875,-0.97540283203125,-0.21466064453125
1759847127459,970455149,61185,22,-0.210693359375,-0.98028564453125,-0.21441650390625
1759847127459,970455149,61185,23,-0.20263671875,-0.97930908203125,-0.21539306640625
1759847127459,970455149,61185,24,-0.206298828125,-0.99176025390625,-0.20001220703125
1759847127459,970455149,61185,25,-0.205810546875,-0.97369384765625,-0.22442626953125
1759847127459,970455149,61185,26,-0.21533203125,-0.97662353515625,-0.21051025390625
1759847127459,970455149,61185,27,-0.1904296875,-0.97735595703125,-0.20953369140625
1759847127459,970455149,61185,28,-0.203369140625,-0.98004150390625,-0.20147705078125
1759847127459,970455149,61185,29,-0.202880859375,-0.98541259765625,-0.20147705078125
1759847127459,970455149,61185,30,-0.204345703125,-0.97662353515625,-0.19952392578125
1759847127459,970455149,61185,31,-0.210205078125,-0.98760986328125,-0.19903564453125
1759847129979,970457693,61186,0,-0.206298828125,-0.98565673828125,-0.19342041015625
1759847129979,970457693,61186,1,-0.205078125,-0.97979736328125,-0.20367431640625
1759847129979,970457693,61186,2,-0.209228515625,-0.99371337890625,-0.20245361328125
1759847129979,970457693,61186,3,-0.20947265625,-0.97100830078125,-0.22735595703125
1759847129979,970457693,61186,4,-0.21923828125,-0.96929931640625,-0.22808837890625
1759847129979,970457693,61186,5,-0.21875,-0.97076416015625,-0.22222900390625
1759847129979,970457693,61186,6,-0.2060546875,-0.98272705078125,-0.21051025390625
1759847129979,970457693,61186,7,-0.20654296875,-0.98321533203125,-0.21441650390625
1759847129979,970457693,61186,8,-0.216064453125,-0.98614501953125,-0.20904541015625
1759847129979,970457693,61186,9,-0.2099609375,-0.97589111328125,-0.20977783203125
1759847129979,970457693,61186,10,-0.209228515625,-0.99029541015625,-0.19635009765625
1759847129979,970457693,61186,11,-0.216064453125,-0.96832275390625,-0.22027587890625
1759847129979,970457693,61186,12,-0.2119140625,-0.97882080078125,-0.23565673828125
1759847129979,970457693,61186,13,-0.21337890625,-0.96246337890625,-0.23590087890625
1759847129979,970457693,61186,14,-0.20751953125,-0.98101806640625,-0.22491455078125
1759847129979,970457693,61186,15,-0.20947265625,-0.97760009765625,-0.21832275390625
1759847129979,970457693,61186,16,-0.20263671875,-0.97735595703125,-0.22344970703125
1759847129979,970457693,61186,17,-0.208251953125,-0.97906494140625,-0.21856689453125
1759847129979,970457693,61186,18,-0.2119140625,-0.97686767578125,-0.21929931640625
1759847129979,970457693,61186,19,-0.204345703125,-0.97711181640625,-0.22076416015625
1759847129979,970457693,61186,20,-0.203369140625,-0.97613525390625,-0.21636962890625
1759847129979,970457693,61186,21,-0.205322265625,-0.97296142578125,-0.21759033203125
1759847129979,970457693,61186,22,-0.212646484375,-0.97613525390625,-0.21905517578125
1759847129979,970457693,61186,23,-0.22412109375,-0.97760009765625,-0.20709228515625
1759847129979,970457693,61186,24,-0.2294921875,-0.97271728515625,-0.21539306640625
1759847129979,970457693,61186,25,-0.237060546875,-0.97125244140625,-0.22271728515625
1759847129979,970457693,61186,26,-0.21923828125,-0.97296142578125,-0.22442626953125
1759847129979,970457693,61186,27,-0.214111328125,-0.97467041015625,-0.21905517578125
1759847129979,970457693,61186,28,-0.204833984375,-0.98565673828125,-0.21246337890625
1759847129979,970457693,61186,29,-0.212646484375,-0.98443603515625,-0.20001220703125
1759847129979,970457693,61186,30,-0.2216796875,-0.96954345703125,-0.22222900390625
1759847129979,970457693,61186,31,-0.21142578125,-0.97760009765625,-0.22613525390625
1759847132499,970460236,61187,0,-0.208740234375,-0.97076416015625,-0.22271728515625
1759847132499,970460236,61187,1,-0.209228515625,-0.97930908203125,-0.21319580078125
1759847132499,970460236,61187,2,-0.207763671875,-0.97662353515625,-0.21026611328125
1759847132499,970460236,61187,3,-0.214599609375,-0.98004150390625,-0.20416259765625
1759847132499,970460236,61187,4,-0.212646484375,-0.97515869140625,-0.20294189453125
1759847132499,970460236,61187,5,-0.22314453125,-0.97833251953125,-0.19781494140625
1759847132499,970460236,61187,6,-0.20751953125,-0.97247314453125,-0.21124267578125
1759847132499,970460236,61187,7,-0.218017578125,-0.97955322265625,-0.20635986328125
1759847132499,970460236,61187,8,-0.224609375,-0.98443603515625,-0.20074462890625
1759847132499,970460236,61187,9,-0.208984375,-0.98809814453125,-0.18780517578125
1759847132499,970460236,61187,10,-0.204345703125,-0.96881103515625,-0.20782470703125
1759847132499,970460236,61187,11,-0.254150390625,-0.97784423828125,-0.21929931640625
1759847132499,970460236,61187,12,-0.25439453125,-0.96929931640625,-0.21221923828125
1759847132499,970460236,61187,13,-0.221923828125,-0.97174072265625,-0.21002197265625
1759847132499,970460236,61187,14,-0.236083984375,-0.97149658203125,-0.21417236328125
1759847132499,970460236,61187,15,-0.24658203125,-0.97491455078125,-0.19927978515625
1759847132499,970460236,61187,16,-0.22412109375,-0.98126220703125,-0.20391845703125
1759847132499,970460236,61187,17,-0.212158203125,-0.97711181640625,-0.20245361328125
1759847132499,970460236,61187,18,-0.221923828125,-0.98516845703125,-0.20025634765625
1759847132499,970460236,61187,19,-0.214111328125,-0.98272705078125,-0.20294189453125
1759847132499,970460236,61187,20,-0.20849609375,-0.98150634765625,-0.19830322265625
1759847132499,970460236,61187,21,-0.22021484375,-0.98004150390625,-0.21148681640625
1759847132499,970460236,61187,22,-0.218017578125,-0.97149658203125,-0.21514892578125
1759847132499,970460236,61187,23,-0.21826171875,-0.96881103515625,-0.21295166015625
1759847132499,970460236,61187,24,-0.217529296875,-0.97174072265625,-0.21832275390625
1759847132499,970460236,61187,25,-0.218994140625,-0.98492431640625,-0.20904541015625
1759847132499,970460236,61187,26,-0.2021484375,-0.98199462890625,-0.19732666015625
1759847132499,970460236,61187,27,-0.202392578125,-0.98101806640625,-0.19293212890625
1759847132499,970460236,61187,28,-0.20751953125,-0.98077392578125,-0.19488525390625
1759847132499,970460236,61187,29,-0.20947265625,-0.98150634765625,-0.19610595703125
1759847132499,970460236,61187,30,-0.209716796875,-0.97979736328125,-0.19879150390625
1759847132499,970460236,61187,31,-0.20361328125,-0.98028564453125,-0.20391845703125
1759847135009,970462779,61188,0,-0.210205078125,-0.97906494140625,-0.19952392578125
1759847135009,970462779,61188,1,-0.21630859375,-0.98272705078125,-0.19610595703125
1759847135009,970462779,61188,2,-0.215087890625,-0.98004150390625,-0.20098876953125
1759847135009,970462779,61188,3,-0.22119140625,-0.97955322265625,-0.19659423828125
1759847135009,970462779,61188,4,-0.213623046875,-0.98516845703125,-0.19635009765625
1759847135009,970462779,61188,5,-0.2109375,-0.97955322265625,-0.19537353515625
1759847135009,970462779,61188,6,-0.20263671875,-0.98077392578125,-0.19537353515625
1759847135009,970462779,61188,7,-0.20361328125,-0.98663330078125,-0.19195556640625
1759847135009,970462779,61188,8,-0.210205078125,-0.98345947265625,-0.19097900390625
1759847135009,970462779,61188,9,-0.202392578125,-0.98541259765625,-0.19903564453125
1759847135009,970462779,61188,10,-0.197021484375,-0.98297119140625,-0.19317626953125
1759847135009,970462779,61188,11,-0.194091796875,-0.99102783203125,-0.19927978515625
1759847135009,970462779,61188,12,-0.20068359375,-0.97369384765625,-0.19708251953125
1759847135009,970462779,61188,13,-0.209228515625,-0.98004150390625,-0.19757080078125
1759847135009,970462779,61188,14,-0.21435546875,-0.98248291015625,-0.19488525390625
1759847135009,970462779,61188,15,-0.20166015625,-0.98199462890625,-0.19927978515625
1759847135009,970462779,61188,16,-0.20947265625,-0.98638916015625,-0.19683837890625
1759847135009,970462779,61188,17,-0.211181640625,-0.97564697265625,-0.19927978515625
1759847135009,970462779,61188,18,-0.202392578125,-0.98736572265625,-0.18975830078125
1759847135009,970462779,61188,19,-0.19970703125,-0.98614501953125,-0.18511962890625
1759847135009,970462779,61188,20,-0.20947265625,-0.99200439453125,-0.18145751953125
1759847135009,970462779,61188,21,-0.197998046875,-0.99029541015625,-0.18634033203125
1759847135009,970462779,61188,22,-0.196533203125,-0.97125244140625,-0.19488525390625
1759847135009,970462779,61188,23,-0.191650390625,-0.97271728515625,-0.20220947265625
1759847135009,970462779,61188,24,-0.20751953125,-0.98370361328125,-0.19952392578125
1759847135009,970462779,61188,25,-0.21240234375,-0.97735595703125,-0.21026611328125
1759847135009,970462779,61188,26,-0.2138671875,-0.98004150390625,-0.20050048828125
1759847135009,970462779,61188,27,-0.206787109375,-0.98809814453125,-0.19781494140625
1759847135009,970462779,61188,28,-0.1962890625,-0.98077392578125,-0.20343017578125
1759847135009,970462779,61188,29,-0.19921875,-0.98370361328125,-0.20245361328125
1759847135009,970462779,61188,30,-0.192138671875,-0.98223876953125,-0.20025634765625
1759847135009,970462779,61188,31,-0.1923828125,-0.99127197265625,-0.19927978515625
1759847137539,970465322,61189,0,-0.193115234375,-0.98736572265625,-0.19537353515625
1759847137539,970465322,61189,1,-0.20068359375,-0.98394775390625,-0.20904541015625
1759847137539,970465322,61189,2,-0.19482421875,-0.97076416015625,-0.21734619140625
1759847137539,970465322,61189,3,-0.20361328125,-0.96832275390625,-0.22393798828125
1759847137539,970465322,61189,4,-0.206787109375,-0.97882080078125,-0.21905517578125
1759847137539,970465322,61189,5,-0.215087890625,-0.98248291015625,-0.20635986328125
1759847137539,970465322,61189,6,-0.203369140625,-0.98785400390625,-0.19952392578125
1759847137539,970465322,61189,7,-0.20458984375,-0.98248291015625,-0.19976806640625
