receivedPhoneTimestamp,respeckTimestamp,packetSeqNum,sampleSeqNum,accelX,accelY,accelZ
1759339521572,527345541,7639,14,-0.07275390625,-0.18804931640625,0.97088623046875
1759339521572,527345541,7639,15,-0.073486328125,-0.14630126953125,0.89691162109375
1759339521572,527345541,7639,16,-0.09765625,-0.16217041015625,0.92645263671875
1759339521572,527345541,7639,17,-0.081787109375,-0.17974853515625,0.95599365234375
1759339521572,527345541,7639,18,-0.09619140625,-0.13018798828125,0.92449951171875
1759339521572,527345541,7639,19,-0.110595703125,-0.11773681640625,0.92327880859375
1759339521572,527345541,7639,20,-0.111572265625,-0.12066650390625,0.92742919921875
1759339521572,527345541,7639,21,-0.125244140625,-0.13726806640625,0.94696044921875
1759339521572,527345541,7639,22,-0.120849609375,-0.09869384765625,0.93011474609375
1759339521572,527345541,7639,23,-0.121826171875,-0.08233642578125,0.93060302734375
1759339521572,527345541,7639,24,-0.12841796875,-0.08453369140625,0.90863037109375
1759339521572,527345541,7639,25,-0.129638671875,-0.09991455078125,0.93353271484375
1759339521572,527345541,7639,26,-0.12646484375,-0.12237548828125,0.95379638671875
1759339521572,527345541,7639,27,-0.1171875,-0.10162353515625,0.92938232421875
1759339521572,527345541,7639,28,-0.114013671875,-0.10211181640625,0.92352294921875
1759339521572,527345541,7639,29,-0.126708984375,-0.12872314453125,0.93768310546875
1759339521572,527345541,7639,30,-0.115966796875,-0.11968994140625,0.93548583984375
1759339521572,527345541,7639,31,-0.112060546875,-0.11627197265625,0.93060302734375
1759339524102,527348120,7640,0,-0.109130859375,-0.13189697265625,0.93768310546875
1759339524102,527348120,7640,1,-0.111328125,-0.12213134765625,0.93035888671875
1759339524102,527348120,7640,2,-0.109375,-0.13580322265625,0.93963623046875
1759339524102,527348120,7640,3,-0.10498046875,-0.12969970703125,0.93182373046875
1759339524102,527348120,7640,4,-0.10791015625,-0.13360595703125,0.93499755859375
1759339524102,527348120,7640,5,-0.10498046875,-0.13140869140625,0.93084716796875
1759339524102,527348120,7640,6,-0.10498046875,-0.13043212890625,0.93499755859375
1759339524102,527348120,7640,7,-0.109619140625,-0.13580322265625,0.93719482421875
1759339524102,527348120,7640,8,-0.10498046875,-0.13385009765625,0.92962646484375
1759339524102,527348120,7640,9,-0.105712890625,-0.14434814453125,0.93963623046875
1759339524102,527348120,7640,10,-0.10888671875,-0.12969970703125,0.93084716796875
1759339524102,527348120,7640,11,-0.09814453125,-0.14166259765625,0.93035888671875
1759339524102,527348120,7640,12,-0.10595703125,-0.14288330078125,0.93963623046875
1759339524102,527348120,7640,13,-0.102783203125,-0.14288330078125,0.93377685546875
1759339524102,527348120,7640,14,-0.099609375,-0.13214111328125,0.92840576171875
1759339524102,527348120,7640,15,-0.10498046875,-0.14752197265625,0.93231201171875
1759339524102,527348120,7640,16,-0.099609375,-0.14361572265625,0.93988037109375
1759339524102,527348120,7640,17,-0.09912109375,-0.13946533203125,0.92205810546875
1759339524102,527348120,7640,18,-0.099609375,-0.15484619140625,0.93646240234375
1759339524102,527348120,7640,19,-0.0927734375,-0.14971923828125,0.93475341796875
1759339524102,527348120,7640,20,-0.09033203125,-0.15557861328125,0.94110107421875
1759339524102,527348120,7640,21,-0.096435546875,-0.15533447265625,0.93035888671875
1759339524102,527348120,7640,22,-0.09130859375,-0.15289306640625,0.93084716796875
1759339524102,527348120,7640,23,-0.09033203125,-0.15216064453125,0.93084716796875
1759339524102,527348120,7640,24,-0.08642578125,-0.15972900390625,0.93133544921875
1759339524102,527348120,7640,25,-0.086669921875,-0.15606689453125,0.93450927734375
1759339524102,527348120,7640,26,-0.0849609375,-0.15411376953125,0.93328857421875
1759339524102,527348120,7640,27,-0.09130859375,-0.15386962890625,0.92230224609375
1759339524102,527348120,7640,28,-0.0869140625,-0.16729736328125,0.94598388671875
1759339524102,527348120,7640,29,-0.08544921875,-0.15582275390625,0.93011474609375
1759339524102,527348120,7640,30,-0.082275390625,-0.16436767578125,0.93792724609375
1759339524102,527348120,7640,31,-0.087646484375,-0.16363525390625,0.93621826171875
1759339526802,527350699,7641,0,-0.091064453125,-0.13970947265625,0.93524169921875
1759339526802,527350699,7641,1,-0.10693359375,-0.14630126953125,0.93719482421875
1759339526802,527350699,7641,2,-0.101318359375,-0.13970947265625,0.92767333984375
1759339526802,527350699,7641,3,-0.112060546875,-0.11212158203125,0.92889404296875
1759339526802,527350699,7641,4,-0.118896484375,-0.11676025390625,0.93402099609375
1759339526802,527350699,7641,5,-0.118408203125,-0.11651611328125,0.92425537109375
1759339526802,527350699,7641,6,-0.12060546875,-0.10186767578125,0.91448974609375
1759339526802,527350699,7641,7,-0.115478515625,-0.10601806640625,0.93646240234375
1759339526802,527350699,7641,8,-0.1201171875,-0.13018798828125,0.95159912109375
1759339526802,527350699,7641,9,-0.10546875,-0.12652587890625,0.92913818359375
1759339526802,527350699,7641,10,-0.10888671875,-0.12628173828125,0.93304443359375
1759339526802,527350699,7641,11,-0.11181640625,-0.12359619140625,0.92547607421875
1759339526802,527350699,7641,12,-0.103271484375,-0.12872314453125,0.93353271484375
1759339526802,527350699,7641,13,-0.11279296875,-0.13946533203125,0.94329833984375
1759339526802,527350699,7641,14,-0.108154296875,-0.13385009765625,0.92840576171875
1759339526802,527350699,7641,15,-0.10009765625,-0.12530517578125,0.92620849609375
1759339526802,527350699,7641,16,-0.107666015625,-0.14532470703125,0.94012451171875
1759339526802,527350699,7641,17,-0.099609375,-0.12872314453125,0.93304443359375
1759339526802,527350699,7641,18,-0.105224609375,-0.14019775390625,0.93206787109375
1759339526802,527350699,7641,19,-0.09814453125,-0.14727783203125,0.92864990234375
1759339526802,527350699,7641,20,-0.101318359375,-0.14410400390625,0.93865966796875
1759339526802,527350699,7641,21,-0.098388671875,-0.14190673828125,0.93426513671875
1759339526802,527350699,7641,22,-0.098388671875,-0.14825439453125,0.92889404296875
1759339526802,527350699,7641,23,-0.09814453125,-0.14923095703125,0.93426513671875
1759339526802,527350699,7641,24,-0.098388671875,-0.14459228515625,0.93426513671875
1759339526802,527350699,7641,25,-0.090576171875,-0.14971923828125,0.92864990234375
1759339526802,527350699,7641,26,-0.093017578125,-0.15997314453125,0.93817138671875
1759339526802,527350699,7641,27,-0.087158203125,-0.15264892578125,0.93157958984375
1759339526802,527350699,7641,28,-0.088623046875,-0.16119384765625,0.93450927734375
1759339526802,527350699,7641,29,-0.083251953125,-0.16314697265625,0.93280029296875
1759339526802,527350699,7641,30,-0.08837890625,-0.15704345703125,0.93011474609375
1759339526802,527350699,7641,31,-0.08447265625,-0.16168212890625,0.92938232421875
1759339529322,527353278,7642,0,-0.0849609375,-0.16387939453125,0.93377685546875
1759339529322,527353278,7642,1,-0.0849609375,-0.16070556640625,0.93035888671875
1759339529322,527353278,7642,2,-0.08203125,-0.16387939453125,0.93499755859375
1759339529322,527353278,7642,3,-0.080078125,-0.16290283203125,0.92572021484375
1759339529322,527353278,7642,4,-0.084716796875,-0.17022705078125,0.93597412109375
1759339529322,527353278,7642,5,-0.073486328125,-0.16436767578125,0.92694091796875
1759339529322,527353278,7642,6,-0.076171875,-0.17242431640625,0.93743896484375
1759339529322,527353278,7642,7,-0.074462890625,-0.17047119140625,0.93402099609375
1759339529322,527353278,7642,8,-0.07421875,-0.16802978515625,0.92962646484375
1759339529322,527353278,7642,9,-0.080810546875,-0.17413330078125,0.93499755859375
1759339529322,527353278,7642,10,-0.074462890625,-0.17071533203125,0.93084716796875
1759339529322,527353278,7642,11,-0.072998046875,-0.17120361328125,0.93402099609375
1759339529322,527353278,7642,12,-0.075439453125,-0.17388916015625,0.93035888671875
1759339529322,527353278,7642,13,-0.0693359375,-0.16949462890625,0.93060302734375
1759339529322,527353278,7642,14,-0.079833984375,-0.16680908203125,0.93182373046875
1759339529322,527353278,7642,15,-0.08203125,-0.16827392578125,0.92742919921875
1759339529322,527353278,7642,16,-0.074462890625,-0.16632080078125,0.92938232421875
1759339529322,527353278,7642,17,-0.07373046875,-0.17266845703125,0.93353271484375
1759339529322,527353278,7642,18,-0.0732421875,-0.16534423828125,0.93426513671875
1759339529322,527353278,7642,19,-0.07568359375,-0.16192626953125,0.92938232421875
1759339529322,527353278,7642,20,-0.07421875,-0.16729736328125,0.93060302734375
1759339529322,527353278,7642,21,-0.075927734375,-0.16876220703125,0.93426513671875
1759339529322,527353278,7642,22,-0.080078125,-0.16558837890625,0.92864990234375
1759339529322,527353278,7642,23,-0.07666015625,-0.16192626953125,0.92279052734375
1759339529322,527353278,7642,24,-0.080078125,-0.16949462890625,0.93768310546875
1759339529322,527353278,7642,25,-0.08154296875,-0.15850830078125,0.93109130859375
1759339529322,527353278,7642,26,-0.08349609375,-0.16534423828125,0.93450927734375
1759339529322,527353278,7642,27,-0.08056640625,-0.16265869140625,0.92718505859375
1759339529322,527353278,7642,28,-0.083251953125,-0.16143798828125,0.93109130859375
1759339529322,527353278,7642,29,-0.08203125,-0.15924072265625,0.93035888671875
1759339529322,527353278,7642,30,-0.077880859375,-0.16632080078125,0.93426513671875
1759339529322,527353278,7642,31,-0.07958984375,-0.16534423828125,0.93377685546875
1759339531843,527355857,7643,0,-0.080078125,-0.16046142578125,0.93157958984375
1759339531843,527355857,7643,1,-0.079345703125,-0.16583251953125,0.93353271484375
1759339531843,527355857,7643,2,-0.0810546875,-0.16583251953125,0.93939208984375
1759339531843,527355857,7643,3,-0.08984375,-0.14947509765625,0.93231201171875
1759339531843,527355857,7643,4,-0.08984375,-0.15899658203125,0.93255615234375
1759339531843,527355857,7643,5,-0.093994140625,-0.15045166015625,0.93670654296875
1759339531843,527355857,7643,6,-0.097412109375,-0.13922119140625,0.93524169921875
1759339531843,527355857,7643,7,-0.103759765625,-0.13580322265625,0.92913818359375
1759339531843,527355857,7643,8,-0.103271484375,-0.13653564453125,0.93133544921875
1759339531843,527355857,7643,9,-0.111328125,-0.12652587890625,0.93792724609375
1759339531843,527355857,7643,10,-0.111572265625,-0.11895751953125,0.92962646484375
1759339531843,527355857,7643,11,-0.122314453125,-0.12237548828125,0.93695068359375
1759339531843,527355857,7643,12,-0.12109375,-0.10333251953125,0.93084716796875
1759339531843,527355857,7643,13,-0.128662109375,-0.10064697265625,0.93914794921875
1759339531843,527355857,7643,14,-0.1279296875,-0.10064697265625,0.92962646484375
1759339531843,527355857,7643,15,-0.136474609375,-0.09039306640625,0.93646240234375
1759339531843,527355857,7643,16,-0.138671875,-0.08331298828125,0.93206787109375
1759339531843,527355857,7643,17,-0.145263671875,-0.08087158203125,0.93328857421875
1759339531843,527355857,7643,18,-0.144287109375,-0.07427978515625,0.93475341796875
1759339531843,527355857,7643,19,-0.148681640625,-0.06719970703125,0.93353271484375
1759339531843,527355857,7643,20,-0.146484375,-0.06744384765625,0.91668701171875
1759339531843,527355857,7643,21,-0.148681640625,-0.06671142578125,0.92425537109375
1759339531843,527355857,7643,22,-0.14697265625,-0.08697509765625,0.95404052734375
1759339531843,527355857,7643,23,-0.125244140625,-0.10308837890625,0.93792724609375
1759339531843,527355857,7643,24,-0.119873046875,-0.07940673828125,0.93231201171875
1759339531843,527355857,7643,25,-0.14453125,-0.09722900390625,0.93304443359375
1759339531843,527355857,7643,26,-0.1318359375,-0.09088134765625,0.92938232421875
1759339531843,527355857,7643,27,-0.136474609375,-0.10723876953125,0.94403076171875
1759339531843,527355857,7643,28,-0.129150390625,-0.08673095703125,0.92694091796875
1759339531843,527355857,7643,29,-0.1181640625,-0.09942626953125,0.93109130859375
1759339531843,527355857,7643,30,-0.126953125,-0.11944580078125,0.94647216796875
1759339531843,527355857,7643,31,-0.131103515625,-0.09356689453125,0.94036865234375
1759339534543,527358436,7644,0,-0.12744140625,-0.10308837890625,0.93206787109375
1759339534543,527358436,7644,1,-0.121337890625,-0.11309814453125,0.92669677734375
1759339534543,527358436,7644,2,-0.12548828125,-0.11480712890625,0.94158935546875
1759339534543,527358436,7644,3,-0.119140625,-0.10113525390625,0.93572998046875
1759339534543,527358436,7644,4,-0.123291015625,-0.10992431640625,0.92962646484375
1759339534543,527358436,7644,5,-0.12890625,-0.11309814453125,0.92962646484375
1759339534543,527358436,7644,6,-0.118408203125,-0.11968994140625,0.93695068359375
1759339534543,527358436,7644,7,-0.118408203125,-0.12066650390625,0.93621826171875
1759339534543,527358436,7644,8,-0.116943359375,-0.12384033203125,0.93353271484375
1759339534543,527358436,7644,9,-0.117919921875,-0.11236572265625,0.93792724609375
1759339534543,527358436,7644,10,-0.115234375,-0.12750244140625,0.93841552734375
1759339534543,527358436,7644,11,-0.113525390625,-0.11993408203125,0.93450927734375
1759339534543,527358436,7644,12,-0.112060546875,-0.12652587890625,0.93914794921875
1759339534543,527358436,7644,13,-0.108642578125,-0.12799072265625,0.92962646484375
1759339534543,527358436,7644,14,-0.11376953125,-0.12994384765625,0.93304443359375
1759339534543,527358436,7644,15,-0.110595703125,-0.13165283203125,0.93914794921875
1759339534543,527358436,7644,16,-0.107177734375,-0.12969970703125,0.92254638671875
1759339534543,527358436,7644,17,-0.10986328125,-0.13677978515625,0.93865966796875
1759339534543,527358436,7644,18,-0.10400390625,-0.13336181640625,0.93621826171875
1759339534543,527358436,7644,19,-0.109619140625,-0.13507080078125,0.93255615234375
1759339534543,527358436,7644,20,-0.102783203125,-0.14166259765625,0.93133544921875
1759339534543,527358436,7644,21,-0.103759765625,-0.13189697265625,0.93670654296875
1759339534543,527358436,7644,22,-0.1103515625,-0.13970947265625,0.92864990234375
1759339534543,527358436,7644,23,-0.0947265625,-0.13067626953125,0.92376708984375
1759339534543,527358436,7644,24,-0.10888671875,-0.14703369140625,0.93743896484375
1759339534543,527358436,7644,25,-0.098876953125,-0.13824462890625,0.93841552734375
1759339534543,527358436,7644,26,-0.099365234375,-0.14190673828125,0.92279052734375
1759339534543,527358436,7644,27,-0.09814453125,-0.15142822265625,0.94036865234375
1759339534543,527358436,7644,28,-0.091064453125,-0.14044189453125,0.93426513671875
1759339534543,527358436,7644,29,-0.097900390625,-0.15484619140625,0.93792724609375
1759339534543,527358436,7644,30,-0.09375,-0.14996337890625,0.92987060546875
1759339534543,527358436,7644,31,-0.09375,-0.14678955078125,0.93304443359375
1759339537062,527361016,7645,0,-0.0966796875,-0.15069580078125,0.93865966796875
1759339537062,527361016,7645,1,-0.09423828125,-0.15802001953125,0.94671630859375
1759339537062,527361016,7645,2,-0.10009765625,-0.13604736328125,0.92742919921875
1759339537062,527361016,7645,3,-0.100830078125,-0.14556884765625,0.93450927734375
1759339537062,527361016,7645,4,-0.099609375,-0.14019775390625,0.93865966796875
1759339537062,527361016,7645,5,-0.11083984375,-0.12750244140625,0.93988037109375
1759339537062,527361016,7645,6,-0.115234375,-0.11871337890625,0.93499755859375
1759339537062,527361016,7645,7,-0.118408203125,-0.11773681640625,0.93450927734375
1759339537062,527361016,7645,8,-0.12255859375,-0.10235595703125,0.93475341796875
1759339537062,527361016,7645,9,-0.130126953125,-0.09942626953125,0.93670654296875
1759339537062,527361016,7645,10,-0.13671875,-0.08966064453125,0.92645263671875
1759339537062,527361016,7645,11,-0.135498046875,-0.08990478515625,0.92742919921875
1759339537062,527361016,7645,12,-0.13623046875,-0.08160400390625,0.92767333984375
1759339537062,527361016,7645,13,-0.12890625,-0.08551025390625,0.92669677734375
1759339537062,527361016,7645,14,-0.12939453125,-0.10772705078125,0.93621826171875
1759339537062,527361016,7645,15,-0.128173828125,-0.10943603515625,0.94793701171875
1759339537062,527361016,7645,16,-0.127197265625,-0.10870361328125,0.93182373046875
1759339537062,527361016,7645,17,-0.115234375,-0.11187744140625,0.92987060546875
1759339537062,527361016,7645,18,-0.12744140625,-0.11773681640625,0.93939208984375
1759339537062,527361016,7645,19,-0.1171875,-0.10894775390625,0.93548583984375
1759339537062,527361016,7645,20,-0.12158203125,-0.12042236328125,0.93426513671875
1759339537062,527361016,7645,21,-0.12060546875,-0.11968994140625,0.93328857421875
1759339537062,527361016,7645,22,-0.11376953125,-0.11480712890625,0.93353271484375
1759339537062,527361016,7645,23,-0.113525390625,-0.11700439453125,0.92962646484375
1759339537062,527361016,7645,24,-0.11279296875,-0.13165283203125,0.93768310546875
1759339537062,527361016,7645,25,-0.112548828125,-0.12554931640625,0.93475341796875
1759339537062,527361016,7645,26,-0.110107421875,-0.13116455078125,0.93719482421875
1759339537062,527361016,7645,27,-0.107666015625,-0.13458251953125,0.93109130859375
1759339537062,527361016,7645,28,-0.1064453125,-0.12994384765625,0.93792724609375
1759339537062,527361016,7645,29,-0.107666015625,-0.13311767578125,0.93084716796875
1759339537062,527361016,7645,30,-0.1103515625,-0.14068603515625,0.93597412109375
1759339537062,527361016,7645,31,-0.102783203125,-0.13360595703125,0.93255615234375
1759339539582,527363595,7646,0,-0.10498046875,-0.13507080078125,0.93548583984375
1759339539582,527363595,7646,1,-0.105712890625,-0.13189697265625,0.93402099609375
1759339539582,527363595,7646,2,-0.10888671875,-0.14630126953125,0.93328857421875
1759339539582,527363595,7646,3,-0.102783203125,-0.13507080078125,0.93719482421875
1759339539582,527363595,7646,4,-0.093017578125,-0.15289306640625,0.92889404296875
1759339539582,527363595,7646,5,-0.093994140625,-0.14337158203125,0.92523193359375
1759339539582,527363595,7646,6,-0.101318359375,-0.15411376953125,0.93865966796875
1759339539582,527363595,7646,7,-0.091552734375,-0.14898681640625,0.93865966796875
1759339539582,527363595,7646,8,-0.090576171875,-0.15582275390625,0.93621826171875
1759339539582,527363595,7646,9,-0.093017578125,-0.15289306640625,0.93133544921875
1759339539582,527363595,7646,10,-0.087158203125,-0.15460205078125,0.93304443359375
1759339539582,527363595,7646,11,-0.095458984375,-0.15533447265625,0.92938232421875
1759339539582,527363595,7646,12,-0.086669921875,-0.16094970703125,0.93646240234375
1759339539582,527363595,7646,13,-0.088134765625,-0.15069580078125,0.92669677734375
1759339539582,527363595,7646,14,-0.080078125,-0.16412353515625,0.93182373046875
1759339539582,527363595,7646,15,-0.0859375,-0.16534423828125,0.93597412109375
1759339539582,527363595,7646,16,-0.091552734375,-0.15533447265625,0.93402099609375
1759339539582,527363595,7646,17,-0.0869140625,-0.15093994140625,0.93475341796875
1759339539582,527363595,7646,18,-0.095458984375,-0.15289306640625,0.93353271484375
1759339539582,527363595,7646,19,-0.09326171875,-0.14727783203125,0.94158935546875
1759339539582,527363595,7646,20,-0.09521484375,-0.14141845703125,0.93499755859375
1759339539582,527363595,7646,21,-0.10498046875,-0.13238525390625,0.93377685546875
1759339539582,527363595,7646,22,-0.108642578125,-0.11944580078125,0.92547607421875
1759339539582,527363595,7646,23,-0.105712890625,-0.11871337890625,0.91986083984375
1759339539582,527363595,7646,24,-0.106201171875,-0.13629150390625,0.93817138671875
1759339539582,527363595,7646,25,-0.11279296875,-0.13653564453125,0.94183349609375
1759339539582,527363595,7646,26,-0.100830078125,-0.13458251953125,0.93597412109375
1759339539582,527363595,7646,27,-0.09521484375,-0.13067626953125,0.92791748046875
1759339539582,527363595,7646,28,-0.1015625,-0.14849853515625,0.93450927734375
1759339539582,527363595,7646,29,-0.100341796875,-0.13653564453125,0.93426513671875
1759339539582,527363595,7646,30,-0.103515625,-0.13531494140625,0.92596435546875
1759339539582,527363595,7646,31,-0.10791015625,-0.14801025390625,0.93524169921875
1759339542272,527366174,7647,0,-0.095458984375,-0.13922119140625,0.93035888671875
1759339542272,527366174,7647,1,-0.09326171875,-0.14752197265625,0.94378662109375
1759339542272,527366174,7647,2,-0.095703125,-0.15435791015625,0.92791748046875
1759339542272,527366174,7647,3,-0.091552734375,-0.14923095703125,0.93182373046875
1759339542272,527366174,7647,4,-0.09228515625,-0.14752197265625,0.93377685546875
1759339542272,527366174,7647,5,-0.093017578125,-0.15240478515625,0.93206787109375
1759339542272,527366174,7647,6,-0.092529296875,-0.15338134765625,0.93035888671875
1759339542272,527366174,7647,7,-0.08984375,-0.15142822265625,0.93572998046875
1759339542272,527366174,7647,8,-0.08544921875,-0.15313720703125,0.92523193359375
1759339542272,527366174,7647,9,-0.08642578125,-0.15997314453125,0.93572998046875
1759339542272,527366174,7647,10,-0.08056640625,-0.16949462890625,0.93426513671875
1759339542272,527366174,7647,11,-0.086669921875,-0.16143798828125,0.93304443359375
1759339542272,527366174,7647,12,-0.080078125,-0.16558837890625,0.92864990234375
1759339542272,527366174,7647,13,-0.077880859375,-0.17047119140625,0.93524169921875
1759339542272,527366174,7647,14,-0.0859375,-0.16046142578125,0.92791748046875
1759339542272,527366174,7647,15,-0.0732421875,-0.17095947265625,0.94232177734375
1759339542272,527366174,7647,16,-0.080078125,-0.15826416015625,0.92547607421875
1759339542272,527366174,7647,17,-0.0859375,-0.15924072265625,0.93109130859375
1759339542272,527366174,7647,18,-0.07373046875,-0.16802978515625,0.93157958984375
1759339542272,527366174,7647,19,-0.078857421875,-0.15850830078125,0.93060302734375
1759339542272,527366174,7647,20,-0.076416015625,-0.16998291015625,0.93426513671875
1759339542272,527366174,7647,21,-0.07177734375,-0.16070556640625,0.92718505859375
1759339542272,527366174,7647,22,-0.07373046875,-0.17559814453125,0.93060302734375
1759339542272,527366174,7647,23,-0.0712890625,-0.16949462890625,0.93084716796875
1759339542272,527366174,7647,24,-0.069580078125,-0.17437744140625,0.93475341796875
1759339542272,527366174,7647,25,-0.068359375,-0.17266845703125,0.93060302734375
1759339542272,527366174,7647,26,-0.066162109375,-0.17681884765625,0.93499755859375
1759339542272,527366174,7647,27,-0.067626953125,-0.17681884765625,0.93475341796875
1759339542272,527366174,7647,28,-0.066650390625,-0.17877197265625,0.93157958984375
1759339542272,527366174,7647,29,-0.06591796875,-0.17388916015625,0.91961669921875
1759339542272,527366174,7647,30,-0.06591796875,-0.18927001953125,0.93695068359375
1759339542272,527366174,7647,31,-0.060302734375,-0.17657470703125,0.93084716796875
1759339544801,527368753,7648,0,-0.06396484375,-0.18072509765625,0.92913818359375
1759339544801,527368753,7648,1,-0.06591796875,-0.18511962890625,0.93182373046875
1759339544801,527368753,7648,2,-0.066650390625,-0.18096923828125,0.93182373046875
1759339544801,527368753,7648,3,-0.06494140625,-0.17413330078125,0.92889404296875
1759339544801,527368753,7648,4,-0.06640625,-0.18218994140625,0.93060302734375
1759339544801,527368753,7648,5,-0.068603515625,-0.17901611328125,0.93304443359375
1759339544801,527368753,7648,6,-0.065185546875,-0.17681884765625,0.93084716796875
1759339544801,527368753,7648,7,-0.0712890625,-0.17462158203125,0.92596435546875
1759339544801,527368753,7648,8,-0.070556640625,-0.17706298828125,0.93060302734375
1759339544801,527368753,7648,9,-0.06591796875,-0.16876220703125,0.93377685546875
1759339544801,527368753,7648,10,-0.067626953125,-0.17535400390625,0.93182373046875
1759339544801,527368753,7648,11,-0.067626953125,-0.18316650390625,0.93035888671875
1759339544801,527368753,7648,12,-0.069091796875,-0.17681884765625,0.92889404296875
1759339544801,527368753,7648,13,-0.068359375,-0.17462158203125,0.93133544921875
1759339544801,527368753,7648,14,-0.06591796875,-0.18511962890625,0.92938232421875
1759339544801,527368753,7648,15,-0.06982421875,-0.18072509765625,0.93377685546875
1759339544801,527368753,7648,16,-0.067626953125,-0.17120361328125,0.91815185546875
1759339544801,527368753,7648,17,-0.0703125,-0.18927001953125,0.93695068359375
1759339544801,527368753,7648,18,-0.06689453125,-0.17315673828125,0.92694091796875
1759339544801,527368753,7648,19,-0.068603515625,-0.18145751953125,0.93328857421875
1759339544801,527368753,7648,20,-0.064697265625,-0.18316650390625,0.93011474609375
1759339544801,527368753,7648,21,-0.067626953125,-0.17950439453125,0.92962646484375
1759339544801,527368753,7648,22,-0.072265625,-0.17462158203125,0.92791748046875
1759339544801,527368753,7648,23,-0.067138671875,-0.18414306640625,0.93524169921875
1759339544801,527368753,7648,24,-0.06884765625,-0.17315673828125,0.93206787109375
1759339544801,527368753,7648,25,-0.073974609375,-0.17730712890625,0.93524169921875
1759339544801,527368753,7648,26,-0.0751953125,-0.17120361328125,0.92889404296875
1759339544801,527368753,7648,27,-0.083984375,-0.16387939453125,0.93328857421875
1759339544801,527368753,7648,28,-0.08349609375,-0.16143798828125,0.93475341796875
1759339544801,527368753,7648,29,-0.08984375,-0.15411376953125,0.93670654296875
1759339544801,527368753,7648,30,-0.09765625,-0.14410400390625,0.92889404296875
1759339544801,527368753,7648,31,-0.104248046875,-0.13726806640625,0.93035888671875
1759339547324,527371332,7649,0,-0.103271484375,-0.13507080078125,0.93621826171875
1759339547324,527371332,7649,1,-0.112548828125,-0.12335205078125,0.93450927734375
1759339547324,527371332,7649,2,-0.11572265625,-0.12286376953125,0.93719482421875
1759339547324,527371332,7649,3,-0.1171875,-0.10284423828125,0.91815185546875
1759339547324,527371332,7649,4,-0.116943359375,-0.10845947265625,0.92059326171875
1759339547324,527371332,7649,5,-0.11474609375,-0.12408447265625,0.94232177734375
1759339547324,527371332,7649,6,-0.118408203125,-0.13287353515625,0.93890380859375
1759339547324,527371332,7649,7,-0.091552734375,-0.12847900390625,0.93304443359375
1759339547324,527371332,7649,8,-0.1005859375,-0.14117431640625,0.93377685546875
1759339547324,527371332,7649,9,-0.10888671875,-0.13336181640625,0.92913818359375
1759339547324,527371332,7649,10,-0.10107421875,-0.13897705078125,0.93304443359375
1759339547324,527371332,7649,11,-0.10693359375,-0.14361572265625,0.93792724609375
1759339547324,527371332,7649,12,-0.09912109375,-0.13702392578125,0.93206787109375
1759339547324,527371332,7649,13,-0.093017578125,-0.14703369140625,0.93133544921875
1759339547324,527371332,7649,14,-0.09765625,-0.14971923828125,0.93743896484375
1759339547324,527371332,7649,15,-0.101318359375,-0.13775634765625,0.93035888671875
1759339547324,527371332,7649,16,-0.09716796875,-0.15093994140625,0.92816162109375
1759339547324,527371332,7649,17,-0.091552734375,-0.14874267578125,0.93450927734375
1759339547324,527371332,7649,18,-0.09326171875,-0.14605712890625,0.93646240234375
1759339547324,527371332,7649,19,-0.09228515625,-0.14898681640625,0.92523193359375
1759339547324,527371332,7649,20,-0.089599609375,-0.15606689453125,0.93255615234375
1759339547324,527371332,7649,21,-0.09375,-0.14630126953125,0.93157958984375
1759339547324,527371332,7649,22,-0.091064453125,-0.16192626953125,0.93450927734375
1759339547324,527371332,7649,23,-0.087646484375,-0.15313720703125,0.93572998046875
1759339547324,527371332,7649,24,-0.09326171875,-0.15338134765625,0.93597412109375
1759339547324,527371332,7649,25,-0.088134765625,-0.15313720703125,0.92694091796875
1759339547324,527371332,7649,26,-0.084716796875,-0.15264892578125,0.92840576171875
1759339547324,527371332,7649,27,-0.085205078125,-0.16265869140625,0.94036865234375
1759339547324,527371332,7649,28,-0.08203125,-0.16046142578125,0.93182373046875
1759339547324,527371332,7649,29,-0.082275390625,-0.15802001953125,0.92254638671875
1759339547324,527371332,7649,30,-0.080810546875,-0.17071533203125,0.93988037109375
1759339547324,527371332,7649,31,-0.080078125,-0.15802001953125,0.92864990234375
1759339550012,527373911,7650,0,-0.07763671875,-0.16949462890625,0.93304443359375
1759339550012,527373911,7650,1,-0.08056640625,-0.16485595703125,0.92962646484375
1759339550012,527373911,7650,2,-0.080322265625,-0.16900634765625,0.93597412109375
1759339550012,527373911,7650,3,-0.074951171875,-0.16900634765625,0.93328857421875
1759339550012,527373911,7650,4,-0.07958984375,-0.16070556640625,0.92205810546875
1759339550012,527373911,7650,5,-0.075439453125,-0.17584228515625,0.93426513671875
1759339550012,527373911,7650,6,-0.074951171875,-0.17047119140625,0.93499755859375
1759339550012,527373911,7650,7,-0.07275390625,-0.16876220703125,0.92523193359375
1759339550012,527373911,7650,8,-0.072265625,-0.17633056640625,0.93304443359375
1759339550012,527373911,7650,9,-0.069580078125,-0.17437744140625,0.93206787109375
1759339550012,527373911,7650,10,-0.071533203125,-0.17852783203125,0.93524169921875
1759339550012,527373911,7650,11,-0.067626953125,-0.18072509765625,0.92694091796875
1759339550012,527373911,7650,12,-0.068115234375,-0.17852783203125,0.92718505859375
1759339550012,527373911,7650,13,-0.070556640625,-0.17608642578125,0.92572021484375
1759339550012,527373911,7650,14,-0.0654296875,-0.18292236328125,0.93280029296875
1759339550012,527373911,7650,15,-0.066650390625,-0.17755126953125,0.92816162109375
1759339550012,527373911,7650,16,-0.067626953125,-0.18072509765625,0.92938232421875
1759339550012,527373911,7650,17,-0.063720703125,-0.18560791015625,0.93524169921875
1759339550012,527373911,7650,18,-0.065673828125,-0.17755126953125,0.91790771484375
1759339550012,527373911,7650,19,-0.0615234375,-0.19024658203125,0.93572998046875
1759339550012,527373911,7650,20,-0.056396484375,-0.17852783203125,0.92742919921875
1759339550012,527373911,7650,21,-0.06640625,-0.19244384765625,0.92962646484375
1759339550012,527373911,7650,22,-0.0595703125,-0.18463134765625,0.93646240234375
1759339550012,527373911,7650,23,-0.067626953125,-0.18341064453125,0.92303466796875
1759339550012,527373911,7650,24,-0.067138671875,-0.18145751953125,0.92254638671875
1759339550012,527373911,7650,25,-0.061767578125,-0.19537353515625,0.93475341796875
1759339550012,527373911,7650,26,-0.0625,-0.18267822265625,0.93328857421875
1759339550012,527373911,7650,27,-0.062744140625,-0.19317626953125,0.93084716796875
1759339550012,527373911,7650,28,-0.05712890625,-0.18780517578125,0.92279052734375
1759339550012,527373911,7650,29,-0.064697265625,-0.19635009765625,0.93182373046875
1759339550012,527373911,7650,30,-0.05615234375,-0.18585205078125,0.92376708984375
1759339550012,527373911,7650,31,-0.061767578125,-0.19561767578125,0.93572998046875
