receivedPhoneTimestamp,respeckTimestamp,packetSeqNum,sampleSeqNum,accelX,accelY,accelZ
1759673352490,801373948,7521,24,0.748046875,-0.05767822265625,0.55023193359375
1759673352490,801373948,7521,25,0.74853515625,-0.06182861328125,0.55389404296875
1759673352490,801373948,7521,26,0.74755859375,-0.05474853515625,0.54730224609375
1759673352490,801373948,7521,27,0.74560546875,-0.04498291015625,0.56341552734375
1759673352490,801373948,7521,28,0.74462890625,-0.06280517578125,0.56536865234375
1759673352490,801373948,7521,29,0.73974609375,-0.05914306640625,0.56414794921875
1759673352490,801373948,7521,30,0.7451171875,-0.05499267578125,0.57122802734375
1759673352490,801373948,7521,31,0.73681640625,-0.04986572265625,0.55877685546875
1759673355041,801376527,7522,0,0.7421875,-0.05792236328125,0.55706787109375
1759673355041,801376527,7522,1,0.7587890625,-0.05841064453125,0.54876708984375
1759673355041,801376527,7522,2,0.754638671875,-0.06256103515625,0.55096435546875
1759673355041,801376527,7522,3,0.759033203125,-0.06842041015625,0.53143310546875
1759673355041,801376527,7522,4,0.74462890625,-0.04132080078125,0.55706787109375
1759673355041,801376527,7522,5,0.73583984375,-0.04986572265625,0.55267333984375
1759673355041,801376527,7522,6,0.769287109375,-0.04864501953125,0.54730224609375
1759673355041,801376527,7522,7,0.763916015625,-0.05303955078125,0.53973388671875
1759673355041,801376527,7522,8,0.76318359375,-0.05328369140625,0.54022216796875
1759673355041,801376527,7522,9,0.739013671875,-0.04791259765625,0.54803466796875
1759673355041,801376527,7522,10,0.753662109375,-0.04766845703125,0.54217529296875
1759673355041,801376527,7522,11,0.757080078125,-0.04644775390625,0.54095458984375
1759673355041,801376527,7522,12,0.765380859375,-0.05841064453125,0.54632568359375
1759673355041,801376527,7522,13,0.7529296875,-0.04547119140625,0.54632568359375
1759673355041,801376527,7522,14,0.754638671875,-0.05108642578125,0.55535888671875
1759673355041,801376527,7522,15,0.744140625,-0.05157470703125,0.54119873046875
1759673355041,801376527,7522,16,0.7646484375,-0.05157470703125,0.55047607421875
1759673355041,801376527,7522,17,0.7578125,-0.05157470703125,0.52825927734375
1759673355041,801376527,7522,18,0.74951171875,-0.04669189453125,0.55633544921875
1759673355041,801376527,7522,19,0.74462890625,-0.06036376953125,0.54876708984375
1759673355041,801376527,7522,20,0.7607421875,-0.04400634765625,0.53558349609375
1759673355041,801376527,7522,21,0.76025390625,-0.05352783203125,0.54510498046875
1759673355041,801376527,7522,22,0.751953125,-0.05963134765625,0.54217529296875
1759673355041,801376527,7522,23,0.7646484375,-0.05352783203125,0.53948974609375
1759673355041,801376527,7522,24,0.726318359375,-0.05279541015625,0.54974365234375
1759673355041,801376527,7522,25,0.78173828125,-0.04840087890625,0.54534912109375
1759673355041,801376527,7522,26,0.75439453125,-0.04522705078125,0.53216552734375
1759673355041,801376527,7522,27,0.76611328125,-0.04425048828125,0.53973388671875
1759673355041,801376527,7522,28,0.756103515625,-0.05401611328125,0.55291748046875
1759673355041,801376527,7522,29,0.75439453125,-0.05255126953125,0.54852294921875
1759673355041,801376527,7522,30,0.752685546875,-0.04693603515625,0.53289794921875
1759673355041,801376527,7522,31,0.77001953125,-0.04254150390625,0.54632568359375
1759673357591,801379106,7523,0,0.764404296875,-0.03619384765625,0.53753662109375
1759673357591,801379106,7523,1,0.74267578125,-0.02813720703125,0.54388427734375
1759673357591,801379106,7523,2,0.73388671875,-0.04254150390625,0.56463623046875
1759673357591,801379106,7523,3,0.721435546875,-0.05279541015625,0.56585693359375
1759673357591,801379106,7523,4,0.73583984375,-0.06622314453125,0.57073974609375
1759673357591,801379106,7523,5,0.75537109375,-0.04376220703125,0.54583740234375
1759673357591,801379106,7523,6,0.746826171875,-0.03814697265625,0.55316162109375
1759673357591,801379106,7523,7,0.7705078125,-0.05133056640625,0.55950927734375
1759673357591,801379106,7523,8,0.755126953125,-0.03839111328125,0.54022216796875
1759673357591,801379106,7523,9,0.75341796875,-0.04742431640625,0.54339599609375
1759673357591,801379106,7523,10,0.757568359375,-0.04718017578125,0.54803466796875
1759673357591,801379106,7523,11,0.7421875,-0.02838134765625,0.54388427734375
1759673357591,801379106,7523,12,0.754638671875,-0.04669189453125,0.56097412109375
1759673357591,801379106,7523,13,0.783447265625,-0.04010009765625,0.54071044921875
1759673357591,801379106,7523,14,0.760986328125,-0.04254150390625,0.53143310546875
1759673357591,801379106,7523,15,0.74609375,-0.05816650390625,0.54339599609375
1759673357591,801379106,7523,16,0.732666015625,-0.05303955078125,0.54974365234375
1759673357591,801379106,7523,17,0.74462890625,-0.06646728515625,0.57073974609375
1759673357591,801379106,7523,18,0.75537109375,-0.04400634765625,0.53656005859375
1759673357591,801379106,7523,19,0.771240234375,-0.05157470703125,0.53240966796875
1759673357591,801379106,7523,20,0.753662109375,-0.04937744140625,0.53729248046875
1759673357591,801379106,7523,21,0.752197265625,-0.05450439453125,0.54754638671875
1759673357591,801379106,7523,22,0.751953125,-0.04962158203125,0.55047607421875
1759673357591,801379106,7523,23,0.753662109375,-0.06890869140625,0.54779052734375
1759673357591,801379106,7523,24,0.76123046875,-0.06036376953125,0.53704833984375
1759673357591,801379106,7523,25,0.75048828125,-0.05987548828125,0.54168701171875
1759673357591,801379106,7523,26,0.750732421875,-0.06134033203125,0.55584716796875
1759673357591,801379106,7523,27,0.757568359375,-0.05596923828125,0.53704833984375
1759673357591,801379106,7523,28,0.76416015625,-0.05767822265625,0.53216552734375
1759673357591,801379106,7523,29,0.757080078125,-0.06719970703125,0.54534912109375
1759673357591,801379106,7523,30,0.75830078125,-0.05084228515625,0.54022216796875
1759673357591,801379106,7523,31,0.747802734375,-0.06427001953125,0.54608154296875
1759673360441,801381679,7524,0,0.7724609375,-0.05670166015625,0.53094482421875
1759673360441,801381679,7524,1,0.7548828125,-0.05157470703125,0.53436279296875
1759673360441,801381679,7524,2,0.771484375,-0.05157470703125,0.53900146484375
1759673360441,801381679,7524,3,0.739990234375,-0.06817626953125,0.55194091796875
1759673360441,801381679,7524,4,0.75439453125,-0.07232666015625,0.53973388671875
1759673360441,801381679,7524,5,0.764892578125,-0.04742431640625,0.52459716796875
1759673360441,801381679,7524,6,0.7470703125,-0.05133056640625,0.54681396484375
1759673360441,801381679,7524,7,0.759033203125,-0.06597900390625,0.54339599609375
1759673360441,801381679,7524,8,0.781982421875,-0.05450439453125,0.53436279296875
1759673360441,801381679,7524,9,0.78271484375,-0.05963134765625,0.53680419921875
1759673360441,801381679,7524,10,0.736572265625,-0.04522705078125,0.54144287109375
1759673360441,801381679,7524,11,0.75390625,-0.03912353515625,0.52655029296875
1759673360441,801381679,7524,12,0.7490234375,-0.05523681640625,0.53143310546875
1759673360441,801381679,7524,13,0.754638671875,-0.06134033203125,0.54193115234375
1759673360441,801381679,7524,14,0.7509765625,-0.05743408203125,0.54534912109375
1759673360441,801381679,7524,15,0.746337890625,-0.04766845703125,0.55999755859375
1759673360441,801381679,7524,16,0.738037109375,-0.06549072265625,0.55462646484375
1759673360441,801381679,7524,17,0.773681640625,-0.05865478515625,0.55072021484375
1759673360441,801381679,7524,18,0.7578125,-0.05938720703125,0.54705810546875
1759673360441,801381679,7524,19,0.73828125,-0.05645751953125,0.57025146484375
1759673360441,801381679,7524,20,0.73388671875,-0.05841064453125,0.57171630859375
1759673360441,801381679,7524,21,0.7490234375,-0.05523681640625,0.54437255859375
1759673360441,801381679,7524,22,0.7578125,-0.05743408203125,0.54193115234375
1759673360441,801381679,7524,23,0.75048828125,-0.06597900390625,0.56048583984375
1759673360441,801381679,7524,24,0.749755859375,-0.05645751953125,0.54486083984375
1759673360441,801381679,7524,25,0.746337890625,-0.05963134765625,0.55780029296875
1759673360441,801381679,7524,26,0.74951171875,-0.05670166015625,0.55804443359375
1759673360441,801381679,7524,27,0.739013671875,-0.06890869140625,0.56341552734375
1759673360441,801381679,7524,28,0.744873046875,-0.06329345703125,0.54852294921875
1759673360441,801381679,7524,29,0.748291015625,-0.06329345703125,0.55780029296875
1759673360441,801381679,7524,30,0.74609375,-0.05401611328125,0.56561279296875
1759673360441,801381679,7524,31,0.7431640625,-0.06011962890625,0.55853271484375
1759673362691,801384258,7525,0,0.74462890625,-0.06549072265625,0.55755615234375
1759673362691,801384258,7525,1,0.73486328125,-0.06939697265625,0.56292724609375
1759673362691,801384258,7525,2,0.742919921875,-0.06134033203125,0.56927490234375
1759673362691,801384258,7525,3,0.758544921875,-0.05816650390625,0.56121826171875
1759673362691,801384258,7525,4,0.749755859375,-0.06134033203125,0.55340576171875
1759673362691,801384258,7525,5,0.74658203125,-0.07183837890625,0.55438232421875
1759673362691,801384258,7525,6,0.733154296875,-0.06915283203125,0.57049560546875
1759673362691,801384258,7525,7,0.7353515625,-0.07110595703125,0.56927490234375
1759673362691,801384258,7525,8,0.73828125,-0.06280517578125,0.55853271484375
1759673362691,801384258,7525,9,0.74560546875,-0.06793212890625,0.56658935546875
1759673362691,801384258,7525,10,0.74267578125,-0.06988525390625,0.56170654296875
1759673362691,801384258,7525,11,0.744384765625,-0.06573486328125,0.56707763671875
1759673362691,801384258,7525,12,0.73486328125,-0.06573486328125,0.56536865234375
1759673362691,801384258,7525,13,0.730224609375,-0.05596923828125,0.56146240234375
1759673362691,801384258,7525,14,0.7451171875,-0.06085205078125,0.57391357421875
1759673362691,801384258,7525,15,0.7529296875,-0.04766845703125,0.56976318359375
1759673362691,801384258,7525,16,0.734375,-0.04522705078125,0.56414794921875
1759673362691,801384258,7525,17,0.7470703125,-0.05548095703125,0.57196044921875
1759673362691,801384258,7525,18,0.731689453125,-0.06964111328125,0.55877685546875
1759673362691,801384258,7525,19,0.740966796875,-0.06671142578125,0.55291748046875
1759673362691,801384258,7525,20,0.744384765625,-0.06109619140625,0.55560302734375
1759673362691,801384258,7525,21,0.738037109375,-0.05914306640625,0.56829833984375
1759673362691,801384258,7525,22,0.74365234375,-0.06988525390625,0.57440185546875
1759673362691,801384258,7525,23,0.7392578125,-0.06011962890625,0.55999755859375
1759673362691,801384258,7525,24,0.73291015625,-0.06988525390625,0.56927490234375
1759673362691,801384258,7525,25,0.739501953125,-0.06915283203125,0.56414794921875
1759673362691,801384258,7525,26,0.732421875,-0.06768798828125,0.57318115234375
1759673362691,801384258,7525,27,0.7412109375,-0.06793212890625,0.56536865234375
1759673362691,801384258,7525,28,0.74267578125,-0.06597900390625,0.55828857421875
1759673362691,801384258,7525,29,0.749267578125,-0.05987548828125,0.58148193359375
1759673362691,801384258,7525,30,0.722900390625,-0.07452392578125,0.56512451171875
1759673362691,801384258,7525,31,0.72802734375,-0.07916259765625,0.57952880859375
1759673365390,801386837,7526,0,0.726806640625,-0.07696533203125,0.58660888671875
1759673365390,801386837,7526,1,0.732177734375,-0.06622314453125,0.57659912109375
1759673365390,801386837,7526,2,0.74365234375,-0.05865478515625,0.56756591796875
1759673365390,801386837,7526,3,0.731201171875,-0.07232666015625,0.57269287109375
1759673365390,801386837,7526,4,0.727783203125,-0.07574462890625,0.56781005859375
1759673365390,801386837,7526,5,0.739013671875,-0.07379150390625,0.57781982421875
1759673365390,801386837,7526,6,0.739990234375,-0.05157470703125,0.56439208984375
1759673365390,801386837,7526,7,0.744384765625,-0.06036376953125,0.57342529296875
1759673365390,801386837,7526,8,0.74951171875,-0.06475830078125,0.55926513671875
1759673365390,801386837,7526,9,0.738525390625,-0.06622314453125,0.56170654296875
1759673365390,801386837,7526,10,0.73046875,-0.07330322265625,0.56610107421875
1759673365390,801386837,7526,11,0.735107421875,-0.06500244140625,0.57293701171875
1759673365390,801386837,7526,12,0.74072265625,-0.06158447265625,0.56781005859375
1759673365390,801386837,7526,13,0.745361328125,-0.07427978515625,0.56903076171875
1759673365390,801386837,7526,14,0.759521484375,-0.06304931640625,0.55706787109375
1759673365390,801386837,7526,15,0.73291015625,-0.04986572265625,0.54901123046875
1759673365390,801386837,7526,16,0.741455078125,-0.06451416015625,0.56414794921875
1759673365390,801386837,7526,17,0.74609375,-0.05914306640625,0.57415771484375
1759673365390,801386837,7526,18,0.729736328125,-0.05767822265625,0.56072998046875
1759673365390,801386837,7526,19,0.742431640625,-0.06353759765625,0.56048583984375
1759673365390,801386837,7526,20,0.73974609375,-0.06304931640625,0.56146240234375
1759673365390,801386837,7526,21,0.748291015625,-0.06280517578125,0.56268310546875
1759673365390,801386837,7526,22,0.749755859375,-0.05841064453125,0.56463623046875
1759673365390,801386837,7526,23,0.739013671875,-0.05426025390625,0.55755615234375
1759673365390,801386837,7526,24,0.748291015625,-0.05963134765625,0.55487060546875
1759673365390,801386837,7526,25,0.743896484375,-0.05889892578125,0.55950927734375
1759673365390,801386837,7526,26,0.746826171875,-0.05548095703125,0.55755615234375
1759673365390,801386837,7526,27,0.74462890625,-0.05645751953125,0.55145263671875
1759673365390,801386837,7526,28,0.755126953125,-0.05841064453125,0.55267333984375
1759673365390,801386837,7526,29,0.748779296875,-0.05645751953125,0.55999755859375
1759673365390,801386837,7526,30,0.736572265625,-0.05743408203125,0.55340576171875
1759673365390,801386837,7526,31,0.744140625,-0.04815673828125,0.55364990234375
1759673367940,801389416,7527,0,0.749755859375,-0.06231689453125,0.56683349609375
1759673367940,801389416,7527,1,0.744384765625,-0.05792236328125,0.57537841796875
1759673367940,801389416,7527,2,0.74560546875,-0.05206298828125,0.55389404296875
1759673367940,801389416,7527,3,0.7353515625,-0.06182861328125,0.55950927734375
1759673367940,801389416,7527,4,0.73388671875,-0.05914306640625,0.57244873046875
1759673367940,801389416,7527,5,0.736328125,-0.04913330078125,0.57464599609375
1759673367940,801389416,7527,6,0.72705078125,-0.04449462890625,0.56634521484375
1759673367940,801389416,7527,7,0.7421875,-0.05718994140625,0.57147216796875
1759673367940,801389416,7527,8,0.739013671875,-0.05377197265625,0.56317138671875
1759673367940,801389416,7527,9,0.7412109375,-0.05865478515625,0.57855224609375
1759673367940,801389416,7527,10,0.740966796875,-0.05670166015625,0.56976318359375
1759673367940,801389416,7527,11,0.740966796875,-0.05987548828125,0.57196044921875
1759673367940,801389416,7527,12,0.732421875,-0.06378173828125,0.57635498046875
1759673367940,801389416,7527,13,0.72607421875,-0.06134033203125,0.56927490234375
1759673367940,801389416,7527,14,0.735595703125,-0.06134033203125,0.58221435546875
1759673367940,801389416,7527,15,0.73046875,-0.06353759765625,0.57293701171875
1759673367940,801389416,7527,16,0.73779296875,-0.05987548828125,0.58050537109375
1759673367940,801389416,7527,17,0.73291015625,-0.06378173828125,0.56097412109375
1759673367940,801389416,7527,18,0.734619140625,-0.06671142578125,0.58074951171875
1759673367940,801389416,7527,19,0.737548828125,-0.05987548828125,0.57659912109375
1759673367940,801389416,7527,20,0.73095703125,-0.06109619140625,0.57025146484375
1759673367940,801389416,7527,21,0.736328125,-0.06500244140625,0.57684326171875
1759673367940,801389416,7527,22,0.733154296875,-0.06402587890625,0.57757568359375
1759673367940,801389416,7527,23,0.735107421875,-0.06402587890625,0.57366943359375
1759673367940,801389416,7527,24,0.732421875,-0.06256103515625,0.57391357421875
1759673367940,801389416,7527,25,0.737548828125,-0.06060791015625,0.57977294921875
1759673367940,801389416,7527,26,0.7333984375,-0.06378173828125,0.57049560546875
1759673367940,801389416,7527,27,0.73486328125,-0.06378173828125,0.57806396484375
1759673367940,801389416,7527,28,0.732421875,-0.06085205078125,0.57855224609375
1759673367940,801389416,7527,29,0.731689453125,-0.06231689453125,0.57220458984375
1759673367940,801389416,7527,30,0.736572265625,-0.06353759765625,0.57196044921875
1759673367940,801389416,7527,31,0.738037109375,-0.06646728515625,0.57611083984375
1759673370490,801391996,7528,0,0.7373046875,-0.06207275390625,0.57318115234375
1759673370490,801391996,7528,1,0.736572265625,-0.05963134765625,0.57171630859375
1759673370490,801391996,7528,2,0.7333984375,-0.06573486328125,0.57293701171875
1759673370490,801391996,7528,3,0.738037109375,-0.07110595703125,0.57464599609375
1759673370490,801391996,7528,4,0.74267578125,-0.06256103515625,0.57635498046875
1759673370490,801391996,7528,5,0.726318359375,-0.06646728515625,0.56781005859375
1759673370490,801391996,7528,6,0.74609375,-0.06646728515625,0.57342529296875
1759673370490,801391996,7528,7,0.729248046875,-0.06671142578125,0.56610107421875
1759673370490,801391996,7528,8,0.734375,-0.05987548828125,0.57147216796875
1759673370490,801391996,7528,9,0.731689453125,-0.06622314453125,0.57879638671875
1759673370490,801391996,7528,10,0.736083984375,-0.07183837890625,0.57611083984375
1759673370490,801391996,7528,11,0.729248046875,-0.06353759765625,0.56854248046875
1759673370490,801391996,7528,12,0.73876953125,-0.06402587890625,0.56829833984375
1759673370490,801391996,7528,13,0.74365234375,-0.05108642578125,0.56219482421875
1759673370490,801391996,7528,14,0.739990234375,-0.06842041015625,0.57025146484375
1759673370490,801391996,7528,15,0.736083984375,-0.07086181640625,0.56976318359375
1759673370490,801391996,7528,16,0.746337890625,-0.06036376953125,0.56097412109375
1759673370490,801391996,7528,17,0.740478515625,-0.05792236328125,0.56292724609375
1759673370490,801391996,7528,18,0.739990234375,-0.06085205078125,0.56268310546875
1759673370490,801391996,7528,19,0.729248046875,-0.06329345703125,0.57098388671875
1759673370490,801391996,7528,20,0.7451171875,-0.05718994140625,0.56439208984375
1759673370490,801391996,7528,21,0.7490234375,-0.06719970703125,0.56146240234375
1759673370490,801391996,7528,22,0.75341796875,-0.05938720703125,0.55853271484375
1759673370490,801391996,7528,23,0.742431640625,-0.05596923828125,0.56048583984375
1759673370490,801391996,7528,24,0.732421875,-0.06622314453125,0.56732177734375
1759673370490,801391996,7528,25,0.73193359375,-0.05914306640625,0.56805419921875
1759673370490,801391996,7528,26,0.740966796875,-0.06451416015625,0.57464599609375
1759673370490,801391996,7528,27,0.74365234375,-0.06134033203125,0.56219482421875
1759673370490,801391996,7528,28,0.75341796875,-0.06768798828125,0.54681396484375
1759673370490,801391996,7528,29,0.746337890625,-0.05767822265625,0.56341552734375
1759673370490,801391996,7528,30,0.736572265625,-0.06329345703125,0.55853271484375
1759673370490,801391996,7528,31,0.744140625,-0.05670166015625,0.55828857421875
1759673373038,801394575,7529,0,0.74169921875,-0.08062744140625,0.56097412109375
1759673373038,801394575,7529,1,0.760009765625,-0.07159423828125,0.54901123046875
1759673373038,801394575,7529,2,0.757568359375,-0.05499267578125,0.54705810546875
1759673373038,801394575,7529,3,0.74853515625,-0.06158447265625,0.55731201171875
1759673373038,801394575,7529,4,0.74169921875,-0.06988525390625,0.55072021484375
1759673373038,801394575,7529,5,0.755859375,-0.07525634765625,0.55291748046875
1759673373038,801394575,7529,6,0.737548828125,-0.06182861328125,0.54876708984375
1759673373038,801394575,7529,7,0.75,-0.06011962890625,0.56317138671875
1759673373038,801394575,7529,8,0.755615234375,-0.05987548828125,0.55633544921875
1759673373038,801394575,7529,9,0.749267578125,-0.05621337890625,0.55877685546875
1759673373038,801394575,7529,10,0.744384765625,-0.05206298828125,0.57098388671875
1759673373038,801394575,7529,11,0.7333984375,-0.04693603515625,0.55731201171875
1759673373038,801394575,7529,12,0.730712890625,-0.04669189453125,0.56170654296875
1759673373038,801394575,7529,13,0.734619140625,-0.04937744140625,0.57269287109375
1759673373038,801394575,7529,14,0.73291015625,-0.06451416015625,0.57122802734375
1759673373038,801394575,7529,15,0.738037109375,-0.05523681640625,0.56414794921875
1759673373038,801394575,7529,16,0.747314453125,-0.05499267578125,0.58074951171875
1759673373038,801394575,7529,17,0.738037109375,-0.06524658203125,0.56927490234375
1759673373038,801394575,7529,18,0.736328125,-0.05548095703125,0.57171630859375
1759673373038,801394575,7529,19,0.72998046875,-0.06304931640625,0.57879638671875
1759673373038,801394575,7529,20,0.740234375,-0.05914306640625,0.57293701171875
1759673373038,801394575,7529,21,0.730712890625,-0.05670166015625,0.57708740234375
1759673373038,801394575,7529,22,0.722412109375,-0.05889892578125,0.57196044921875
1759673373038,801394575,7529,23,0.736083984375,-0.07086181640625,0.58270263671875
1759673373038,801394575,7529,24,0.73095703125,-0.05816650390625,0.58148193359375
1759673373038,801394575,7529,25,0.731201171875,-0.05303955078125,0.57464599609375
1759673373038,801394575,7529,26,0.73291015625,-0.05694580078125,0.57806396484375
1759673373038,801394575,7529,27,0.726806640625,-0.06231689453125,0.58123779296875
1759673373038,801394575,7529,28,0.7255859375,-0.06207275390625,0.58489990234375
1759673373038,801394575,7529,29,0.732421875,-0.06256103515625,0.57830810546875
1759673373038,801394575,7529,30,0.72705078125,-0.06549072265625,0.56805419921875
1759673373038,801394575,7529,31,0.743896484375,-0.07769775390625,0.57025146484375
1759673375590,801397154,7530,0,0.734130859375,-0.05938720703125,0.58026123046875
1759673375590,801397154,7530,1,0.729248046875,-0.06085205078125,0.57415771484375
1759673375590,801397154,7530,2,0.73291015625,-0.06671142578125,0.56781005859375
1759673375590,801397154,7530,3,0.728271484375,-0.06793212890625,0.58660888671875
1759673375590,801397154,7530,4,0.72900390625,-0.06573486328125,0.57904052734375
1759673375590,801397154,7530,5,0.73681640625,-0.06378173828125,0.56732177734375
1759673375590,801397154,7530,6,0.733154296875,-0.07086181640625,0.57073974609375
1759673375590,801397154,7530,7,0.74072265625,-0.06427001953125,0.57635498046875
1759673375590,801397154,7530,8,0.7373046875,-0.05963134765625,0.57440185546875
1759673375590,801397154,7530,9,0.73388671875,-0.06671142578125,0.57611083984375
1759673375590,801397154,7530,10,0.740478515625,-0.06402587890625,0.58148193359375
1759673375590,801397154,7530,11,0.724609375,-0.06524658203125,0.56854248046875
1759673375590,801397154,7530,12,0.726806640625,-0.06329345703125,0.58514404296875
1759673375590,801397154,7530,13,0.73193359375,-0.07574462890625,0.56512451171875
1759673375590,801397154,7530,14,0.7421875,-0.06915283203125,0.57440185546875
1759673375590,801397154,7530,15,0.74072265625,-0.06158447265625,0.56683349609375
1759673375590,801397154,7530,16,0.733642578125,-0.06719970703125,0.57611083984375
1759673375590,801397154,7530,17,0.7353515625,-0.06329345703125,0.58294677734375
1759673375590,801397154,7530,18,0.72021484375,-0.07452392578125,0.57708740234375
1759673375590,801397154,7530,19,0.740478515625,-0.06427001953125,0.56536865234375
1759673375590,801397154,7530,20,0.734375,-0.06573486328125,0.57391357421875
1759673375590,801397154,7530,21,0.735595703125,-0.06768798828125,0.56951904296875
1759673375590,801397154,7530,22,0.734130859375,-0.07354736328125,0.58563232421875
1759673375590,801397154,7530,23,0.742919921875,-0.07501220703125,0.58221435546875
1759673375590,801397154,7530,24,0.730224609375,-0.06866455078125,0.55560302734375
1759673375590,801397154,7530,25,0.744873046875,-0.07330322265625,0.55462646484375
1759673375590,801397154,7530,26,0.74072265625,-0.07574462890625,0.57244873046875
1759673375590,801397154,7530,27,0.740234375,-0.07159423828125,0.57513427734375
1759673375590,801397154,7530,28,0.743408203125,-0.07305908203125,0.55438232421875
1759673375590,801397154,7530,29,0.7421875,-0.06622314453125,0.55535888671875
1759673375590,801397154,7530,30,0.739501953125,-0.07037353515625,0.55511474609375
1759673375590,801397154,7530,31,0.745361328125,-0.06768798828125,0.56927490234375
1759673378290,801399733,7531,0,0.740234375,-0.07061767578125,0.56658935546875
1759673378290,801399733,7531,1,0.74365234375,-0.05963134765625,0.55511474609375
1759673378290,801399733,7531,2,0.743896484375,-0.06402587890625,0.55023193359375
1759673378290,801399733,7531,3,0.73681640625,-0.06524658203125,0.58587646484375
1759673378290,801399733,7531,4,0.732177734375,-0.05279541015625,0.57757568359375
1759673378290,801399733,7531,5,0.728759765625,-0.06231689453125,0.58172607421875
1759673378290,801399733,7531,6,0.738037109375,-0.04742431640625,0.56072998046875
1759673378290,801399733,7531,7,0.73046875,-0.05645751953125,0.59368896484375
1759673378290,801399733,7531,8,0.739013671875,-0.05816650390625,0.58099365234375
1759673378290,801399733,7531,9,0.73583984375,-0.05865478515625,0.57049560546875
1759673378290,801399733,7531,10,0.723388671875,-0.06695556640625,0.56268310546875
1759673378290,801399733,7531,11,0.742431640625,-0.06964111328125,0.57269287109375
1759673378290,801399733,7531,12,0.734375,-0.06573486328125,0.56927490234375
1759673378290,801399733,7531,13,0.739013671875,-0.06842041015625,0.56195068359375
1759673378290,801399733,7531,14,0.74169921875,-0.06793212890625,0.56121826171875
1759673378290,801399733,7531,15,0.732421875,-0.06866455078125,0.56903076171875
1759673378290,801399733,7531,16,0.7392578125,-0.07452392578125,0.56781005859375
1759673378290,801399733,7531,17,0.748779296875,-0.06134033203125,0.56829833984375
1759673378290,801399733,7531,18,0.738037109375,-0.06744384765625,0.56756591796875
1759673378290,801399733,7531,19,0.732666015625,-0.06866455078125,0.56561279296875
1759673378290,801399733,7531,20,0.740234375,-0.07086181640625,0.57415771484375
1759673378290,801399733,7531,21,0.741455078125,-0.06744384765625,0.56707763671875
1759673378290,801399733,7531,22,0.7392578125,-0.06060791015625,0.56268310546875
1759673378290,801399733,7531,23,0.74072265625,-0.06329345703125,0.56488037109375
1759673378290,801399733,7531,24,0.739501953125,-0.06427001953125,0.58319091796875
1759673378290,801399733,7531,25,0.7373046875,-0.07159423828125,0.57952880859375
1759673378290,801399733,7531,26,0.7412109375,-0.05865478515625,0.55364990234375
1759673378290,801399733,7531,27,0.740234375,-0.07330322265625,0.57513427734375
1759673378290,801399733,7531,28,0.744384765625,-0.06427001953125,0.56561279296875
1759673378290,801399733,7531,29,0.736083984375,-0.06085205078125,0.56854248046875
1759673378290,801399733,7531,30,0.73388671875,-0.06329345703125,0.57098388671875
1759673378290,801399733,7531,31,0.73779296875,-0.06964111328125,0.57244873046875
1759673380840,801402312,7532,0,0.738037109375,-0.06549072265625,0.55609130859375
1759673380840,801402312,7532,1,0.736083984375,-0.06158447265625,0.57366943359375
1759673380840,801402312,7532,2,0.742431640625,-0.06036376953125,0.57342529296875
1759673380840,801402312,7532,3,0.7353515625,-0.06256103515625,0.57318115234375
1759673380840,801402312,7532,4,0.73046875,-0.06085205078125,0.59027099609375
1759673380840,801402312,7532,5,0.734619140625,-0.05230712890625,0.58050537109375
1759673380840,801402312,7532,6,0.719482421875,-0.06182861328125,0.58099365234375
1759673380840,801402312,7532,7,0.736083984375,-0.05206298828125,0.58587646484375
1759673380840,801402312,7532,8,0.736572265625,-0.05157470703125,0.57342529296875
1759673380840,801402312,7532,9,0.740966796875,-0.05084228515625,0.56658935546875
1759673380840,801402312,7532,10,0.7294921875,-0.04766845703125,0.57806396484375
1759673380840,801402312,7532,11,0.72314453125,-0.05816650390625,0.57708740234375
1759673380840,801402312,7532,12,0.722900390625,-0.05352783203125,0.58587646484375
1759673380840,801402312,7532,13,0.73046875,-0.06744384765625,0.58343505859375
1759673380840,801402312,7532,14,0.73583984375,-0.05743408203125,0.55999755859375
1759673380840,801402312,7532,15,0.73193359375,-0.07012939453125,0.57171630859375
1759673380840,801402312,7532,16,0.738525390625,-0.06988525390625,0.57586669921875
1759673380840,801402312,7532,17,0.732421875,-0.06768798828125,0.58416748046875
1759673380840,801402312,7532,18,0.734375,-0.06256103515625,0.57806396484375
1759673380840,801402312,7532,19,0.71728515625,-0.06451416015625,0.57904052734375
1759673380840,801402312,7532,20,0.7314453125,-0.07257080078125,0.57977294921875
1759673380840,801402312,7532,21,0.73828125,-0.06182861328125,0.57733154296875
1759673380840,801402312,7532,22,0.72802734375,-0.05987548828125,0.57513427734375
1759673380840,801402312,7532,23,0.729736328125,-0.07061767578125,0.59124755859375
1759673380840,801402312,7532,24,0.717529296875,-0.06793212890625,0.58856201171875
1759673380840,801402312,7532,25,0.726806640625,-0.05889892578125,0.57659912109375
1759673380840,801402312,7532,26,0.731201171875,-0.07183837890625,0.58074951171875
1759673380840,801402312,7532,27,0.74267578125,-0.05499267578125,0.57269287109375
1759673380840,801402312,7532,28,0.720947265625,-0.06768798828125,0.58636474609375
1759673380840,801402312,7532,29,0.7470703125,-0.06817626953125,0.57904052734375
1759673380840,801402312,7532,30,0.722900390625,-0.05377197265625,0.58709716796875
1759673380840,801402312,7532,31,0.715087890625,-0.06475830078125,0.58978271484375
1759673383388,801404891,7533,0,0.72216796875,-0.05792236328125,0.58856201171875
1759673383388,801404891,7533,1,0.718505859375,-0.06280517578125,0.57928466796875
1759673383388,801404891,7533,2,0.732177734375,-0.06256103515625,0.58197021484375
1759673383388,801404891,7533,3,0.732666015625,-0.05816650390625,0.58392333984375
1759673383388,801404891,7533,4,0.735595703125,-0.06524658203125,0.57464599609375
1759673383388,801404891,7533,5,0.728271484375,-0.06304931640625,0.58245849609375
1759673383388,801404891,7533,6,0.732421875,-0.06134033203125,0.58221435546875
1759673383388,801404891,7533,7,0.722900390625,-0.06402587890625,0.57904052734375
1759673383388,801404891,7533,8,0.7294921875,-0.06597900390625,0.57928466796875
1759673383388,801404891,7533,9,0.729248046875,-0.06427001953125,0.58074951171875
1759673383388,801404891,7533,10,0.73681640625,-0.06500244140625,0.58514404296875
1759673383388,801404891,7533,11,0.729248046875,-0.06671142578125,0.58197021484375
1759673383388,801404891,7533,12,0.718505859375,-0.06158447265625,0.58197021484375
1759673383388,801404891,7533,13,0.72607421875,-0.06134033203125,0.57586669921875
1759673383388,801404891,7533,14,0.732421875,-0.06451416015625,0.57342529296875
1759673383388,801404891,7533,15,0.73876953125,-0.06011962890625,0.57391357421875
1759673383388,801404891,7533,16,0.73974609375,-0.06695556640625,0.57781982421875
1759673383388,801404891,7533,17,0.727294921875,-0.06695556640625,0.57171630859375
1759673383388,801404891,7533,18,0.742431640625,-0.06573486328125,0.59051513671875
1759673383388,801404891,7533,19,0.73974609375,-0.07159423828125,0.56341552734375
1759673383388,801404891,7533,20,0.73876953125,-0.05718994140625,0.55145263671875
1759673383388,801404891,7533,21,0.73828125,-0.06671142578125,0.57440185546875
1759673383388,801404891,7533,22,0.731201171875,-0.06842041015625,0.57147216796875
1759673383388,801404891,7533,23,0.739990234375,-0.06231689453125,0.57513427734375
1759673383388,801404891,7533,24,0.7294921875,-0.06500244140625,0.56610107421875
1759673383388,801404891,7533,25,0.74365234375,-0.06695556640625,0.57049560546875
1759673383388,801404891,7533,26,0.735107421875,-0.06842041015625,0.57000732421875
1759673383388,801404891,7533,27,0.740966796875,-0.06915283203125,0.56976318359375
1759673383388,801404891,7533,28,0.74755859375,-0.06036376953125,0.56024169921875
1759673383388,801404891,7533,29,0.738037109375,-0.06427001953125,0.56146240234375
1759673383388,801404891,7533,30,0.757080078125,-0.07061767578125,0.55413818359375
1759673383388,801404891,7533,31,0.74462890625,-0.06695556640625,0.55828857421875
1759673385941,801407470,7534,0,0.745361328125,-0.06451416015625,0.55633544921875
1759673385941,801407470,7534,1,0.756103515625,-0.04791259765625,0.54559326171875
1759673385941,801407470,7534,2,0.747802734375,-0.06280517578125,0.54876708984375
1759673385941,801407470,7534,3,0.753173828125,-0.05914306640625,0.55780029296875
1759673385941,801407470,7534,4,0.7373046875,-0.05963134765625,0.55316162109375
1759673385941,801407470,7534,5,0.77001953125,-0.05035400390625,0.54681396484375
