receivedPhoneTimestamp,respeckTimestamp,packetSeqNum,sampleSeqNum,accelX,accelY,accelZ
1759571244196,702551929,35466,20,0.806884765625,0.17962646484375,0.42352294921875
1759571244196,702551929,35466,21,0.8154296875,0.18646240234375,0.42572021484375
1759571244196,702551929,35466,22,0.78466796875,0.15814208984375,0.42596435546875
1759571244196,702551929,35466,23,0.846923828125,0.21087646484375,0.34344482421875
1759571244196,702551929,35466,24,0.8671875,0.20599365234375,0.34320068359375
1759571244196,702551929,35466,25,0.82568359375,0.20306396484375,0.39129638671875
1759571244196,702551929,35466,26,0.822509765625,0.17230224609375,0.40692138671875
1759571244196,702551929,35466,27,0.830810546875,0.16595458984375,0.39666748046875
1759571244196,702551929,35466,28,0.81396484375,0.15374755859375,0.42401123046875
1759571244196,702551929,35466,29,0.79638671875,0.15106201171875,0.38543701171875
1759571244196,702551929,35466,30,0.844482421875,0.20208740234375,0.39007568359375
1759571244196,702551929,35466,31,0.83740234375,0.18768310546875,0.38104248046875
1759571246731,702554484,35467,0,0.8125,0.19671630859375,0.38690185546875
1759571246731,702554484,35467,1,0.833740234375,0.20697021484375,0.37274169921875
1759571246731,702554484,35467,2,0.844970703125,0.19207763671875,0.35809326171875
1759571246731,702554484,35467,3,0.84130859375,0.19305419921875,0.39471435546875
1759571246731,702554484,35467,4,0.84033203125,0.17987060546875,0.39447021484375
1759571246731,702554484,35467,5,0.811279296875,0.16644287109375,0.39959716796875
1759571246731,702554484,35467,6,0.803955078125,0.15960693359375,0.39715576171875
1759571246731,702554484,35467,7,0.779541015625,0.15423583984375,0.46209716796875
1759571246731,702554484,35467,8,0.851806640625,0.18670654296875,0.36419677734375
1759571246731,702554484,35467,9,0.841064453125,0.19989013671875,0.40447998046875
1759571246731,702554484,35467,10,0.825927734375,0.19036865234375,0.39031982421875
1759571246731,702554484,35467,11,0.80224609375,0.20013427734375,0.42059326171875
1759571246731,702554484,35467,12,0.83984375,0.20379638671875,0.40423583984375
1759571246731,702554484,35467,13,0.855224609375,0.19378662109375,0.33953857421875
1759571246731,702554484,35467,14,0.834716796875,0.19183349609375,0.39837646484375
1759571246731,702554484,35467,15,0.815673828125,0.18719482421875,0.43206787109375
1759571246731,702554484,35467,16,0.800048828125,0.15618896484375,0.42938232421875
1759571246731,702554484,35467,17,0.750732421875,0.15838623046875,0.47918701171875
1759571246731,702554484,35467,18,0.822998046875,0.10345458984375,0.34149169921875
1759571246731,702554484,35467,19,0.87939453125,0.20721435546875,0.43206787109375
1759571246731,702554484,35467,20,0.81103515625,0.18890380859375,0.41278076171875
1759571246731,702554484,35467,21,0.786376953125,0.18841552734375,0.39471435546875
1759571246731,702554484,35467,22,0.837646484375,0.17498779296875,0.39373779296875
1759571246731,702554484,35467,23,0.833984375,0.20281982421875,0.42376708984375
1759571246731,702554484,35467,24,0.794677734375,0.20208740234375,0.40765380859375
1759571246731,702554484,35467,25,0.829345703125,0.20257568359375,0.35443115234375
1759571246731,702554484,35467,26,0.83642578125,0.18695068359375,0.42498779296875
1759571246731,702554484,35467,27,0.810302734375,0.15496826171875,0.45355224609375
1759571246731,702554484,35467,28,0.785400390625,0.16156005859375,0.40081787109375
1759571246731,702554484,35467,29,0.77587890625,0.17010498046875,0.47283935546875
1759571246731,702554484,35467,30,0.84130859375,0.17547607421875,0.37982177734375
1759571246731,702554484,35467,31,0.855224609375,0.18914794921875,0.39202880859375
1759571249263,702557039,35468,0,0.802734375,0.19622802734375,0.39617919921875
1759571249263,702557039,35468,1,0.79736328125,0.20648193359375,0.43011474609375
1759571249263,702557039,35468,2,0.85498046875,0.19281005859375,0.33612060546875
1759571249263,702557039,35468,3,0.83984375,0.19329833984375,0.44012451171875
1759571249263,702557039,35468,4,0.813232421875,0.20281982421875,0.33026123046875
1759571249263,702557039,35468,5,0.8349609375,0.18939208984375,0.38031005859375
1759571249263,702557039,35468,6,0.84228515625,0.20111083984375,0.34930419921875
1759571249263,702557039,35468,7,0.890625,0.19036865234375,0.43597412109375
1759571249263,702557039,35468,8,0.795654296875,0.21087646484375,0.28436279296875
1759571249263,702557039,35468,9,0.892578125,0.18841552734375,0.29656982421875
1759571249263,702557039,35468,10,0.832275390625,0.19232177734375,0.34564208984375
1759571249263,702557039,35468,11,0.856689453125,0.21917724609375,0.30731201171875
1759571249263,702557039,35468,12,0.83837890625,0.19671630859375,0.34857177734375
1759571249263,702557039,35468,13,0.850830078125,0.20941162109375,0.32000732421875
1759571249263,702557039,35468,14,0.849609375,0.19891357421875,0.35980224609375
1759571249263,702557039,35468,15,0.829833984375,0.17034912109375,0.39276123046875
1759571249263,702557039,35468,16,0.806640625,0.18524169921875,0.41107177734375
1759571249263,702557039,35468,17,0.81005859375,0.17132568359375,0.42083740234375
1759571249263,702557039,35468,18,0.79296875,0.17401123046875,0.42401123046875
1759571249263,702557039,35468,19,0.815673828125,0.17132568359375,0.42401123046875
1759571249263,702557039,35468,20,0.8330078125,0.19500732421875,0.41009521484375
1759571249263,702557039,35468,21,0.83544921875,0.17620849609375,0.40179443359375
1759571249263,702557039,35468,22,0.774169921875,0.19573974609375,0.45916748046875
1759571249263,702557039,35468,23,0.828857421875,0.21868896484375,0.38616943359375
1759571249263,702557039,35468,24,0.8427734375,0.19940185546875,0.36956787109375
1759571249263,702557039,35468,25,0.81787109375,0.20452880859375,0.38128662109375
1759571249263,702557039,35468,26,0.7958984375,0.20452880859375,0.39617919921875
1759571249263,702557039,35468,27,0.841064453125,0.21331787109375,0.41644287109375
1759571249263,702557039,35468,28,0.806640625,0.17523193359375,0.42230224609375
1759571249263,702557039,35468,29,0.78759765625,0.18524169921875,0.42572021484375
1759571249263,702557039,35468,30,0.79296875,0.18157958984375,0.42303466796875
1759571249263,702557039,35468,31,0.815673828125,0.17279052734375,0.44842529296875
1759571251801,702559594,35469,0,0.813720703125,0.21014404296875,0.39935302734375
1759571251801,702559594,35469,1,0.8076171875,0.19647216796875,0.42425537109375
1759571251801,702559594,35469,2,0.82421875,0.21527099609375,0.40057373046875
1759571251801,702559594,35469,3,0.826904296875,0.19647216796875,0.37884521484375
1759571251801,702559594,35469,4,0.76416015625,0.19085693359375,0.52264404296875
1759571251801,702559594,35469,5,0.78857421875,0.18963623046875,0.42132568359375
1759571251801,702559594,35469,6,0.80322265625,0.20404052734375,0.44964599609375
1759571251801,702559594,35469,7,0.83349609375,0.14715576171875,0.36712646484375
1759571251801,702559594,35469,8,0.80908203125,0.19793701171875,0.46258544921875
1759571251801,702559594,35469,9,0.807373046875,0.18670654296875,0.44134521484375
1759571251801,702559594,35469,10,0.8037109375,0.20184326171875,0.38079833984375
1759571251801,702559594,35469,11,0.8212890625,0.19305419921875,0.40863037109375
1759571251801,702559594,35469,12,0.795654296875,0.18011474609375,0.47723388671875
1759571251801,702559594,35469,13,0.786376953125,0.16497802734375,0.44476318359375
1759571251801,702559594,35469,14,0.8046875,0.17694091796875,0.41741943359375
1759571251801,702559594,35469,15,0.81982421875,0.17864990234375,0.43988037109375
1759571251801,702559594,35469,16,0.820068359375,0.19476318359375,0.43328857421875
1759571251801,702559594,35469,17,0.79052734375,0.17767333984375,0.43817138671875
1759571251801,702559594,35469,18,0.79345703125,0.18792724609375,0.42327880859375
1759571251801,702559594,35469,19,0.8310546875,0.19598388671875,0.41815185546875
1759571251801,702559594,35469,20,0.778564453125,0.16278076171875,0.48382568359375
1759571251801,702559594,35469,21,0.796875,0.16156005859375,0.41473388671875
1759571251801,702559594,35469,22,0.803955078125,0.18426513671875,0.43597412109375
1759571251801,702559594,35469,23,0.78564453125,0.16815185546875,0.47650146484375
1759571251801,702559594,35469,24,0.822265625,0.19354248046875,0.44427490234375
1759571251801,702559594,35469,25,0.78662109375,0.18304443359375,0.45281982421875
1759571251801,702559594,35469,26,0.80029296875,0.17816162109375,0.41522216796875
1759571251801,702559594,35469,27,0.82177734375,0.19573974609375,0.39520263671875
1759571251801,702559594,35469,28,0.81201171875,0.19281005859375,0.41424560546875
1759571251801,702559594,35469,29,0.792236328125,0.19671630859375,0.46942138671875
1759571251801,702559594,35469,30,0.77294921875,0.15643310546875,0.46966552734375
1759571251801,702559594,35469,31,0.798583984375,0.18524169921875,0.43353271484375
1759571254335,702562149,35470,0,0.790283203125,0.16302490234375,0.49945068359375
1759571254335,702562149,35470,1,0.79638671875,0.18890380859375,0.41082763671875
1759571254335,702562149,35470,2,0.794921875,0.19061279296875,0.44671630859375
1759571254335,702562149,35470,3,0.79345703125,0.18939208984375,0.44940185546875
1759571254335,702562149,35470,4,0.806640625,0.19647216796875,0.41717529296875
1759571254335,702562149,35470,5,0.814697265625,0.19378662109375,0.40765380859375
1759571254335,702562149,35470,6,0.818603515625,0.19158935546875,0.45623779296875
1759571254335,702562149,35470,7,0.775146484375,0.16400146484375,0.48651123046875
1759571254335,702562149,35470,8,0.75634765625,0.16644287109375,0.48114013671875
1759571254335,702562149,35470,9,0.741943359375,0.15447998046875,0.53118896484375
1759571254335,702562149,35470,10,0.8740234375,0.18377685546875,0.33489990234375
1759571254335,702562149,35470,11,0.798828125,0.16717529296875,0.48211669921875
1759571254335,702562149,35470,12,0.795166015625,0.20111083984375,0.43328857421875
1759571254335,702562149,35470,13,0.79296875,0.19818115234375,0.40960693359375
1759571254335,702562149,35470,14,0.826171875,0.19989013671875,0.44134521484375
1759571254335,702562149,35470,15,0.767333984375,0.17254638671875,0.49334716796875
1759571254335,702562149,35470,16,0.774169921875,0.16204833984375,0.47674560546875
1759571254335,702562149,35470,17,0.7763671875,0.15911865234375,0.42742919921875
1759571254335,702562149,35470,18,0.794921875,0.14276123046875,0.49774169921875
1759571254335,702562149,35470,19,0.8291015625,0.19671630859375,0.39031982421875
1759571254335,702562149,35470,20,0.793212890625,0.17156982421875,0.46893310546875
1759571254335,702562149,35470,21,0.763916015625,0.18988037109375,0.47943115234375
1759571254335,702562149,35470,22,0.807861328125,0.19525146484375,0.41278076171875
1759571254335,702562149,35470,23,0.82177734375,0.20184326171875,0.43304443359375
1759571254335,702562149,35470,24,0.8154296875,0.18621826171875,0.39617919921875
1759571254335,702562149,35470,25,0.767822265625,0.14813232421875,0.48284912109375
1759571254335,702562149,35470,26,0.76904296875,0.16815185546875,0.47332763671875
1759571254335,702562149,35470,27,0.79833984375,0.17254638671875,0.44891357421875
1759571254335,702562149,35470,28,0.800048828125,0.13763427734375,0.45794677734375
1759571254335,702562149,35470,29,0.822021484375,0.20916748046875,0.43035888671875
1759571254335,702562149,35470,30,0.802978515625,0.18743896484375,0.42645263671875
1759571254335,702562149,35470,31,0.80029296875,0.18914794921875,0.43524169921875
1759571256871,702564704,35471,0,0.803955078125,0.19110107421875,0.43548583984375
1759571256871,702564704,35471,1,0.80712890625,0.19427490234375,0.44207763671875
1759571256871,702564704,35471,2,0.779541015625,0.17767333984375,0.44134521484375
1759571256871,702564704,35471,3,0.772216796875,0.18548583984375,0.49822998046875
1759571256871,702564704,35471,4,0.786376953125,0.17572021484375,0.46136474609375
1759571256871,702564704,35471,5,0.787353515625,0.16522216796875,0.45355224609375
1759571256871,702564704,35471,6,0.770751953125,0.17010498046875,0.48968505859375
1759571256871,702564704,35471,7,0.80029296875,0.17864990234375,0.44427490234375
1759571256871,702564704,35471,8,0.80712890625,0.18157958984375,0.44573974609375
1759571256871,702564704,35471,9,0.785400390625,0.18231201171875,0.46136474609375
1759571256871,702564704,35471,10,0.77490234375,0.18646240234375,0.46771240234375
1759571256871,702564704,35471,11,0.796630859375,0.18475341796875,0.43890380859375
1759571256871,702564704,35471,12,0.81982421875,0.20037841796875,0.42034912109375
1759571256871,702564704,35471,13,0.78173828125,0.18109130859375,0.46746826171875
1759571256871,702564704,35471,14,0.778564453125,0.18280029296875,0.49261474609375
1759571256871,702564704,35471,15,0.78271484375,0.16619873046875,0.45257568359375
1759571256871,702564704,35471,16,0.7783203125,0.14837646484375,0.48773193359375
1759571256871,702564704,35471,17,0.779296875,0.15570068359375,0.45404052734375
1759571256871,702564704,35471,18,0.8486328125,0.21453857421875,0.40985107421875
1759571256871,702564704,35471,19,0.82763671875,0.18157958984375,0.41180419921875
1759571256871,702564704,35471,20,0.786865234375,0.19232177734375,0.41009521484375
1759571256871,702564704,35471,21,0.821044921875,0.20648193359375,0.39837646484375
1759571256871,702564704,35471,22,0.82080078125,0.16619873046875,0.41156005859375
1759571256871,702564704,35471,23,0.806884765625,0.16717529296875,0.46697998046875
1759571256871,702564704,35471,24,0.7607421875,0.18133544921875,0.47821044921875
1759571256871,702564704,35471,25,0.802734375,0.15960693359375,0.41961669921875
1759571256871,702564704,35471,26,0.778564453125,0.16400146484375,0.49407958984375
1759571256871,702564704,35471,27,0.83544921875,0.16546630859375,0.39007568359375
1759571256871,702564704,35471,28,0.79443359375,0.17694091796875,0.48358154296875
1759571256871,702564704,35471,29,0.802734375,0.21405029296875,0.42864990234375
1759571256871,702564704,35471,30,0.793212890625,0.19378662109375,0.41717529296875
1759571256871,702564704,35471,31,0.824951171875,0.20379638671875,0.40301513671875
1759571259406,702567259,35472,0,0.821044921875,0.17742919921875,0.46014404296875
1759571259406,702567259,35472,1,0.77783203125,0.17840576171875,0.48089599609375
1759571259406,702567259,35472,2,0.778564453125,0.16766357421875,0.43695068359375
1759571259406,702567259,35472,3,0.802001953125,0.15570068359375,0.44158935546875
1759571259406,702567259,35472,4,0.779541015625,0.16107177734375,0.50872802734375
1759571259406,702567259,35472,5,0.7841796875,0.13299560546875,0.46307373046875
1759571259406,702567259,35472,6,0.811767578125,0.18914794921875,0.41644287109375
1759571259406,702567259,35472,7,0.831298828125,0.17889404296875,0.39544677734375
1759571259406,702567259,35472,8,0.783203125,0.18865966796875,0.46112060546875
1759571259406,702567259,35472,9,0.81201171875,0.21209716796875,0.43963623046875
1759571259406,702567259,35472,10,0.806884765625,0.18011474609375,0.41546630859375
1759571259406,702567259,35472,11,0.7939453125,0.17083740234375,0.42791748046875
1759571259406,702567259,35472,12,0.783203125,0.18963623046875,0.48089599609375
1759571259406,702567259,35472,13,0.790771484375,0.17132568359375,0.45037841796875
1759571259406,702567259,35472,14,0.799560546875,0.16668701171875,0.41986083984375
1759571259406,702567259,35472,15,0.774169921875,0.16522216796875,0.50555419921875
1759571259406,702567259,35472,16,0.83740234375,0.14349365234375,0.43865966796875
1759571259406,702567259,35472,17,0.836181640625,0.22943115234375,0.34539794921875
1759571259406,702567259,35472,18,0.7880859375,0.17523193359375,0.41278076171875
1759571259406,702567259,35472,19,0.79833984375,0.22528076171875,0.43646240234375
1759571259406,702567259,35472,20,0.815673828125,0.22332763671875,0.40667724609375
1759571259406,702567259,35472,21,0.804931640625,0.17181396484375,0.42791748046875
1759571259406,702567259,35472,22,0.787109375,0.18621826171875,0.45233154296875
1759571259406,702567259,35472,23,0.772705078125,0.18157958984375,0.50970458984375
1759571259406,702567259,35472,24,0.80615234375,0.18475341796875,0.40570068359375
1759571259406,702567259,35472,25,0.813232421875,0.17279052734375,0.41351318359375
1759571259406,702567259,35472,26,0.777587890625,0.15570068359375,0.50115966796875
1759571259406,702567259,35472,27,0.80078125,0.20794677734375,0.44061279296875
1759571259406,702567259,35472,28,0.826416015625,0.20501708984375,0.38934326171875
1759571259406,702567259,35472,29,0.80322265625,0.20062255859375,0.41815185546875
1759571259406,702567259,35472,30,0.787841796875,0.21063232421875,0.43719482421875
1759571259406,702567259,35472,31,0.818359375,0.21453857421875,0.40057373046875
1759571262137,702569814,35473,0,0.7861328125,0.16375732421875,0.48895263671875
1759571262137,702569814,35473,1,0.771728515625,0.17401123046875,0.48724365234375
1759571262137,702569814,35473,2,0.79296875,0.16693115234375,0.41546630859375
1759571262137,702569814,35473,3,0.80712890625,0.16229248046875,0.44281005859375
1759571262137,702569814,35473,4,0.764404296875,0.16009521484375,0.50018310546875
1759571262137,702569814,35473,5,0.7978515625,0.20989990234375,0.47625732421875
1759571262137,702569814,35473,6,0.84228515625,0.18597412109375,0.36248779296875
1759571262137,702569814,35473,7,0.798828125,0.18499755859375,0.43084716796875
1759571262137,702569814,35473,8,0.794189453125,0.21575927734375,0.42401123046875
1759571262137,702569814,35473,9,0.834716796875,0.20770263671875,0.39984130859375
1759571262137,702569814,35473,10,0.7744140625,0.15643310546875,0.49798583984375
1759571262137,702569814,35473,11,0.775634765625,0.17376708984375,0.46527099609375
1759571262137,702569814,35473,12,0.741943359375,0.16766357421875,0.52362060546875
1759571262137,702569814,35473,13,0.8369140625,0.15423583984375,0.37518310546875
1759571262137,702569814,35473,14,0.765869140625,0.13934326171875,0.49139404296875
1759571262137,702569814,35473,15,0.802490234375,0.20526123046875,0.45989990234375
1759571262137,702569814,35473,16,0.81201171875,0.18939208984375,0.42254638671875
1759571262137,702569814,35473,17,0.80224609375,0.19110107421875,0.41986083984375
1759571262137,702569814,35473,18,0.830322265625,0.21942138671875,0.36566162109375
1759571262137,702569814,35473,19,0.802734375,0.17791748046875,0.48846435546875
1759571262137,702569814,35473,20,0.7607421875,0.16302490234375,0.48480224609375
1759571262137,702569814,35473,21,0.76953125,0.16766357421875,0.46038818359375
1759571262137,702569814,35473,22,0.79345703125,0.17596435546875,0.45379638671875
1759571262137,702569814,35473,23,0.78955078125,0.15057373046875,0.52044677734375
1759571262137,702569814,35473,24,0.81103515625,0.20404052734375,0.38934326171875
1759571262137,702569814,35473,25,0.805419921875,0.19720458984375,0.44305419921875
1759571262137,702569814,35473,26,0.8125,0.20648193359375,0.40496826171875
1759571262137,702569814,35473,27,0.789306640625,0.18280029296875,0.46307373046875
1759571262137,702569814,35473,28,0.78076171875,0.20330810546875,0.51019287109375
1759571262137,702569814,35473,29,0.749755859375,0.17889404296875,0.49798583984375
1759571262137,702569814,35473,30,0.759521484375,0.17425537109375,0.48944091796875
1759571262137,702569814,35473,31,0.784423828125,0.15423583984375,0.48504638671875
1759571264671,702572370,35474,0,0.801025390625,0.18499755859375,0.43988037109375
1759571264671,702572370,35474,1,0.808349609375,0.18914794921875,0.44696044921875
1759571264671,702572370,35474,2,0.80419921875,0.19427490234375,0.42498779296875
1759571264671,702572370,35474,3,0.781494140625,0.19549560546875,0.45599365234375
1759571264671,702572370,35474,4,0.778564453125,0.19354248046875,0.48431396484375
1759571264671,702572370,35474,5,0.75537109375,0.17791748046875,0.51873779296875
1759571264671,702572370,35474,6,0.7451171875,0.16326904296875,0.50262451171875
1759571264671,702572370,35474,7,0.795654296875,0.15985107421875,0.45379638671875
1759571264671,702572370,35474,8,0.8125,0.15447998046875,0.43939208984375
1759571264671,702572370,35474,9,0.790283203125,0.18133544921875,0.44720458984375
1759571264671,702572370,35474,10,0.800537109375,0.20379638671875,0.45111083984375
1759571264671,702572370,35474,11,0.77978515625,0.18768310546875,0.46087646484375
1759571264671,702572370,35474,12,0.783935546875,0.19281005859375,0.47503662109375
1759571264671,702572370,35474,13,0.77197265625,0.19110107421875,0.47283935546875
1759571264671,702572370,35474,14,0.797607421875,0.19744873046875,0.44256591796875
1759571264671,702572370,35474,15,0.771728515625,0.19598388671875,0.45697021484375
1759571264671,702572370,35474,16,0.81201171875,0.20745849609375,0.43353271484375
1759571264671,702572370,35474,17,0.76806640625,0.17425537109375,0.50189208984375
1759571264671,702572370,35474,18,0.77001953125,0.16864013671875,0.47772216796875
1759571264671,702572370,35474,19,0.74951171875,0.16888427734375,0.49725341796875
1759571264671,702572370,35474,20,0.79541015625,0.17205810546875,0.46527099609375
1759571264671,702572370,35474,21,0.818359375,0.15643310546875,0.44281005859375
1759571264671,702572370,35474,22,0.775390625,0.18280029296875,0.45013427734375
1759571264671,702572370,35474,23,0.78125,0.19842529296875,0.48822021484375
1759571264671,702572370,35474,24,0.7998046875,0.19964599609375,0.43035888671875
1759571264671,702572370,35474,25,0.761962890625,0.18109130859375,0.48626708984375
1759571264671,702572370,35474,26,0.792236328125,0.20697021484375,0.44281005859375
1759571264671,702572370,35474,27,0.798583984375,0.19232177734375,0.47113037109375
1759571264671,702572370,35474,28,0.748291015625,0.15496826171875,0.49896240234375
1759571264671,702572370,35474,29,0.762451171875,0.17596435546875,0.48211669921875
1759571264671,702572370,35474,30,0.78125,0.16302490234375,0.48138427734375
1759571264671,702572370,35474,31,0.802490234375,0.16131591796875,0.46722412109375
1759571267202,702574925,35475,0,0.7958984375,0.18597412109375,0.43426513671875
1759571267202,702574925,35475,1,0.785400390625,0.19671630859375,0.47650146484375
1759571267202,702574925,35475,2,0.7880859375,0.20013427734375,0.45916748046875
1759571267202,702574925,35475,3,0.80078125,0.20013427734375,0.41937255859375
1759571267202,702574925,35475,4,0.824462890625,0.21282958984375,0.38323974609375
1759571267202,702574925,35475,5,0.753173828125,0.17962646484375,0.53851318359375
1759571267202,702574925,35475,6,0.77001953125,0.18621826171875,0.47772216796875
1759571267202,702574925,35475,7,0.769287109375,0.16961669921875,0.46649169921875
1759571267202,702574925,35475,8,0.79833984375,0.17010498046875,0.42230224609375
1759571267202,702574925,35475,9,0.78759765625,0.17132568359375,0.49530029296875
1759571267202,702574925,35475,10,0.773193359375,0.17889404296875,0.47967529296875
1759571267202,702574925,35475,11,0.8125,0.20330810546875,0.42401123046875
1759571267202,702574925,35475,12,0.8232421875,0.19427490234375,0.41522216796875
1759571267202,702574925,35475,13,0.804443359375,0.18524169921875,0.42376708984375
1759571267202,702574925,35475,14,0.794677734375,0.20379638671875,0.47283935546875
1759571267202,702574925,35475,15,0.758544921875,0.17327880859375,0.49798583984375
1759571267202,702574925,35475,16,0.76416015625,0.15960693359375,0.47967529296875
1759571267202,702574925,35475,17,0.798828125,0.15911865234375,0.43646240234375
1759571267202,702574925,35475,18,0.779541015625,0.16766357421875,0.48602294921875
1759571267202,702574925,35475,19,0.796875,0.17889404296875,0.43719482421875
1759571267202,702574925,35475,20,0.806884765625,0.18841552734375,0.45623779296875
1759571267202,702574925,35475,21,0.80078125,0.20135498046875,0.44427490234375
1759571267202,702574925,35475,22,0.803955078125,0.19598388671875,0.42718505859375
1759571267202,702574925,35475,23,0.779541015625,0.19525146484375,0.45355224609375
1759571267202,702574925,35475,24,0.813720703125,0.19476318359375,0.44256591796875
1759571267202,702574925,35475,25,0.758056640625,0.17376708984375,0.51336669921875
1759571267202,702574925,35475,26,0.7529296875,0.16107177734375,0.47991943359375
1759571267202,702574925,35475,27,0.7861328125,0.16717529296875,0.45648193359375
1759571267202,702574925,35475,28,0.8134765625,0.15399169921875,0.44525146484375
1759571267202,702574925,35475,29,0.787353515625,0.15716552734375,0.46502685546875
1759571267202,702574925,35475,30,0.79248046875,0.20208740234375,0.44085693359375
1759571267202,702574925,35475,31,0.779052734375,0.17962646484375,0.47918701171875
1759571269741,702577480,35476,0,0.7998046875,0.19842529296875,0.43841552734375
1759571269741,702577480,35476,1,0.7783203125,0.19525146484375,0.46429443359375
1759571269741,702577480,35476,2,0.813720703125,0.20013427734375,0.41815185546875
1759571269741,702577480,35476,3,0.781005859375,0.17620849609375,0.46649169921875
1759571269741,702577480,35476,4,0.76025390625,0.17425537109375,0.50408935546875
1759571269741,702577480,35476,5,0.7802734375,0.17010498046875,0.45037841796875
1759571269741,702577480,35476,6,0.7919921875,0.16619873046875,0.46502685546875
1759571269741,702577480,35476,7,0.791015625,0.15008544921875,0.47357177734375
1759571269741,702577480,35476,8,0.811767578125,0.21136474609375,0.43865966796875
1759571269741,702577480,35476,9,0.796875,0.18817138671875,0.41717529296875
1759571269741,702577480,35476,10,0.7861328125,0.20306396484375,0.45941162109375
1759571269741,702577480,35476,11,0.799072265625,0.21014404296875,0.42742919921875
1759571269741,702577480,35476,12,0.762451171875,0.17987060546875,0.48529052734375
1759571269741,702577480,35476,13,0.822265625,0.21087646484375,0.43377685546875
1759571269741,702577480,35476,14,0.75927734375,0.19134521484375,0.49749755859375
1759571269741,702577480,35476,15,0.760986328125,0.17083740234375,0.49578857421875
1759571269741,702577480,35476,16,0.7978515625,0.15692138671875,0.41961669921875
1759571269741,702577480,35476,17,0.7861328125,0.17864990234375,0.51116943359375
1759571269741,702577480,35476,18,0.800537109375,0.15203857421875,0.44818115234375
1759571269741,702577480,35476,19,0.78564453125,0.20281982421875,0.46453857421875
1759571269741,702577480,35476,20,0.80712890625,0.19647216796875,0.41204833984375
1759571269741,702577480,35476,21,0.79296875,0.20501708984375,0.46478271484375
1759571269741,702577480,35476,22,0.802734375,0.20989990234375,0.41717529296875
1759571269741,702577480,35476,23,0.766845703125,0.18890380859375,0.47601318359375
1759571269741,702577480,35476,24,0.80615234375,0.21112060546875,0.42694091796875
1759571269741,702577480,35476,25,0.780029296875,0.20526123046875,0.50091552734375
1759571269741,702577480,35476,26,0.7470703125,0.16815185546875,0.51727294921875
1759571269741,702577480,35476,27,0.8203125,0.15814208984375,0.38323974609375
1759571269741,702577480,35476,28,0.799072265625,0.18499755859375,0.49237060546875
1759571269741,702577480,35476,29,0.786865234375,0.17523193359375,0.43597412109375
1759571269741,702577480,35476,30,0.79296875,0.19647216796875,0.47747802734375
1759571269741,702577480,35476,31,0.786376953125,0.20379638671875,0.43133544921875
1759571272275,702580035,35477,0,0.79443359375,0.19036865234375,0.43939208984375
1759571272275,702580035,35477,1,0.8310546875,0.20574951171875,0.38714599609375
1759571272275,702580035,35477,2,0.783447265625,0.18621826171875,0.46356201171875
1759571272275,702580035,35477,3,0.75732421875,0.17742919921875,0.51214599609375
1759571272275,702580035,35477,4,0.75537109375,0.16986083984375,0.49822998046875
1759571272275,702580035,35477,5,0.822021484375,0.16497802734375,0.40838623046875
1759571272275,702580035,35477,6,0.79541015625,0.16375732421875,0.47869873046875
1759571272275,702580035,35477,7,0.77587890625,0.18743896484375,0.47528076171875
1759571272275,702580035,35477,8,0.80712890625,0.20086669921875,0.42205810546875
1759571272275,702580035,35477,9,0.7900390625,0.18109130859375,0.45355224609375
1759571272275,702580035,35477,10,0.79345703125,0.20062255859375,0.44476318359375
1759571272275,702580035,35477,11,0.8173828125,0.20770263671875,0.41668701171875
1759571272275,702580035,35477,12,0.77490234375,0.17596435546875,0.46624755859375
1759571272275,702580035,35477,13,0.748046875,0.17669677734375,0.52777099609375
1759571272275,702580035,35477,14,0.7705078125,0.17596435546875,0.47821044921875
1759571272275,702580035,35477,15,0.81689453125,0.17279052734375,0.40301513671875
1759571272275,702580035,35477,16,0.793212890625,0.15667724609375,0.49163818359375
1759571272275,702580035,35477,17,0.776611328125,0.20379638671875,0.47918701171875
1759571272275,702580035,35477,18,0.821044921875,0.20404052734375,0.42108154296875
1759571272275,702580035,35477,19,0.817138671875,0.18890380859375,0.40716552734375
1759571272275,702580035,35477,20,0.770263671875,0.18206787109375,0.48065185546875
1759571272275,702580035,35477,21,0.7607421875,0.18206787109375,0.49945068359375
1759571272275,702580035,35477,22,0.753662109375,0.17938232421875,0.51580810546875
1759571272275,702580035,35477,23,0.7890625,0.16009521484375,0.45404052734375
1759571272275,702580035,35477,24,0.82080078125,0.17816162109375,0.40985107421875
1759571272275,702580035,35477,25,0.777587890625,0.16815185546875,0.48406982421875
1759571272275,702580035,35477,26,0.758544921875,0.19403076171875,0.51190185546875
1759571272275,702580035,35477,27,0.818603515625,0.20355224609375,0.40643310546875
