receivedPhoneTimestamp,respeckTimestamp,packetSeqNum,sampleSeqNum,accelX,accelY,accelZ
1760360424096,608867613,7004,10,0.000732421875,-0.98297119140625,0.19720458984375
1760360424096,608867613,7004,11,0.001953125,-0.98126220703125,0.19940185546875
1760360424096,608867613,7004,12,0.001708984375,-0.97735595703125,0.20428466796875
1760360424096,608867613,7004,13,0.001953125,-0.97589111328125,0.20330810546875
1760360424096,608867613,7004,14,0.00244140625,-0.97808837890625,0.20843505859375
1760360424096,608867613,7004,15,-0.00146484375,-0.97686767578125,0.20697021484375
1760360424096,608867613,7004,16,-0.0009765625,-0.98052978515625,0.20623779296875
1760360424096,608867613,7004,17,0.003173828125,-0.97833251953125,0.20623779296875
1760360424096,608867613,7004,18,0.0009765625,-0.98004150390625,0.20233154296875
1760360424096,608867613,7004,19,0.002197265625,-0.97808837890625,0.20233154296875
1760360424096,608867613,7004,20,-0.003173828125,-0.98223876953125,0.20941162109375
1760360424096,608867613,7004,21,-0.005859375,-0.96978759765625,0.21893310546875
1760360424096,608867613,7004,22,-0.00927734375,-0.97442626953125,0.22064208984375
1760360424096,608867613,7004,23,-0.009765625,-0.97540283203125,0.22015380859375
1760360424096,608867613,7004,24,-0.00927734375,-0.97882080078125,0.21624755859375
1760360424096,608867613,7004,25,-0.006103515625,-0.97247314453125,0.21795654296875
1760360424096,608867613,7004,26,-0.005615234375,-0.97149658203125,0.22137451171875
1760360424096,608867613,7004,27,-0.01611328125,-0.97100830078125,0.22772216796875
1760360424096,608867613,7004,28,-0.012939453125,-0.97320556640625,0.22479248046875
1760360424096,608867613,7004,29,-0.005126953125,-0.97808837890625,0.22186279296875
1760360424096,608867613,7004,30,-0.002197265625,-0.97174072265625,0.21380615234375
1760360424096,608867613,7004,31,-0.008056640625,-0.97393798828125,0.21917724609375
1760360426694,608870198,7005,0,-0.008056640625,-0.97686767578125,0.22308349609375
1760360426694,608870198,7005,1,-0.009033203125,-0.96905517578125,0.22918701171875
1760360426694,608870198,7005,2,-0.007568359375,-0.97271728515625,0.22723388671875
1760360426694,608870198,7005,3,-0.005615234375,-0.97247314453125,0.22479248046875
1760360426694,608870198,7005,4,-0.002685546875,-0.97149658203125,0.22332763671875
1760360426694,608870198,7005,5,-0.012939453125,-0.97589111328125,0.22943115234375
1760360426694,608870198,7005,6,-0.020263671875,-0.96563720703125,0.23699951171875
1760360426694,608870198,7005,7,-0.01904296875,-0.97613525390625,0.23553466796875
1760360426694,608870198,7005,8,-0.0166015625,-0.96636962890625,0.23431396484375
1760360426694,608870198,7005,9,-0.0146484375,-0.96734619140625,0.22943115234375
1760360426694,608870198,7005,10,-0.018798828125,-0.96710205078125,0.23406982421875
1760360426694,608870198,7005,11,-0.020751953125,-0.96588134765625,0.23944091796875
1760360426694,608870198,7005,12,-0.021728515625,-0.96734619140625,0.23870849609375
1760360426694,608870198,7005,13,-0.015869140625,-0.96807861328125,0.23431396484375
1760360426694,608870198,7005,14,-0.012451171875,-0.97271728515625,0.22967529296875
1760360426694,608870198,7005,15,-0.01611328125,-0.96661376953125,0.23284912109375
1760360426694,608870198,7005,16,-0.024658203125,-0.96807861328125,0.24700927734375
1760360426694,608870198,7005,17,-0.0361328125,-0.95904541015625,0.25482177734375
1760360426694,608870198,7005,18,-0.025390625,-0.97784423828125,0.22088623046875
1760360426694,608870198,7005,19,-0.002197265625,-0.98565673828125,0.20721435546875
1760360426694,608870198,7005,20,-0.0029296875,-0.96051025390625,0.19256591796875
1760360426694,608870198,7005,21,-0.01220703125,-0.98126220703125,0.20379638671875
1760360426694,608870198,7005,22,-0.004638671875,-0.97637939453125,0.20965576171875
1760360426694,608870198,7005,23,-0.01318359375,-0.97076416015625,0.20965576171875
1760360426694,608870198,7005,24,-0.0078125,-0.98443603515625,0.20867919921875
1760360426694,608870198,7005,25,-0.00390625,-0.98492431640625,0.20697021484375
1760360426694,608870198,7005,26,0.00048828125,-0.97784423828125,0.21087646484375
1760360426694,608870198,7005,27,0.002197265625,-0.98297119140625,0.20355224609375
1760360426694,608870198,7005,28,-0.00048828125,-0.97271728515625,0.21209716796875
1760360426694,608870198,7005,29,-0.0048828125,-0.97027587890625,0.21917724609375
1760360426694,608870198,7005,30,-0.013427734375,-0.98175048828125,0.22186279296875
1760360426694,608870198,7005,31,-0.0068359375,-0.97052001953125,0.21429443359375
1760360429299,608872784,7006,0,0.00048828125,-0.98077392578125,0.20404052734375
1760360429299,608872784,7006,1,-0.000732421875,-0.98004150390625,0.20599365234375
1760360429299,608872784,7006,2,-0.0078125,-0.96832275390625,0.21575927734375
1760360429299,608872784,7006,3,-0.0126953125,-0.97857666015625,0.21697998046875
1760360429299,608872784,7006,4,-0.00732421875,-0.97198486328125,0.22235107421875
1760360429299,608872784,7006,5,-0.007080078125,-0.97174072265625,0.21575927734375
1760360429299,608872784,7006,6,-0.00634765625,-0.97906494140625,0.21063232421875
1760360429299,608872784,7006,7,-0.008544921875,-0.97100830078125,0.21331787109375
1760360429299,608872784,7006,8,-0.016845703125,-0.97271728515625,0.22308349609375
1760360429299,608872784,7006,9,-0.020751953125,-0.97222900390625,0.22674560546875
1760360429299,608872784,7006,10,-0.00390625,-0.98394775390625,0.21185302734375
1760360429299,608872784,7006,11,0.001953125,-0.97711181640625,0.20794677734375
1760360429299,608872784,7006,12,-0.00927734375,-0.97052001953125,0.21258544921875
1760360429299,608872784,7006,13,-0.010986328125,-0.97467041015625,0.21771240234375
1760360429299,608872784,7006,14,-0.010009765625,-0.97198486328125,0.22210693359375
1760360429299,608872784,7006,15,-0.011962890625,-0.97540283203125,0.21795654296875
1760360429299,608872784,7006,16,-0.00927734375,-0.98175048828125,0.21209716796875
1760360429299,608872784,7006,17,-0.013671875,-0.97418212890625,0.21795654296875
1760360429299,608872784,7006,18,-0.01171875,-0.97564697265625,0.21600341796875
1760360429299,608872784,7006,19,-0.017822265625,-0.97052001953125,0.22406005859375
1760360429299,608872784,7006,20,-0.024658203125,-0.97271728515625,0.23309326171875
1760360429299,608872784,7006,21,-0.01708984375,-0.97100830078125,0.22698974609375
1760360429299,608872784,7006,22,-0.0078125,-0.97174072265625,0.21405029296875
1760360429299,608872784,7006,23,-0.010498046875,-0.97344970703125,0.21722412109375
1760360429299,608872784,7006,24,-0.015869140625,-0.96954345703125,0.22674560546875
1760360429299,608872784,7006,25,-0.019775390625,-0.96807861328125,0.23333740234375
1760360429299,608872784,7006,26,-0.01953125,-0.97369384765625,0.23284912109375
1760360429299,608872784,7006,27,-0.018798828125,-0.96832275390625,0.22674560546875
1760360429299,608872784,7006,28,-0.01904296875,-0.97467041015625,0.22503662109375
1760360429299,608872784,7006,29,-0.014404296875,-0.97247314453125,0.22723388671875
1760360429299,608872784,7006,30,-0.016357421875,-0.96636962890625,0.23284912109375
1760360429299,608872784,7006,31,-0.023193359375,-0.96807861328125,0.24139404296875
1760360431897,608875369,7007,0,-0.0244140625,-0.97076416015625,0.23870849609375
1760360431897,608875369,7007,1,-0.017578125,-0.96978759765625,0.23431396484375
1760360431897,608875369,7007,2,-0.01806640625,-0.96905517578125,0.22772216796875
1760360431897,608875369,7007,3,-0.017578125,-0.96978759765625,0.23016357421875
1760360431897,608875369,7007,4,-0.02197265625,-0.96563720703125,0.23333740234375
1760360431897,608875369,7007,5,-0.0263671875,-0.96319580078125,0.23944091796875
1760360431897,608875369,7007,6,-0.0263671875,-0.96710205078125,0.24310302734375
1760360431897,608875369,7007,7,-0.016357421875,-0.98126220703125,0.22210693359375
1760360431897,608875369,7007,8,-0.018798828125,-0.96881103515625,0.21649169921875
1760360431897,608875369,7007,9,-0.0126953125,-0.97613525390625,0.22430419921875
1760360431897,608875369,7007,10,-0.018310546875,-0.97369384765625,0.22821044921875
1760360431897,608875369,7007,11,-0.022216796875,-0.97296142578125,0.23724365234375
1760360431897,608875369,7007,12,-0.02197265625,-0.96759033203125,0.23211669921875
1760360431897,608875369,7007,13,-0.0244140625,-0.97637939453125,0.23138427734375
1760360431897,608875369,7007,14,-0.0224609375,-0.95880126953125,0.23870849609375
1760360431897,608875369,7007,15,-0.025634765625,-0.96514892578125,0.24652099609375
1760360431897,608875369,7007,16,-0.02685546875,-0.96539306640625,0.24725341796875
1760360431897,608875369,7007,17,-0.0234375,-0.96417236328125,0.24383544921875
1760360431897,608875369,7007,18,-0.01953125,-0.96832275390625,0.24090576171875
1760360431897,608875369,7007,19,-0.022216796875,-0.96636962890625,0.23675537109375
1760360431897,608875369,7007,20,-0.021728515625,-0.96710205078125,0.23797607421875
1760360431897,608875369,7007,21,-0.025146484375,-0.96832275390625,0.24432373046875
1760360431897,608875369,7007,22,-0.02978515625,-0.96124267578125,0.24896240234375
1760360431897,608875369,7007,23,-0.03271484375,-0.97393798828125,0.23773193359375
1760360431897,608875369,7007,24,-0.03125,-0.95733642578125,0.25042724609375
1760360431897,608875369,7007,25,-0.0185546875,-0.98199462890625,0.23040771484375
1760360431897,608875369,7007,26,-0.015380859375,-0.96539306640625,0.21942138671875
1760360431897,608875369,7007,27,0.000732421875,-0.98590087890625,0.20379638671875
1760360431897,608875369,7007,28,-0.00537109375,-0.97174072265625,0.20648193359375
1760360431897,608875369,7007,29,-0.01123046875,-0.97955322265625,0.21453857421875
1760360431897,608875369,7007,30,-0.018798828125,-0.98443603515625,0.21600341796875
1760360431897,608875369,7007,31,-0.01513671875,-0.96929931640625,0.21966552734375
1760360434499,608877954,7008,0,-0.01025390625,-0.97198486328125,0.21771240234375
1760360434499,608877954,7008,1,-0.015869140625,-0.97662353515625,0.22113037109375
1760360434499,608877954,7008,2,-0.016357421875,-0.97589111328125,0.22015380859375
1760360434499,608877954,7008,3,-0.0107421875,-0.98150634765625,0.21624755859375
1760360434499,608877954,7008,4,-0.010009765625,-0.97344970703125,0.21185302734375
1760360434499,608877954,7008,5,-0.01220703125,-0.97442626953125,0.21453857421875
1760360434499,608877954,7008,6,-0.019775390625,-0.97540283203125,0.22381591796875
1760360434499,608877954,7008,7,-0.023193359375,-0.96636962890625,0.22991943359375
1760360434499,608877954,7008,8,-0.016357421875,-0.97613525390625,0.22503662109375
1760360434499,608877954,7008,9,-0.015380859375,-0.97393798828125,0.22088623046875
1760360434499,608877954,7008,10,-0.01513671875,-0.97442626953125,0.21844482421875
1760360434499,608877954,7008,11,-0.012451171875,-0.97589111328125,0.22064208984375
1760360434499,608877954,7008,12,-0.018310546875,-0.96832275390625,0.22430419921875
1760360434499,608877954,7008,13,-0.02587890625,-0.97271728515625,0.23162841796875
1760360434499,608877954,7008,14,-0.021728515625,-0.97686767578125,0.22650146484375
1760360434499,608877954,7008,15,-0.014404296875,-0.98077392578125,0.22259521484375
1760360434499,608877954,7008,16,-0.014404296875,-0.97344970703125,0.21649169921875
1760360434499,608877954,7008,17,-0.015625,-0.96563720703125,0.22723388671875
1760360434499,608877954,7008,18,-0.013916015625,-0.97760009765625,0.22430419921875
1760360434499,608877954,7008,19,-0.01611328125,-0.96929931640625,0.23040771484375
1760360434499,608877954,7008,20,-0.02099609375,-0.96807861328125,0.23333740234375
1760360434499,608877954,7008,21,-0.024169921875,-0.98101806640625,0.22454833984375
1760360434499,608877954,7008,22,-0.017578125,-0.96295166015625,0.22821044921875
1760360434499,608877954,7008,23,-0.018798828125,-0.97491455078125,0.22821044921875
1760360434499,608877954,7008,24,-0.026123046875,-0.96807861328125,0.23406982421875
1760360434499,608877954,7008,25,-0.02685546875,-0.96514892578125,0.23529052734375
1760360434499,608877954,7008,26,-0.025146484375,-0.96978759765625,0.23284912109375
1760360434499,608877954,7008,27,-0.023681640625,-0.96881103515625,0.23211669921875
1760360434499,608877954,7008,28,-0.0185546875,-0.97418212890625,0.22821044921875
1760360434499,608877954,7008,29,-0.018310546875,-0.97174072265625,0.23236083984375
1760360434499,608877954,7008,30,-0.0166015625,-0.96466064453125,0.23162841796875
1760360434499,608877954,7008,31,-0.021240234375,-0.97076416015625,0.23773193359375
1760360437097,608880539,7009,0,-0.02587890625,-0.97247314453125,0.24041748046875
1760360437097,608880539,7009,1,-0.0234375,-0.97271728515625,0.23724365234375
1760360437097,608880539,7009,2,-0.009521484375,-0.96563720703125,0.22161865234375
1760360437097,608880539,7009,3,-0.006103515625,-0.96759033203125,0.21063232421875
1760360437097,608880539,7009,4,-0.012939453125,-0.97930908203125,0.21844482421875
1760360437097,608880539,7009,5,-0.01513671875,-0.97784423828125,0.21966552734375
1760360437097,608880539,7009,6,-0.01171875,-0.97467041015625,0.21551513671875
1760360437097,608880539,7009,7,-0.01123046875,-0.97418212890625,0.21942138671875
1760360437097,608880539,7009,8,-0.01611328125,-0.97491455078125,0.21942138671875
1760360437097,608880539,7009,9,-0.0126953125,-0.97052001953125,0.22552490234375
1760360437097,608880539,7009,10,-0.013427734375,-0.97418212890625,0.22430419921875
1760360437097,608880539,7009,11,-0.0126953125,-0.97369384765625,0.22357177734375
1760360437097,608880539,7009,12,-0.0146484375,-0.97564697265625,0.21795654296875
1760360437097,608880539,7009,13,-0.010498046875,-0.97149658203125,0.22235107421875
1760360437097,608880539,7009,14,-0.015869140625,-0.97247314453125,0.22552490234375
1760360437097,608880539,7009,15,-0.0185546875,-0.97662353515625,0.22430419921875
1760360437097,608880539,7009,16,-0.011962890625,-0.97149658203125,0.22113037109375
1760360437097,608880539,7009,17,-0.015625,-0.97442626953125,0.22406005859375
1760360437097,608880539,7009,18,-0.01611328125,-0.97100830078125,0.22601318359375
1760360437097,608880539,7009,19,-0.0146484375,-0.97076416015625,0.22552490234375
1760360437097,608880539,7009,20,-0.01904296875,-0.97369384765625,0.22406005859375
1760360437097,608880539,7009,21,-0.021484375,-0.97393798828125,0.22894287109375
1760360437097,608880539,7009,22,-0.016845703125,-0.97369384765625,0.22650146484375
1760360437097,608880539,7009,23,-0.017578125,-0.97149658203125,0.22601318359375
1760360437097,608880539,7009,24,-0.01806640625,-0.97491455078125,0.22283935546875
1760360437097,608880539,7009,25,-0.017333984375,-0.96759033203125,0.22528076171875
1760360437097,608880539,7009,26,-0.0224609375,-0.97052001953125,0.23162841796875
1760360437097,608880539,7009,27,-0.020263671875,-0.97711181640625,0.23211669921875
1760360437097,608880539,7009,28,-0.017578125,-0.97589111328125,0.22332763671875
1760360437097,608880539,7009,29,-0.01806640625,-0.96246337890625,0.22918701171875
1760360437097,608880539,7009,30,-0.0205078125,-0.97027587890625,0.23553466796875
1760360437097,608880539,7009,31,-0.006103515625,-0.97174072265625,0.22918701171875
1760360439688,608883124,7010,0,-0.01025390625,-0.97857666015625,0.22869873046875
1760360439688,608883124,7010,1,-0.0068359375,-0.97686767578125,0.22113037109375
1760360439688,608883124,7010,2,-0.00732421875,-0.98443603515625,0.20965576171875
1760360439688,608883124,7010,3,-0.000732421875,-0.96612548828125,0.20404052734375
1760360439688,608883124,7010,4,-0.004150390625,-0.97515869140625,0.20526123046875
1760360439688,608883124,7010,5,-0.01416015625,-0.98565673828125,0.21087646484375
1760360439688,608883124,7010,6,-0.014892578125,-0.97442626953125,0.20526123046875
1760360439688,608883124,7010,7,-0.0126953125,-0.97808837890625,0.21136474609375
1760360439688,608883124,7010,8,-0.012451171875,-0.97076416015625,0.21136474609375
1760360439688,608883124,7010,9,-0.0126953125,-0.97467041015625,0.20941162109375
1760360439688,608883124,7010,10,-0.017333984375,-0.98199462890625,0.21356201171875
1760360439688,608883124,7010,11,-0.015869140625,-0.98004150390625,0.21331787109375
1760360439688,608883124,7010,12,-0.009033203125,-0.97247314453125,0.21575927734375
1760360439688,608883124,7010,13,-0.01318359375,-0.97735595703125,0.21649169921875
1760360439688,608883124,7010,14,-0.011474609375,-0.96783447265625,0.21893310546875
1760360439688,608883124,7010,15,-0.017578125,-0.97784423828125,0.22235107421875
1760360439688,608883124,7010,16,-0.0166015625,-0.97808837890625,0.22161865234375
1760360439688,608883124,7010,17,-0.014404296875,-0.97052001953125,0.22406005859375
1760360439688,608883124,7010,18,-0.0205078125,-0.97467041015625,0.22186279296875
1760360439688,608883124,7010,19,-0.01953125,-0.97979736328125,0.21868896484375
1760360439688,608883124,7010,20,-0.01025390625,-0.96832275390625,0.22137451171875
1760360439688,608883124,7010,21,-0.014404296875,-0.97564697265625,0.21697998046875
1760360439688,608883124,7010,22,-0.0185546875,-0.97174072265625,0.22576904296875
1760360439688,608883124,7010,23,-0.0224609375,-0.96734619140625,0.23162841796875
1760360439688,608883124,7010,24,-0.015380859375,-0.97491455078125,0.22381591796875
1760360439688,608883124,7010,25,-0.011962890625,-0.97662353515625,0.22210693359375
1760360439688,608883124,7010,26,-0.014892578125,-0.97637939453125,0.22235107421875
1760360439688,608883124,7010,27,-0.0166015625,-0.96710205078125,0.22869873046875
1760360439688,608883124,7010,28,-0.022216796875,-0.96661376953125,0.22747802734375
1760360439688,608883124,7010,29,-0.0224609375,-0.97857666015625,0.23065185546875
1760360439688,608883124,7010,30,-0.021484375,-0.96807861328125,0.22869873046875
1760360439688,608883124,7010,31,-0.01806640625,-0.97735595703125,0.22454833984375
1760360442292,608885709,7011,0,-0.015625,-0.96807861328125,0.22161865234375
1760360442292,608885709,7011,1,-0.01953125,-0.96978759765625,0.22967529296875
1760360442292,608885709,7011,2,-0.023193359375,-0.96905517578125,0.23504638671875
1760360442292,608885709,7011,3,-0.02392578125,-0.96881103515625,0.23944091796875
1760360442292,608885709,7011,4,-0.021484375,-0.96978759765625,0.23455810546875
1760360442292,608885709,7011,5,-0.0185546875,-0.97442626953125,0.23089599609375
1760360442292,608885709,7011,6,-0.020263671875,-0.97149658203125,0.22650146484375
1760360442292,608885709,7011,7,-0.019775390625,-0.97296142578125,0.23577880859375
1760360442292,608885709,7011,8,-0.029052734375,-0.96270751953125,0.24652099609375
1760360442292,608885709,7011,9,-0.026123046875,-0.98052978515625,0.23748779296875
1760360442292,608885709,7011,10,-0.021728515625,-0.95831298828125,0.24041748046875
1760360442292,608885709,7011,11,-0.01025390625,-0.97076416015625,0.22698974609375
1760360442292,608885709,7011,12,-0.018798828125,-0.97906494140625,0.23162841796875
1760360442292,608885709,7011,13,-0.0087890625,-0.96197509765625,0.21258544921875
1760360442292,608885709,7011,14,-0.00390625,-0.98687744140625,0.20697021484375
1760360442292,608885709,7011,15,-0.011962890625,-0.97320556640625,0.21282958984375
1760360442292,608885709,7011,16,-0.01416015625,-0.98297119140625,0.21282958984375
1760360442292,608885709,7011,17,-0.014404296875,-0.97613525390625,0.21234130859375
1760360442292,608885709,7011,18,-0.014892578125,-0.97052001953125,0.21795654296875
1760360442292,608885709,7011,19,-0.018310546875,-0.97589111328125,0.21893310546875
1760360442292,608885709,7011,20,-0.02099609375,-0.97540283203125,0.22235107421875
1760360442292,608885709,7011,21,-0.019287109375,-0.97540283203125,0.22210693359375
1760360442292,608885709,7011,22,-0.0185546875,-0.98004150390625,0.21673583984375
1760360442292,608885709,7011,23,-0.014892578125,-0.97222900390625,0.21990966796875
1760360442292,608885709,7011,24,-0.017578125,-0.97467041015625,0.21966552734375
1760360442292,608885709,7011,25,-0.02392578125,-0.97711181640625,0.22772216796875
1760360442292,608885709,7011,26,-0.022216796875,-0.96856689453125,0.22601318359375
1760360442292,608885709,7011,27,-0.018798828125,-0.97393798828125,0.22186279296875
1760360442292,608885709,7011,28,-0.015625,-0.97711181640625,0.21575927734375
1760360442292,608885709,7011,29,-0.01416015625,-0.97515869140625,0.21746826171875
1760360442292,608885709,7011,30,-0.0185546875,-0.97613525390625,0.22210693359375
1760360442292,608885709,7011,31,-0.023193359375,-0.96636962890625,0.23187255859375
1760360444697,608888294,7012,0,-0.023193359375,-0.97686767578125,0.23284912109375
1760360444697,608888294,7012,1,-0.01953125,-0.97271728515625,0.22406005859375
1760360444697,608888294,7012,2,-0.016845703125,-0.97662353515625,0.21673583984375
1760360444697,608888294,7012,3,-0.0185546875,-0.96954345703125,0.22088623046875
1760360444697,608888294,7012,4,-0.024658203125,-0.97198486328125,0.22747802734375
1760360444697,608888294,7012,5,-0.028564453125,-0.96856689453125,0.23455810546875
1760360444697,608888294,7012,6,-0.021484375,-0.96929931640625,0.23089599609375
1760360444697,608888294,7012,7,-0.017822265625,-0.96954345703125,0.22186279296875
1760360444697,608888294,7012,8,-0.0185546875,-0.97003173828125,0.22552490234375
1760360444697,608888294,7012,9,-0.02099609375,-0.96807861328125,0.23065185546875
1760360444697,608888294,7012,10,-0.02392578125,-0.96612548828125,0.23602294921875
1760360444697,608888294,7012,11,-0.02685546875,-0.97296142578125,0.24017333984375
1760360444697,608888294,7012,12,-0.023681640625,-0.96759033203125,0.23626708984375
1760360444697,608888294,7012,13,-0.016845703125,-0.97222900390625,0.22845458984375
1760360444697,608888294,7012,14,-0.017822265625,-0.96807861328125,0.23138427734375
1760360444697,608888294,7012,15,-0.02294921875,-0.96563720703125,0.24237060546875
1760360444697,608888294,7012,16,-0.025146484375,-0.96563720703125,0.24456787109375
1760360444697,608888294,7012,17,-0.0234375,-0.96734619140625,0.24041748046875
1760360444697,608888294,7012,18,-0.02294921875,-0.97100830078125,0.23626708984375
1760360444697,608888294,7012,19,-0.01904296875,-0.97052001953125,0.23236083984375
1760360444697,608888294,7012,20,-0.01904296875,-0.96881103515625,0.23138427734375
1760360444697,608888294,7012,21,-0.023681640625,-0.96734619140625,0.24090576171875
1760360444697,608888294,7012,22,-0.02880859375,-0.96490478515625,0.24676513671875
1760360444697,608888294,7012,23,-0.029052734375,-0.97125244140625,0.24017333984375
1760360444697,608888294,7012,24,-0.026123046875,-0.96246337890625,0.24407958984375
1760360444697,608888294,7012,25,-0.014404296875,-0.97271728515625,0.23211669921875
1760360444697,608888294,7012,26,-0.004638671875,-0.96490478515625,0.20989990234375
1760360444697,608888294,7012,27,-0.002197265625,-0.98101806640625,0.20526123046875
1760360444697,608888294,7012,28,-0.0009765625,-0.97930908203125,0.20892333984375
1760360444697,608888294,7012,29,-0.0048828125,-0.98565673828125,0.20916748046875
1760360444697,608888294,7012,30,-0.01416015625,-0.97979736328125,0.21453857421875
1760360444697,608888294,7012,31,-0.015625,-0.96954345703125,0.22113037109375
1760360447295,608890880,7013,0,-0.01611328125,-0.97442626953125,0.21649169921875
1760360447295,608890880,7013,1,-0.017822265625,-0.97784423828125,0.21185302734375
1760360447295,608890880,7013,2,-0.01904296875,-0.97442626953125,0.21868896484375
1760360447295,608890880,7013,3,-0.0185546875,-0.98028564453125,0.21502685546875
1760360447295,608890880,7013,4,-0.02392578125,-0.97320556640625,0.21234130859375
1760360447295,608890880,7013,5,-0.021240234375,-0.97320556640625,0.21136474609375
1760360447295,608890880,7013,6,-0.02099609375,-0.97686767578125,0.21893310546875
1760360447295,608890880,7013,7,-0.024658203125,-0.97344970703125,0.22406005859375
1760360447295,608890880,7013,8,-0.02099609375,-0.97320556640625,0.22283935546875
1760360447295,608890880,7013,9,-0.023193359375,-0.97589111328125,0.21551513671875
1760360447295,608890880,7013,10,-0.021728515625,-0.98052978515625,0.21917724609375
1760360447295,608890880,7013,11,-0.01904296875,-0.97784423828125,0.21942138671875
1760360447295,608890880,7013,12,-0.02294921875,-0.97100830078125,0.22552490234375
1760360447295,608890880,7013,13,-0.02587890625,-0.97076416015625,0.23016357421875
1760360447295,608890880,7013,14,-0.02294921875,-0.96905517578125,0.22601318359375
1760360447295,608890880,7013,15,-0.019287109375,-0.97198486328125,0.22332763671875
1760360447295,608890880,7013,16,-0.0166015625,-0.97515869140625,0.21942138671875
1760360447295,608890880,7013,17,-0.02099609375,-0.97271728515625,0.22552490234375
1760360447295,608890880,7013,18,-0.027587890625,-0.97198486328125,0.23260498046875
1760360447295,608890880,7013,19,-0.0283203125,-0.97491455078125,0.22991943359375
1760360447295,608890880,7013,20,-0.021240234375,-0.97393798828125,0.22503662109375
1760360447295,608890880,7013,21,-0.017822265625,-0.97320556640625,0.22406005859375
1760360447295,608890880,7013,22,-0.02294921875,-0.97564697265625,0.22552490234375
1760360447295,608890880,7013,23,-0.023193359375,-0.96807861328125,0.23065185546875
1760360447295,608890880,7013,24,-0.029052734375,-0.96636962890625,0.23822021484375
1760360447295,608890880,7013,25,-0.02685546875,-0.97125244140625,0.23480224609375
1760360447295,608890880,7013,26,-0.021728515625,-0.97052001953125,0.22698974609375
1760360447295,608890880,7013,27,-0.01904296875,-0.96978759765625,0.22406005859375
1760360447295,608890880,7013,28,-0.019287109375,-0.96734619140625,0.22772216796875
1760360447295,608890880,7013,29,-0.024169921875,-0.96661376953125,0.23724365234375
1760360447295,608890880,7013,30,-0.02587890625,-0.96710205078125,0.24163818359375
1760360447295,608890880,7013,31,-0.02392578125,-0.97247314453125,0.23748779296875
1760360450095,608893465,7014,0,-0.01708984375,-0.96832275390625,0.22869873046875
1760360450095,608893465,7014,1,-0.01953125,-0.96832275390625,0.22943115234375
1760360450095,608893465,7014,2,-0.0224609375,-0.97076416015625,0.23016357421875
1760360450095,608893465,7014,3,-0.0263671875,-0.96978759765625,0.23748779296875
1760360450095,608893465,7014,4,-0.029541015625,-0.96636962890625,0.24432373046875
1760360450095,608893465,7014,5,-0.025634765625,-0.98150634765625,0.23382568359375
1760360450095,608893465,7014,6,-0.029541015625,-0.96026611328125,0.24920654296875
1760360450095,608893465,7014,7,-0.004150390625,-0.96978759765625,0.21746826171875
1760360450095,608893465,7014,8,-0.001708984375,-0.96685791015625,0.20501708984375
1760360450095,608893465,7014,9,-0.00244140625,-0.97320556640625,0.20477294921875
1760360450095,608893465,7014,10,-0.009033203125,-0.98541259765625,0.20843505859375
1760360450095,608893465,7014,11,-0.010986328125,-0.98736572265625,0.20941162109375
1760360450095,608893465,7014,12,-0.015869140625,-0.96661376953125,0.21331787109375
1760360450095,608893465,7014,13,-0.008544921875,-0.98199462890625,0.21038818359375
1760360450095,608893465,7014,14,-0.009521484375,-0.97442626953125,0.21356201171875
1760360450095,608893465,7014,15,-0.01806640625,-0.97149658203125,0.22186279296875
1760360450095,608893465,7014,16,-0.013671875,-0.97857666015625,0.22039794921875
1760360450095,608893465,7014,17,-0.010009765625,-0.97149658203125,0.21771240234375
1760360450095,608893465,7014,18,-0.011962890625,-0.97613525390625,0.21502685546875
1760360450095,608893465,7014,19,-0.01171875,-0.97491455078125,0.21990966796875
1760360450095,608893465,7014,20,-0.020263671875,-0.97320556640625,0.22650146484375
1760360450095,608893465,7014,21,-0.01513671875,-0.97393798828125,0.22406005859375
1760360450095,608893465,7014,22,-0.012451171875,-0.97686767578125,0.21600341796875
1760360450095,608893465,7014,23,-0.0126953125,-0.97222900390625,0.21551513671875
1760360450095,608893465,7014,24,-0.0146484375,-0.96954345703125,0.21990966796875
1760360450095,608893465,7014,25,-0.018310546875,-0.97344970703125,0.22991943359375
1760360450095,608893465,7014,26,-0.018798828125,-0.96734619140625,0.22918701171875
1760360450095,608893465,7014,27,-0.018310546875,-0.97344970703125,0.22723388671875
1760360450095,608893465,7014,28,-0.018310546875,-0.97833251953125,0.22064208984375
1760360450095,608893465,7014,29,-0.020263671875,-0.97149658203125,0.21990966796875
1760360450095,608893465,7014,30,-0.016845703125,-0.97418212890625,0.22332763671875
1760360450095,608893465,7014,31,-0.020263671875,-0.97052001953125,0.22479248046875
1760360452496,608896050,7015,0,-0.02978515625,-0.96856689453125,0.23602294921875
1760360452496,608896050,7015,1,-0.02587890625,-0.97174072265625,0.23406982421875
1760360452496,608896050,7015,2,-0.02490234375,-0.97906494140625,0.23480224609375
1760360452496,608896050,7015,3,-0.01708984375,-0.96734619140625,0.21868896484375
1760360452496,608896050,7015,4,-0.013427734375,-0.97540283203125,0.21282958984375
1760360452496,608896050,7015,5,-0.0078125,-0.96343994140625,0.20574951171875
1760360452496,608896050,7015,6,-0.013671875,-0.99029541015625,0.21990966796875
1760360452496,608896050,7015,7,-0.009765625,-0.97808837890625,0.21038818359375
1760360452496,608896050,7015,8,-0.01123046875,-0.97808837890625,0.21209716796875
1760360452496,608896050,7015,9,-0.0146484375,-0.97515869140625,0.21282958984375
1760360452496,608896050,7015,10,-0.0146484375,-0.97344970703125,0.21893310546875
1760360452496,608896050,7015,11,-0.01611328125,-0.97320556640625,0.21942138671875
1760360452496,608896050,7015,12,-0.013916015625,-0.97076416015625,0.21844482421875
1760360452496,608896050,7015,13,-0.0185546875,-0.97711181640625,0.21990966796875
1760360452496,608896050,7015,14,-0.014404296875,-0.97125244140625,0.21942138671875
1760360452496,608896050,7015,15,-0.01416015625,-0.97711181640625,0.21917724609375
1760360452496,608896050,7015,16,-0.015380859375,-0.97589111328125,0.21624755859375
1760360452496,608896050,7015,17,-0.019775390625,-0.97100830078125,0.21942138671875
1760360452496,608896050,7015,18,-0.025634765625,-0.97760009765625,0.22796630859375
1760360452496,608896050,7015,19,-0.019775390625,-0.97564697265625,0.22552490234375
1760360452496,608896050,7015,20,-0.01513671875,-0.96832275390625,0.22015380859375
1760360452496,608896050,7015,21,-0.01708984375,-0.97540283203125,0.22186279296875
1760360452496,608896050,7015,22,-0.020263671875,-0.96954345703125,0.22479248046875
1760360452496,608896050,7015,23,-0.022705078125,-0.97296142578125,0.22625732421875
1760360452496,608896050,7015,24,-0.0185546875,-0.97344970703125,0.22137451171875
1760360452496,608896050,7015,25,-0.014404296875,-0.97979736328125,0.21551513671875
1760360452496,608896050,7015,26,-0.016845703125,-0.97100830078125,0.21624755859375
1760360452496,608896050,7015,27,-0.018798828125,-0.97735595703125,0.22381591796875
1760360452496,608896050,7015,28,-0.021484375,-0.96978759765625,0.23065185546875
1760360452496,608896050,7015,29,-0.024169921875,-0.97467041015625,0.22821044921875
1760360452496,608896050,7015,30,-0.01708984375,-0.97735595703125,0.22064208984375
1760360452496,608896050,7015,31,-0.017822265625,-0.97149658203125,0.22235107421875
1760360455090,608898635,7016,0,-0.021484375,-0.96954345703125,0.22283935546875
1760360455090,608898635,7016,1,-0.02783203125,-0.97198486328125,0.23382568359375
1760360455090,608898635,7016,2,-0.0302734375,-0.97320556640625,0.23138427734375
1760360455090,608898635,7016,3,-0.020263671875,-0.97125244140625,0.22235107421875
1760360455090,608898635,7016,4,-0.01708984375,-0.98028564453125,0.22332763671875
1760360455090,608898635,7016,5,-0.026123046875,-0.98004150390625,0.23162841796875
