receivedPhoneTimestamp,respeckTimestamp,packetSeqNum,sampleSeqNum,accelX,accelY,accelZ
1759571507832,702815103,35569,0,0.243896484375,0.14984130859375,-0.97125244140625
1759571507832,702815103,35569,1,0.244384765625,0.15252685546875,-0.97222900390625
1759571507832,702815103,35569,2,0.243408203125,0.15252685546875,-0.96978759765625
1759571507832,702815103,35569,3,0.244873046875,0.15325927734375,-0.97149658203125
1759571507832,702815103,35569,4,0.245361328125,0.15423583984375,-0.97393798828125
1759571507832,702815103,35569,5,0.243408203125,0.15008544921875,-0.97076416015625
1759571507832,702815103,35569,6,0.243408203125,0.15155029296875,-0.97589111328125
1759571507832,702815103,35569,7,0.243896484375,0.15228271484375,-0.97247314453125
1759571507832,702815103,35569,8,0.244140625,0.15130615234375,-0.96954345703125
1759571507832,702815103,35569,9,0.246826171875,0.15130615234375,-0.97418212890625
1759571507832,702815103,35569,10,0.243408203125,0.15228271484375,-0.97344970703125
1759571507832,702815103,35569,11,0.24462890625,0.15350341796875,-0.97125244140625
1759571507832,702815103,35569,12,0.248779296875,0.14935302734375,-0.97589111328125
1759571507832,702815103,35569,13,0.245849609375,0.15203857421875,-0.97418212890625
1759571507832,702815103,35569,14,0.24560546875,0.14984130859375,-0.96783447265625
1759571507832,702815103,35569,15,0.245849609375,0.15179443359375,-0.97735595703125
1759571507832,702815103,35569,16,0.24658203125,0.14788818359375,-0.97027587890625
1759571507832,702815103,35569,17,0.246337890625,0.15277099609375,-0.97174072265625
1759571507832,702815103,35569,18,0.244873046875,0.15374755859375,-0.98004150390625
1759571507832,702815103,35569,19,0.244873046875,0.15155029296875,-0.96929931640625
1759571507832,702815103,35569,20,0.243896484375,0.15570068359375,-0.97174072265625
1759571507832,702815103,35569,21,0.24560546875,0.15228271484375,-0.97369384765625
1759571507832,702815103,35569,22,0.249755859375,0.15399169921875,-0.97027587890625
1759571507832,702815103,35569,23,0.245849609375,0.15716552734375,-0.97589111328125
1759571507832,702815103,35569,24,0.2470703125,0.15374755859375,-0.97491455078125
1759571507832,702815103,35569,25,0.244873046875,0.15203857421875,-0.97247314453125
1759571507832,702815103,35569,26,0.247314453125,0.15594482421875,-0.97979736328125
1759571507832,702815103,35569,27,0.243896484375,0.15032958984375,-0.98028564453125
1759571507832,702815103,35569,28,0.236083984375,0.13787841796875,-0.94805908203125
1759571507832,702815103,35569,29,0.23828125,0.15277099609375,-0.97369384765625
1759571507832,702815103,35569,30,0.24462890625,0.14935302734375,-0.97613525390625
1759571507832,702815103,35569,31,0.24365234375,0.15008544921875,-0.97784423828125
1759571510368,702817658,35570,0,0.241455078125,0.15203857421875,-0.97686767578125
1759571510368,702817658,35570,1,0.24169921875,0.15277099609375,-0.96881103515625
1759571510368,702817658,35570,2,0.245361328125,0.15277099609375,-0.97515869140625
1759571510368,702817658,35570,3,0.245849609375,0.15179443359375,-0.97833251953125
1759571510368,702817658,35570,4,0.2412109375,0.15057373046875,-0.96368408203125
1759571510368,702817658,35570,5,0.24462890625,0.15277099609375,-0.97613525390625
1759571510368,702817658,35570,6,0.246337890625,0.15032958984375,-0.97808837890625
1759571510368,702817658,35570,7,0.239990234375,0.15057373046875,-0.96881103515625
1759571510368,702817658,35570,8,0.2421875,0.15008544921875,-0.97760009765625
1759571510368,702817658,35570,9,0.242431640625,0.15252685546875,-0.97198486328125
1759571510368,702817658,35570,10,0.241943359375,0.15008544921875,-0.97027587890625
1759571510368,702817658,35570,11,0.245361328125,0.15301513671875,-0.97735595703125
1759571510368,702817658,35570,12,0.243408203125,0.15228271484375,-0.96954345703125
1759571510368,702817658,35570,13,0.243896484375,0.15081787109375,-0.97247314453125
1759571510368,702817658,35570,14,0.244140625,0.15081787109375,-0.97442626953125
1759571510368,702817658,35570,15,0.24072265625,0.15057373046875,-0.97271728515625
1759571510368,702817658,35570,16,0.24462890625,0.14984130859375,-0.97198486328125
1759571510368,702817658,35570,17,0.2412109375,0.15130615234375,-0.96929931640625
1759571510368,702817658,35570,18,0.244384765625,0.15106201171875,-0.97247314453125
1759571510368,702817658,35570,19,0.23876953125,0.14837646484375,-0.96905517578125
1759571510368,702817658,35570,20,0.24365234375,0.15301513671875,-0.98126220703125
1759571510368,702817658,35570,21,0.24560546875,0.14373779296875,-0.96759033203125
1759571510368,702817658,35570,22,0.24462890625,0.15032958984375,-0.97711181640625
1759571510368,702817658,35570,23,0.244873046875,0.14910888671875,-0.97027587890625
1759571510368,702817658,35570,24,0.24853515625,0.15252685546875,-0.98712158203125
1759571510368,702817658,35570,25,0.24267578125,0.14447021484375,-0.96343994140625
1759571510368,702817658,35570,26,0.246337890625,0.15008544921875,-0.97052001953125
1759571510368,702817658,35570,27,0.249755859375,0.14886474609375,-0.98321533203125
1759571510368,702817658,35570,28,0.240478515625,0.14642333984375,-0.96466064453125
1759571510368,702817658,35570,29,0.247314453125,0.14935302734375,-0.97369384765625
1759571510368,702817658,35570,30,0.24755859375,0.14862060546875,-0.98004150390625
1759571510368,702817658,35570,31,0.243896484375,0.14862060546875,-0.96954345703125
1759571512902,702820213,35571,0,0.2470703125,0.14837646484375,-0.97686767578125
1759571512902,702820213,35571,1,0.24560546875,0.15081787109375,-0.97540283203125
1759571512902,702820213,35571,2,0.244873046875,0.14886474609375,-0.96881103515625
1759571512902,702820213,35571,3,0.245849609375,0.14959716796875,-0.97369384765625
1759571512902,702820213,35571,4,0.246337890625,0.14642333984375,-0.97491455078125
1759571512902,702820213,35571,5,0.24560546875,0.14984130859375,-0.97540283203125
1759571512902,702820213,35571,6,0.241455078125,0.14837646484375,-0.97003173828125
1759571512902,702820213,35571,7,0.24267578125,0.14739990234375,-0.97344970703125
1759571512902,702820213,35571,8,0.248291015625,0.15228271484375,-0.98126220703125
1759571512902,702820213,35571,9,0.243896484375,0.15032958984375,-0.97076416015625
1759571512902,702820213,35571,10,0.244384765625,0.14520263671875,-0.96783447265625
1759571512902,702820213,35571,11,0.245849609375,0.15228271484375,-0.97955322265625
1759571512902,702820213,35571,12,0.243408203125,0.14910888671875,-0.96661376953125
1759571512902,702820213,35571,13,0.24267578125,0.14935302734375,-0.96636962890625
1759571512902,702820213,35571,14,0.24755859375,0.15081787109375,-0.97637939453125
1759571512902,702820213,35571,15,0.243896484375,0.15179443359375,-0.97027587890625
1759571512902,702820213,35571,16,0.245361328125,0.14935302734375,-0.96759033203125
1759571512902,702820213,35571,17,0.24755859375,0.15057373046875,-0.98101806640625
1759571512902,702820213,35571,18,0.242919921875,0.14666748046875,-0.96807861328125
1759571512902,702820213,35571,19,0.24365234375,0.15692138671875,-0.97760009765625
1759571512902,702820213,35571,20,0.241943359375,0.15155029296875,-0.97613525390625
1759571512902,702820213,35571,21,0.24169921875,0.15252685546875,-0.96856689453125
1759571512902,702820213,35571,22,0.24169921875,0.15130615234375,-0.96978759765625
1759571512902,702820213,35571,23,0.241943359375,0.15179443359375,-0.97979736328125
1759571512902,702820213,35571,24,0.23876953125,0.15496826171875,-0.97296142578125
1759571512902,702820213,35571,25,0.240234375,0.15301513671875,-0.97418212890625
1759571512902,702820213,35571,26,0.243408203125,0.15277099609375,-0.97467041015625
1759571512902,702820213,35571,27,0.244873046875,0.15179443359375,-0.97369384765625
1759571512902,702820213,35571,28,0.2451171875,0.15350341796875,-0.97857666015625
1759571512902,702820213,35571,29,0.239990234375,0.15081787109375,-0.96710205078125
1759571512902,702820213,35571,30,0.241943359375,0.15252685546875,-0.97344970703125
1759571512902,702820213,35571,31,0.246826171875,0.15350341796875,-0.97344970703125
1759571515631,702822768,35572,0,0.240478515625,0.15472412109375,-0.97100830078125
1759571515631,702822768,35572,1,0.242919921875,0.15106201171875,-0.97222900390625
1759571515631,702822768,35572,2,0.24560546875,0.15130615234375,-0.97979736328125
1759571515631,702822768,35572,3,0.242919921875,0.15228271484375,-0.97344970703125
1759571515631,702822768,35572,4,0.242431640625,0.14935302734375,-0.97100830078125
1759571515631,702822768,35572,5,0.242919921875,0.15228271484375,-0.98028564453125
1759571515631,702822768,35572,6,0.2412109375,0.15057373046875,-0.97149658203125
1759571515631,702822768,35572,7,0.243896484375,0.15106201171875,-0.96490478515625
1759571515631,702822768,35572,8,0.244384765625,0.14910888671875,-0.97760009765625
1759571515631,702822768,35572,9,0.245849609375,0.15228271484375,-0.97735595703125
1759571515631,702822768,35572,10,0.243408203125,0.14984130859375,-0.96685791015625
1759571515631,702822768,35572,11,0.244140625,0.15252685546875,-0.97247314453125
1759571515631,702822768,35572,12,0.243408203125,0.14984130859375,-0.97564697265625
1759571515631,702822768,35572,13,0.242919921875,0.15081787109375,-0.97125244140625
1759571515631,702822768,35572,14,0.24365234375,0.15008544921875,-0.97247314453125
1759571515631,702822768,35572,15,0.245849609375,0.15399169921875,-0.98101806640625
1759571515631,702822768,35572,16,0.239501953125,0.15277099609375,-0.97222900390625
1759571515631,702822768,35572,17,0.2431640625,0.15423583984375,-0.96905517578125
1759571515631,702822768,35572,18,0.244873046875,0.15399169921875,-0.97344970703125
1759571515631,702822768,35572,19,0.240478515625,0.15692138671875,-0.97344970703125
1759571515631,702822768,35572,20,0.242919921875,0.15472412109375,-0.97393798828125
1759571515631,702822768,35572,21,0.24853515625,0.15594482421875,-0.97784423828125
1759571515631,702822768,35572,22,0.240966796875,0.15277099609375,-0.97100830078125
1759571515631,702822768,35572,23,0.244140625,0.15179443359375,-0.97393798828125
1759571515631,702822768,35572,24,0.244384765625,0.15618896484375,-0.97662353515625
1759571515631,702822768,35572,25,0.245849609375,0.15325927734375,-0.97222900390625
1759571515631,702822768,35572,26,0.244384765625,0.15106201171875,-0.97100830078125
1759571515631,702822768,35572,27,0.24853515625,0.15496826171875,-0.98175048828125
1759571515631,702822768,35572,28,0.248046875,0.14300537109375,-0.97613525390625
1759571515631,702822768,35572,29,0.2412109375,0.14447021484375,-0.95977783203125
1759571515631,702822768,35572,30,0.2470703125,0.14520263671875,-0.97833251953125
1759571515631,702822768,35572,31,0.2431640625,0.13885498046875,-0.96343994140625
1759571518167,702825323,35573,0,0.246826171875,0.14739990234375,-0.97467041015625
1759571518167,702825323,35573,1,0.248779296875,0.14593505859375,-0.97930908203125
1759571518167,702825323,35573,2,0.247802734375,0.14300537109375,-0.97320556640625
1759571518167,702825323,35573,3,0.24658203125,0.14349365234375,-0.97442626953125
1759571518167,702825323,35573,4,0.24658203125,0.14154052734375,-0.97906494140625
1759571518167,702825323,35573,5,0.244384765625,0.13861083984375,-0.97662353515625
1759571518167,702825323,35573,6,0.24365234375,0.13909912109375,-0.96490478515625
1759571518167,702825323,35573,7,0.24658203125,0.13934326171875,-0.97344970703125
1759571518167,702825323,35573,8,0.253173828125,0.14080810546875,-0.98492431640625
1759571518167,702825323,35573,9,0.250732421875,0.14129638671875,-0.97344970703125
1759571518167,702825323,35573,10,0.2451171875,0.13836669921875,-0.96343994140625
1759571518167,702825323,35573,11,0.247802734375,0.13885498046875,-0.97711181640625
1759571518167,702825323,35573,12,0.2470703125,0.13885498046875,-0.96636962890625
1759571518167,702825323,35573,13,0.2509765625,0.14764404296875,-0.98516845703125
1759571518167,702825323,35573,14,0.24853515625,0.14300537109375,-0.96588134765625
1759571518167,702825323,35573,15,0.25,0.14056396484375,-0.97491455078125
1759571518167,702825323,35573,16,0.251220703125,0.14764404296875,-0.97808837890625
1759571518167,702825323,35573,17,0.24951171875,0.14276123046875,-0.96636962890625
1759571518167,702825323,35573,18,0.251220703125,0.14569091796875,-0.97247314453125
1759571518167,702825323,35573,19,0.24853515625,0.14447021484375,-0.97760009765625
1759571518167,702825323,35573,20,0.248291015625,0.14471435546875,-0.97491455078125
1759571518167,702825323,35573,21,0.25,0.14520263671875,-0.97052001953125
1759571518167,702825323,35573,22,0.248291015625,0.14276123046875,-0.98004150390625
1759571518167,702825323,35573,23,0.247802734375,0.14642333984375,-0.97174072265625
1759571518167,702825323,35573,24,0.245849609375,0.14324951171875,-0.96881103515625
1759571518167,702825323,35573,25,0.24853515625,0.14373779296875,-0.97662353515625
1759571518167,702825323,35573,26,0.2490234375,0.14471435546875,-0.97198486328125
1759571518167,702825323,35573,27,0.24462890625,0.14178466796875,-0.96783447265625
1759571518167,702825323,35573,28,0.24951171875,0.14154052734375,-0.98101806640625
1759571518167,702825323,35573,29,0.2451171875,0.14056396484375,-0.96856689453125
1759571518167,702825323,35573,30,0.2490234375,0.14373779296875,-0.97393798828125
1759571518167,702825323,35573,31,0.250732421875,0.14569091796875,-0.98345947265625
1759571520699,702827878,35574,0,0.2509765625,0.14349365234375,-0.97686767578125
1759571520699,702827878,35574,1,0.24365234375,0.13934326171875,-0.95733642578125
1759571520699,702827878,35574,2,0.248779296875,0.14324951171875,-0.98419189453125
1759571520699,702827878,35574,3,0.251220703125,0.14617919921875,-0.98004150390625
1759571520699,702827878,35574,4,0.244873046875,0.13934326171875,-0.95806884765625
1759571520699,702827878,35574,5,0.249755859375,0.14324951171875,-0.97930908203125
1759571520699,702827878,35574,6,0.24951171875,0.14642333984375,-0.98248291015625
1759571520699,702827878,35574,7,0.24267578125,0.14105224609375,-0.95391845703125
1759571520699,702827878,35574,8,0.249755859375,0.14910888671875,-0.98052978515625
1759571520699,702827878,35574,9,0.24853515625,0.14471435546875,-0.97686767578125
1759571520699,702827878,35574,10,0.2431640625,0.14471435546875,-0.96392822265625
1759571520699,702827878,35574,11,0.25048828125,0.14447021484375,-0.98028564453125
1759571520699,702827878,35574,12,0.250244140625,0.14544677734375,-0.97686767578125
1759571520699,702827878,35574,13,0.246337890625,0.14373779296875,-0.96441650390625
1759571520699,702827878,35574,14,0.2490234375,0.14520263671875,-0.97784423828125
1759571520699,702827878,35574,15,0.246826171875,0.14495849609375,-0.97393798828125
1759571520699,702827878,35574,16,0.247802734375,0.14202880859375,-0.97369384765625
1759571520699,702827878,35574,17,0.246337890625,0.14471435546875,-0.97125244140625
1759571520699,702827878,35574,18,0.249755859375,0.14105224609375,-0.97564697265625
1759571520699,702827878,35574,19,0.25048828125,0.13812255859375,-0.97418212890625
1759571520699,702827878,35574,20,0.246337890625,0.13665771484375,-0.96563720703125
1759571520699,702827878,35574,21,0.249755859375,0.14349365234375,-0.97637939453125
1759571520699,702827878,35574,22,0.24658203125,0.13763427734375,-0.96807861328125
1759571520699,702827878,35574,23,0.250244140625,0.14398193359375,-0.98248291015625
1759571520699,702827878,35574,24,0.2490234375,0.14788818359375,-0.97882080078125
1759571520699,702827878,35574,25,0.243896484375,0.14202880859375,-0.95416259765625
1759571520699,702827878,35574,26,0.249267578125,0.14666748046875,-0.98199462890625
1759571520699,702827878,35574,27,0.2470703125,0.14544677734375,-0.97393798828125
1759571520699,702827878,35574,28,0.246826171875,0.14471435546875,-0.96661376953125
1759571520699,702827878,35574,29,0.249267578125,0.14617919921875,-0.97711181640625
1759571520699,702827878,35574,30,0.248291015625,0.14251708984375,-0.97784423828125
1759571520699,702827878,35574,31,0.244873046875,0.14324951171875,-0.96954345703125
1759571523237,702830433,35575,0,0.248291015625,0.14520263671875,-0.98150634765625
1759571523237,702830433,35575,1,0.24755859375,0.14617919921875,-0.97125244140625
1759571523237,702830433,35575,2,0.24658203125,0.14422607421875,-0.96954345703125
1759571523237,702830433,35575,3,0.246337890625,0.14544677734375,-0.98028564453125
1759571523237,702830433,35575,4,0.24462890625,0.14227294921875,-0.96881103515625
1759571523237,702830433,35575,5,0.245849609375,0.14447021484375,-0.97320556640625
1759571523237,702830433,35575,6,0.2470703125,0.14642333984375,-0.98394775390625
1759571523237,702830433,35575,7,0.24267578125,0.14422607421875,-0.96759033203125
1759571523237,702830433,35575,8,0.249755859375,0.14910888671875,-0.98175048828125
1759571523237,702830433,35575,9,0.24560546875,0.14593505859375,-0.97418212890625
1759571523237,702830433,35575,10,0.24462890625,0.14373779296875,-0.96514892578125
1759571523237,702830433,35575,11,0.248779296875,0.14788818359375,-0.97930908203125
1759571523237,702830433,35575,12,0.24658203125,0.14617919921875,-0.96929931640625
1759571523237,702830433,35575,13,0.243896484375,0.14544677734375,-0.97076416015625
1759571523237,702830433,35575,14,0.250244140625,0.14520263671875,-0.98101806640625
1759571523237,702830433,35575,15,0.24267578125,0.14300537109375,-0.97076416015625
1759571523237,702830433,35575,16,0.247314453125,0.14666748046875,-0.97955322265625
1759571523237,702830433,35575,17,0.247802734375,0.13690185546875,-0.97662353515625
1759571523237,702830433,35575,18,0.248779296875,0.13519287109375,-0.96392822265625
1759571523237,702830433,35575,19,0.250732421875,0.14422607421875,-0.96929931640625
1759571523237,702830433,35575,20,0.251708984375,0.14227294921875,-0.98028564453125
1759571523237,702830433,35575,21,0.255859375,0.13641357421875,-0.98028564453125
1759571523237,702830433,35575,22,0.25244140625,0.14495849609375,-0.97052001953125
1759571523237,702830433,35575,23,0.249755859375,0.13983154296875,-0.96710205078125
1759571523237,702830433,35575,24,0.2529296875,0.14129638671875,-0.97784423828125
1759571523237,702830433,35575,25,0.254638671875,0.14422607421875,-0.98199462890625
1759571523237,702830433,35575,26,0.250244140625,0.13763427734375,-0.96832275390625
1759571523237,702830433,35575,27,0.25048828125,0.13909912109375,-0.96905517578125
1759571523237,702830433,35575,28,0.2529296875,0.13909912109375,-0.98150634765625
1759571523237,702830433,35575,29,0.252685546875,0.13909912109375,-0.97418212890625
1759571523237,702830433,35575,30,0.250732421875,0.13787841796875,-0.96343994140625
1759571523237,702830433,35575,31,0.25244140625,0.14324951171875,-0.98394775390625
1759571525772,702832988,35576,0,0.251708984375,0.13909912109375,-0.97418212890625
1759571525772,702832988,35576,1,0.250244140625,0.13836669921875,-0.96319580078125
1759571525772,702832988,35576,2,0.256103515625,0.13983154296875,-0.97930908203125
1759571525772,702832988,35576,3,0.25390625,0.13885498046875,-0.98052978515625
1759571525772,702832988,35576,4,0.2451171875,0.13592529296875,-0.96246337890625
1759571525772,702832988,35576,5,0.257080078125,0.14154052734375,-0.98614501953125
1759571525772,702832988,35576,6,0.255859375,0.14105224609375,-0.97320556640625
1759571525772,702832988,35576,7,0.24658203125,0.13909912109375,-0.96075439453125
1759571525772,702832988,35576,8,0.255126953125,0.14300537109375,-0.98614501953125
1759571525772,702832988,35576,9,0.251220703125,0.13909912109375,-0.97100830078125
1759571525772,702832988,35576,10,0.250244140625,0.14056396484375,-0.96490478515625
1759571525772,702832988,35576,11,0.25341796875,0.14031982421875,-0.97784423828125
1759571525772,702832988,35576,12,0.2529296875,0.14349365234375,-0.97442626953125
1759571525772,702832988,35576,13,0.250732421875,0.14300537109375,-0.96612548828125
1759571525772,702832988,35576,14,0.25341796875,0.14349365234375,-0.97637939453125
1759571525772,702832988,35576,15,0.251708984375,0.14227294921875,-0.96929931640625
1759571525772,702832988,35576,16,0.250244140625,0.14935302734375,-0.96783447265625
1759571525772,702832988,35576,17,0.252197265625,0.14910888671875,-0.97857666015625
1759571525772,702832988,35576,18,0.250244140625,0.14300537109375,-0.96881103515625
1759571525772,702832988,35576,19,0.250732421875,0.14666748046875,-0.97125244140625
1759571525772,702832988,35576,20,0.251708984375,0.14495849609375,-0.97222900390625
1759571525772,702832988,35576,21,0.2490234375,0.14886474609375,-0.97344970703125
1759571525772,702832988,35576,22,0.2490234375,0.14276123046875,-0.96783447265625
1759571525772,702832988,35576,23,0.249267578125,0.14642333984375,-0.97735595703125
1759571525772,702832988,35576,24,0.249267578125,0.14202880859375,-0.96978759765625
1759571525772,702832988,35576,25,0.25048828125,0.14300537109375,-0.97198486328125
1759571525772,702832988,35576,26,0.250244140625,0.14593505859375,-0.97882080078125
1759571525772,702832988,35576,27,0.248779296875,0.14227294921875,-0.96734619140625
1759571525772,702832988,35576,28,0.251708984375,0.14178466796875,-0.97882080078125
1759571525772,702832988,35576,29,0.248779296875,0.14202880859375,-0.97100830078125
1759571525772,702832988,35576,30,0.248291015625,0.14227294921875,-0.96490478515625
1759571525772,702832988,35576,31,0.254638671875,0.14910888671875,-0.98541259765625
1759571528303,702835543,35577,0,0.24609375,0.13861083984375,-0.96392822265625
1759571528303,702835543,35577,1,0.246337890625,0.14251708984375,-0.97003173828125
1759571528303,702835543,35577,2,0.25439453125,0.14837646484375,-0.98321533203125
1759571528303,702835543,35577,3,0.247314453125,0.14105224609375,-0.96221923828125
1759571528303,702835543,35577,4,0.250244140625,0.15301513671875,-0.97222900390625
1759571528303,702835543,35577,5,0.25341796875,0.14837646484375,-0.98199462890625
1759571528303,702835543,35577,6,0.248046875,0.14544677734375,-0.95904541015625
1759571528303,702835543,35577,7,0.247314453125,0.14520263671875,-0.97027587890625
1759571528303,702835543,35577,8,0.253173828125,0.15081787109375,-0.98077392578125
1759571528303,702835543,35577,9,0.2490234375,0.14276123046875,-0.96588134765625
1759571528303,702835543,35577,10,0.25048828125,0.14593505859375,-0.97491455078125
1759571528303,702835543,35577,11,0.250244140625,0.14813232421875,-0.98028564453125
1759571528303,702835543,35577,12,0.24609375,0.14837646484375,-0.96759033203125
1759571528303,702835543,35577,13,0.24853515625,0.14862060546875,-0.96563720703125
1759571528303,702835543,35577,14,0.25,0.15106201171875,-0.97686767578125
1759571528303,702835543,35577,15,0.250244140625,0.14959716796875,-0.97125244140625
1759571528303,702835543,35577,16,0.249267578125,0.14642333984375,-0.96954345703125
1759571528303,702835543,35577,17,0.248779296875,0.15106201171875,-0.97735595703125
1759571528303,702835543,35577,18,0.249267578125,0.14959716796875,-0.97271728515625
1759571528303,702835543,35577,19,0.248779296875,0.14642333984375,-0.96295166015625
1759571528303,702835543,35577,20,0.255126953125,0.14910888671875,-0.98345947265625
1759571528303,702835543,35577,21,0.249755859375,0.14984130859375,-0.96295166015625
1759571528303,702835543,35577,22,0.251708984375,0.14739990234375,-0.97296142578125
1759571528303,702835543,35577,23,0.25146484375,0.15057373046875,-0.97979736328125
1759571528303,702835543,35577,24,0.24609375,0.14642333984375,-0.96685791015625
1759571528303,702835543,35577,25,0.248046875,0.14520263671875,-0.96124267578125
1759571528303,702835543,35577,26,0.252685546875,0.15008544921875,-0.98004150390625
1759571528303,702835543,35577,27,0.250732421875,0.15057373046875,-0.97662353515625
1759571528303,702835543,35577,28,0.25,0.14886474609375,-0.96539306640625
1759571528303,702835543,35577,29,0.25048828125,0.15423583984375,-0.97247314453125
1759571528303,702835543,35577,30,0.252685546875,0.15106201171875,-0.97271728515625
1759571528303,702835543,35577,31,0.247802734375,0.14520263671875,-0.96246337890625
1759571530839,702838098,35578,0,0.25048828125,0.14935302734375,-0.97979736328125
1759571530839,702838098,35578,1,0.2490234375,0.14862060546875,-0.96881103515625
1759571530839,702838098,35578,2,0.2470703125,0.15008544921875,-0.96148681640625
1759571530839,702838098,35578,3,0.25439453125,0.15130615234375,-0.98175048828125
1759571530839,702838098,35578,4,0.25244140625,0.14447021484375,-0.97637939453125
1759571530839,702838098,35578,5,0.244140625,0.14984130859375,-0.96270751953125
1759571530839,702838098,35578,6,0.25390625,0.15130615234375,-0.98492431640625
1759571530839,702838098,35578,7,0.247802734375,0.14837646484375,-0.96563720703125
1759571530839,702838098,35578,8,0.24658203125,0.14715576171875,-0.97198486328125
1759571530839,702838098,35578,9,0.24951171875,0.15252685546875,-0.97491455078125
1759571530839,702838098,35578,10,0.250244140625,0.14910888671875,-0.97125244140625
1759571530839,702838098,35578,11,0.25048828125,0.14886474609375,-0.97271728515625
1759571530839,702838098,35578,12,0.251708984375,0.14642333984375,-0.97418212890625
1759571530839,702838098,35578,13,0.24853515625,0.14666748046875,-0.97393798828125
1759571530839,702838098,35578,14,0.2451171875,0.14739990234375,-0.97296142578125
1759571530839,702838098,35578,15,0.24658203125,0.14593505859375,-0.97052001953125
1759571530839,702838098,35578,16,0.244873046875,0.14984130859375,-0.97540283203125
1759571530839,702838098,35578,17,0.24853515625,0.14813232421875,-0.96563720703125
1759571530839,702838098,35578,18,0.2509765625,0.14959716796875,-0.97491455078125
1759571530839,702838098,35578,19,0.24951171875,0.15130615234375,-0.97613525390625
1759571530839,702838098,35578,20,0.252685546875,0.14495849609375,-0.97589111328125
1759571530839,702838098,35578,21,0.24462890625,0.14495849609375,-0.96441650390625
1759571530839,702838098,35578,22,0.254150390625,0.15081787109375,-0.98468017578125
1759571530839,702838098,35578,23,0.246337890625,0.14739990234375,-0.96099853515625
1759571530839,702838098,35578,24,0.251220703125,0.14691162109375,-0.97613525390625
1759571530839,702838098,35578,25,0.25244140625,0.14544677734375,-0.97613525390625
1759571530839,702838098,35578,26,0.247802734375,0.14886474609375,-0.96929931640625
1759571530839,702838098,35578,27,0.25048828125,0.14862060546875,-0.96978759765625
1759571530839,702838098,35578,28,0.246826171875,0.14886474609375,-0.97271728515625
1759571530839,702838098,35578,29,0.244873046875,0.14398193359375,-0.95977783203125
1759571530839,702838098,35578,30,0.252197265625,0.15301513671875,-0.97418212890625
1759571530839,702838098,35578,31,0.255615234375,0.14984130859375,-0.98297119140625
1759571533570,702840653,35579,0,0.249267578125,0.14764404296875,-0.96343994140625
1759571533570,702840653,35579,1,0.252685546875,0.15179443359375,-0.97906494140625
1759571533570,702840653,35579,2,0.2509765625,0.14788818359375,-0.96466064453125
1759571533570,702840653,35579,3,0.253662109375,0.15252685546875,-0.97979736328125
1759571533570,702840653,35579,4,0.249755859375,0.14715576171875,-0.96173095703125
1759571533570,702840653,35579,5,0.253662109375,0.15350341796875,-0.98272705078125
1759571533570,702840653,35579,6,0.2548828125,0.14910888671875,-0.98736572265625
1759571533570,702840653,35579,7,0.245361328125,0.14715576171875,-0.95367431640625
1759571533570,702840653,35579,8,0.25439453125,0.15130615234375,-0.97198486328125
1759571533570,702840653,35579,9,0.255859375,0.14666748046875,-0.96905517578125
1759571533570,702840653,35579,10,0.248779296875,0.14764404296875,-0.96929931640625
1759571533570,702840653,35579,11,0.249755859375,0.14984130859375,-0.98052978515625
1759571533570,702840653,35579,12,0.2451171875,0.14691162109375,-0.97393798828125
1759571533570,702840653,35579,13,0.2451171875,0.14471435546875,-0.96514892578125
1759571533570,702840653,35579,14,0.252685546875,0.15057373046875,-0.97955322265625
1759571533570,702840653,35579,15,0.246826171875,0.14422607421875,-0.97003173828125
1759571533570,702840653,35579,16,0.24755859375,0.14837646484375,-0.97027587890625
1759571533570,702840653,35579,17,0.2490234375,0.14910888671875,-0.97906494140625
1759571533570,702840653,35579,18,0.247802734375,0.14910888671875,-0.96685791015625
1759571533570,702840653,35579,19,0.2490234375,0.15130615234375,-0.97467041015625
1759571533570,702840653,35579,20,0.247314453125,0.14739990234375,-0.96783447265625
1759571533570,702840653,35579,21,0.25341796875,0.14959716796875,-0.97613525390625
1759571533570,702840653,35579,22,0.24853515625,0.14837646484375,-0.97515869140625
1759571533570,702840653,35579,23,0.248779296875,0.14788818359375,-0.97052001953125
1759571533570,702840653,35579,24,0.251220703125,0.14886474609375,-0.97564697265625
1759571533570,702840653,35579,25,0.2470703125,0.14935302734375,-0.97198486328125
1759571533570,702840653,35579,26,0.2490234375,0.14666748046875,-0.96954345703125
1759571533570,702840653,35579,27,0.24853515625,0.15057373046875,-0.97052001953125
1759571533570,702840653,35579,28,0.2470703125,0.14984130859375,-0.97125244140625
1759571533570,702840653,35579,29,0.24951171875,0.14935302734375,-0.97271728515625
1759571533570,702840653,35579,30,0.2470703125,0.14788818359375,-0.97344970703125
1759571533570,702840653,35579,31,0.247314453125,0.15032958984375,-0.97442626953125
