receivedPhoneTimestamp,respeckTimestamp,packetSeqNum,sampleSeqNum,accelX,accelY,accelZ
1688351856157,843969420,4626,18,-0.33349609375,-0.95538330078125,0.12347412109375
1688351856157,843969420,4626,19,-0.314208984375,-0.96002197265625,0.12225341796875
1688351856157,843969420,4626,20,-0.277099609375,-0.96636962890625,0.13641357421875
1688351856157,843969420,4626,21,-0.2998046875,-0.96685791015625,0.12176513671875
1688351856157,843969420,4626,22,-0.303955078125,-0.95928955078125,0.14471435546875
1688351856157,843969420,4626,23,-0.297119140625,-0.97149658203125,0.13739013671875
1688351856157,843969420,4626,24,-0.298583984375,-0.95684814453125,0.13055419921875
1688351856157,843969420,4626,25,-0.312744140625,-0.95562744140625,0.15814208984375
1688351856157,843969420,4626,26,-0.311767578125,-0.95611572265625,0.15106201171875
1688351856157,843969420,4626,27,-0.31396484375,-0.95538330078125,0.13250732421875
1688351856157,843969420,4626,28,-0.313232421875,-0.95172119140625,0.16522216796875
1688351856157,843969420,4626,29,-0.31787109375,-0.95733642578125,0.16009521484375
1688351856157,843969420,4626,30,-0.307373046875,-0.95880126953125,0.14739990234375
1688351856157,843969420,4626,31,-0.299072265625,-0.94757080078125,0.17205810546875
1688351858887,843971999,4627,0,-0.302978515625,-0.96099853515625,0.15716552734375
1688351858887,843971999,4627,1,-0.302734375,-0.95513916015625,0.15545654296875
1688351858887,843971999,4627,2,-0.3076171875,-0.94268798828125,0.17132568359375
1688351858887,843971999,4627,3,-0.3125,-0.95855712890625,0.14398193359375
1688351858887,843971999,4627,4,-0.30908203125,-0.94757080078125,0.16253662109375
1688351858887,843971999,4627,5,-0.3125,-0.95001220703125,0.17352294921875
1688351858887,843971999,4627,6,-0.305419921875,-0.95318603515625,0.17327880859375
1688351858887,843971999,4627,7,-0.3037109375,-0.95196533203125,0.17327880859375
1688351858887,843971999,4627,8,-0.305908203125,-0.95172119140625,0.18768310546875
1688351858887,843971999,4627,9,-0.2880859375,-0.95440673828125,0.17108154296875
1688351858887,843971999,4627,10,-0.3037109375,-0.95001220703125,0.18499755859375
1688351858887,843971999,4627,11,-0.295654296875,-0.94659423828125,0.19696044921875
1688351858887,843971999,4627,12,-0.30078125,-0.95269775390625,0.17327880859375
1688351858887,843971999,4627,13,-0.2939453125,-0.95611572265625,0.17083740234375
1688351858887,843971999,4627,14,-0.302490234375,-0.95245361328125,0.18963623046875
1688351858887,843971999,4627,15,-0.296875,-0.94781494140625,0.18109130859375
1688351858887,843971999,4627,16,-0.296875,-0.96124267578125,0.17816162109375
1688351858887,843971999,4627,17,-0.2978515625,-0.95294189453125,0.19891357421875
1688351858887,843971999,4627,18,-0.291259765625,-0.95635986328125,0.14959716796875
1688351858887,843971999,4627,19,-0.28515625,-0.96539306640625,0.12225341796875
1688351858887,843971999,4627,20,-0.29443359375,-0.94976806640625,0.17962646484375
1688351858887,843971999,4627,21,-0.2880859375,-0.96807861328125,0.14984130859375
1688351858887,843971999,4627,22,-0.296142578125,-0.96636962890625,0.14617919921875
1688351858887,843971999,4627,23,-0.286376953125,-0.95611572265625,0.15960693359375
1688351858887,843971999,4627,24,-0.276611328125,-0.96612548828125,0.14349365234375
1688351858887,843971999,4627,25,-0.292724609375,-0.96173095703125,0.15399169921875
1688351858887,843971999,4627,26,-0.29736328125,-0.95709228515625,0.15399169921875
1688351858887,843971999,4627,27,-0.303955078125,-0.95611572265625,0.15814208984375
1688351858887,843971999,4627,28,-0.2998046875,-0.96246337890625,0.13934326171875
1688351858887,843971999,4627,29,-0.282958984375,-0.96734619140625,0.12713623046875
1688351858887,843971999,4627,30,-0.29638671875,-0.95928955078125,0.16888427734375
1688351858887,843971999,4627,31,-0.26220703125,-0.98712158203125,0.11248779296875
1688351861423,843974578,4628,0,-0.26318359375,-0.95709228515625,0.12518310546875
1688351861423,843974578,4628,1,-0.3134765625,-0.93121337890625,0.18914794921875
1688351861423,843974578,4628,2,-0.297119140625,-0.95880126953125,0.15521240234375
1688351861423,843974578,4628,3,-0.296875,-0.97442626953125,0.12957763671875
1688351861423,843974578,4628,4,-0.306396484375,-0.96173095703125,0.15838623046875
1688351861423,843974578,4628,5,-0.341064453125,-0.93414306640625,0.19232177734375
1688351861423,843974578,4628,6,-0.2841796875,-0.96417236328125,0.13641357421875
1688351861423,843974578,4628,7,-0.29248046875,-0.97076416015625,0.13226318359375
1688351861423,843974578,4628,8,-0.309326171875,-0.95001220703125,0.15960693359375
1688351861423,843974578,4628,9,-0.300537109375,-0.96295166015625,0.14129638671875
1688351861423,843974578,4628,10,-0.287353515625,-0.97442626953125,0.12152099609375
1688351861423,843974578,4628,11,-0.265625,-0.96588134765625,0.13128662109375
1688351861423,843974578,4628,12,-0.293212890625,-0.96881103515625,0.15374755859375
1688351861423,843974578,4628,13,-0.3291015625,-0.94586181640625,0.16107177734375
1688351861423,843974578,4628,14,-0.274169921875,-0.96221923828125,0.13006591796875
1688351861423,843974578,4628,15,-0.301513671875,-0.96563720703125,0.13446044921875
1688351861423,843974578,4628,16,-0.304443359375,-0.95513916015625,0.14520263671875
1688351861423,843974578,4628,17,-0.302490234375,-0.95806884765625,0.14178466796875
1688351861423,843974578,4628,18,-0.299072265625,-0.96392822265625,0.15643310546875
1688351861423,843974578,4628,19,-0.2890625,-0.95660400390625,0.15350341796875
1688351861423,843974578,4628,20,-0.284912109375,-0.95294189453125,0.16619873046875
1688351861423,843974578,4628,21,-0.292236328125,-0.96075439453125,0.16033935546875
1688351861423,843974578,4628,22,-0.2890625,-0.95977783203125,0.15911865234375
1688351861423,843974578,4628,23,-0.302978515625,-0.95220947265625,0.17230224609375
1688351861423,843974578,4628,24,-0.291259765625,-0.95880126953125,0.16400146484375
1688351861423,843974578,4628,25,-0.276611328125,-0.96392822265625,0.15252685546875
1688351861423,843974578,4628,26,-0.288818359375,-0.95880126953125,0.15130615234375
1688351861423,843974578,4628,27,-0.289306640625,-0.95172119140625,0.17425537109375
1688351861423,843974578,4628,28,-0.299072265625,-0.95343017578125,0.16595458984375
1688351861423,843974578,4628,29,-0.29638671875,-0.95880126953125,0.17425537109375
1688351861423,843974578,4628,30,-0.29248046875,-0.95416259765625,0.17742919921875
1688351861423,843974578,4628,31,-0.29345703125,-0.96002197265625,0.15692138671875
1688351863957,843977158,4629,0,-0.297607421875,-0.95587158203125,0.17254638671875
1688351863957,843977158,4629,1,-0.290283203125,-0.95733642578125,0.17742919921875
1688351863957,843977158,4629,2,-0.293701171875,-0.96392822265625,0.15301513671875
1688351863957,843977158,4629,3,-0.28857421875,-0.96490478515625,0.12567138671875
1688351863957,843977158,4629,4,-0.273681640625,-0.97418212890625,0.11175537109375
1688351863957,843977158,4629,5,-0.272216796875,-0.97222900390625,0.12640380859375
1688351863957,843977158,4629,6,-0.258056640625,-0.96563720703125,0.15692138671875
1688351863957,843977158,4629,7,-0.251953125,-0.99102783203125,0.10565185546875
1688351863957,843977158,4629,8,-0.2705078125,-0.95465087890625,0.14056396484375
1688351863957,843977158,4629,9,-0.263916015625,-0.98297119140625,0.14422607421875
1688351863957,843977158,4629,10,-0.267578125,-0.96246337890625,0.15472412109375
1688351863957,843977158,4629,11,-0.2626953125,-0.97076416015625,0.14349365234375
1688351863957,843977158,4629,12,-0.247802734375,-0.96783447265625,0.14617919921875
1688351863957,843977158,4629,13,-0.262451171875,-0.96148681640625,0.15887451171875
1688351863957,843977158,4629,14,-0.265869140625,-0.95831298828125,0.16156005859375
1688351863957,843977158,4629,15,-0.2607421875,-0.98077392578125,0.12274169921875
1688351863957,843977158,4629,16,-0.259521484375,-0.98175048828125,0.14398193359375
1688351863957,843977158,4629,17,-0.230712890625,-0.96807861328125,0.15179443359375
1688351863957,843977158,4629,18,-0.234375,-0.98590087890625,0.12152099609375
1688351863957,843977158,4629,19,-0.2138671875,-0.97979736328125,0.14276123046875
1688351863957,843977158,4629,20,-0.219482421875,-0.97735595703125,0.13519287109375
1688351863957,843977158,4629,21,-0.248046875,-0.96612548828125,0.13958740234375
1688351863957,843977158,4629,22,-0.235595703125,-0.98272705078125,0.13568115234375
1688351863957,843977158,4629,23,-0.237060546875,-0.98297119140625,0.13275146484375
1688351863957,843977158,4629,24,-0.221923828125,-0.97198486328125,0.13421630859375
1688351863957,843977158,4629,25,-0.205078125,-1.01007080078125,0.11663818359375
1688351863957,843977158,4629,26,-0.22802734375,-0.97393798828125,0.12615966796875
1688351863957,843977158,4629,27,-0.228271484375,-0.97662353515625,0.12567138671875
1688351863957,843977158,4629,28,-0.233642578125,-0.98541259765625,0.12005615234375
1688351863957,843977158,4629,29,-0.234619140625,-0.98394775390625,0.13031005859375
1688351863957,843977158,4629,30,-0.233154296875,-0.97882080078125,0.11859130859375
1688351863957,843977158,4629,31,-0.245361328125,-0.98052978515625,0.09881591796875
1688351866681,843979737,4630,0,-0.2353515625,-0.98834228515625,0.09857177734375
1688351866681,843979737,4630,1,-0.255615234375,-0.98248291015625,0.11077880859375
1688351866681,843979737,4630,2,-0.22216796875,-0.98004150390625,0.10711669921875
1688351866681,843979737,4630,3,-0.253173828125,-0.97662353515625,0.10638427734375
1688351866681,843979737,4630,4,-0.24267578125,-0.98687744140625,0.09661865234375
1688351866681,843979737,4630,5,-0.2421875,-0.98248291015625,0.09466552734375
1688351866681,843979737,4630,6,-0.23681640625,-0.98590087890625,0.10418701171875
1688351866681,843979737,4630,7,-0.240966796875,-0.98199462890625,0.09490966796875
1688351866681,843979737,4630,8,-0.240234375,-0.98760986328125,0.10076904296875
1688351866681,843979737,4630,9,-0.239013671875,-0.97564697265625,0.11517333984375
1688351866681,843979737,4630,10,-0.240234375,-0.98614501953125,0.10003662109375
1688351866681,843979737,4630,11,-0.242919921875,-0.98760986328125,0.10003662109375
1688351866681,843979737,4630,12,-0.2451171875,-0.98028564453125,0.09857177734375
1688351866681,843979737,4630,13,-0.2509765625,-0.99151611328125,0.09613037109375
1688351866681,843979737,4630,14,-0.2724609375,-0.97833251953125,0.10345458984375
1688351866681,843979737,4630,15,-0.318115234375,-0.92681884765625,0.14276123046875
1688351866681,843979737,4630,16,-0.309326171875,-0.96636962890625,0.12030029296875
1688351866681,843979737,4630,17,-0.189208984375,-1.00958251953125,0.06976318359375
1688351866681,843979737,4630,18,-0.2265625,-0.99957275390625,0.10052490234375
1688351866681,843979737,4630,19,-0.22412109375,-0.97320556640625,0.11248779296875
1688351866681,843979737,4630,20,-0.250244140625,-0.98492431640625,0.09661865234375
1688351866681,843979737,4630,21,-0.25048828125,-0.98272705078125,0.12274169921875
1688351866681,843979737,4630,22,-0.256591796875,-0.97857666015625,0.10614013671875
1688351866681,843979737,4630,23,-0.2626953125,-0.98419189453125,0.09295654296875
1688351866681,843979737,4630,24,-0.27197265625,-0.96929931640625,0.10882568359375
1688351866681,843979737,4630,25,-0.275634765625,-0.97271728515625,0.08978271484375
1688351866681,843979737,4630,26,-0.2666015625,-0.98150634765625,0.08978271484375
1688351866681,843979737,4630,27,-0.263916015625,-0.97076416015625,0.11224365234375
1688351866681,843979737,4630,28,-0.267578125,-0.97149658203125,0.11004638671875
1688351866681,843979737,4630,29,-0.287841796875,-0.97393798828125,0.12298583984375
1688351866681,843979737,4630,30,-0.261474609375,-0.97686767578125,0.10736083984375
1688351866681,843979737,4630,31,-0.2607421875,-0.98077392578125,0.10369873046875
1688351869026,843982316,4631,0,-0.248046875,-0.98345947265625,0.09613037109375
1688351869026,843982316,4631,1,-0.255126953125,-0.97222900390625,0.12103271484375
1688351869026,843982316,4631,2,-0.263916015625,-0.96929931640625,0.13104248046875
1688351869026,843982316,4631,3,-0.265869140625,-0.98443603515625,0.10784912109375
1688351869026,843982316,4631,4,-0.277099609375,-0.96856689453125,0.13031005859375
1688351869026,843982316,4631,5,-0.2763671875,-0.97979736328125,0.11859130859375
1688351869026,843982316,4631,6,-0.266357421875,-0.95269775390625,0.11322021484375
1688351869026,843982316,4631,7,-0.28662109375,-0.96221923828125,0.15740966796875
1688351869026,843982316,4631,8,-0.251953125,-0.98175048828125,0.14129638671875
1688351869026,843982316,4631,9,-0.26904296875,-0.97174072265625,0.13470458984375
1688351869026,843982316,4631,10,-0.272705078125,-0.96612548828125,0.14251708984375
1688351869026,843982316,4631,11,-0.25927734375,-0.96173095703125,0.15252685546875
1688351869026,843982316,4631,12,-0.25732421875,-0.99224853515625,0.12298583984375
1688351869026,843982316,4631,13,-0.2607421875,-0.95953369140625,0.14520263671875
1688351869026,843982316,4631,14,-0.268798828125,-0.96490478515625,0.14300537109375
1688351869026,843982316,4631,15,-0.259033203125,-0.97637939453125,0.12640380859375
1688351869026,843982316,4631,16,-0.260986328125,-0.96319580078125,0.15155029296875
1688351869026,843982316,4631,17,-0.2724609375,-0.97125244140625,0.13446044921875
1688351869026,843982316,4631,18,-0.267333984375,-0.96832275390625,0.13836669921875
1688351869026,843982316,4631,19,-0.26318359375,-0.97564697265625,0.13568115234375
1688351869026,843982316,4631,20,-0.265380859375,-0.97003173828125,0.11175537109375
1688351869026,843982316,4631,21,-0.250732421875,-0.97833251953125,0.09637451171875
1688351869026,843982316,4631,22,-0.256103515625,-0.97100830078125,0.14227294921875
1688351869026,843982316,4631,23,-0.263427734375,-0.96368408203125,0.15325927734375
1688351869026,843982316,4631,24,-0.29443359375,-0.96099853515625,0.13494873046875
1688351869026,843982316,4631,25,-0.30322265625,-0.95880126953125,0.13079833984375
1688351869026,843982316,4631,26,-0.25732421875,-0.98883056640625,0.12713623046875
1688351869026,843982316,4631,27,-0.25146484375,-0.94927978515625,0.16082763671875
1688351869026,843982316,4631,28,-0.25341796875,-0.97515869140625,0.14080810546875
1688351869026,843982316,4631,29,-0.252685546875,-0.97393798828125,0.13812255859375
1688351869026,843982316,4631,30,-0.26171875,-0.97637939453125,0.15496826171875
1688351869026,843982316,4631,31,-0.268798828125,-0.96466064453125,0.15447998046875
1688351871952,843984895,4632,0,-0.27392578125,-0.95489501953125,0.17498779296875
1688351871952,843984895,4632,1,-0.2734375,-0.95684814453125,0.17645263671875
1688351871952,843984895,4632,2,-0.262939453125,-0.95953369140625,0.17132568359375
1688351871952,843984895,4632,3,-0.251220703125,-0.98077392578125,0.14398193359375
1688351871952,843984895,4632,4,-0.2890625,-0.95074462890625,0.18719482421875
1688351871952,843984895,4632,5,-0.272216796875,-0.94854736328125,0.18646240234375
1688351871952,843984895,4632,6,-0.277099609375,-0.96929931640625,0.16815185546875
1688351871952,843984895,4632,7,-0.275634765625,-0.95782470703125,0.17938232421875
1688351871952,843984895,4632,8,-0.271484375,-0.95367431640625,0.18402099609375
1688351871952,843984895,4632,9,-0.272705078125,-0.96124267578125,0.17425537109375
1688351871952,843984895,4632,10,-0.26953125,-0.95733642578125,0.17279052734375
1688351871952,843984895,4632,11,-0.25048828125,-0.98712158203125,0.15277099609375
1688351871952,843984895,4632,12,-0.299560546875,-0.94805908203125,0.14007568359375
1688351871952,843984895,4632,13,-0.295166015625,-0.94830322265625,0.14886474609375
1688351871952,843984895,4632,14,-0.29736328125,-0.94830322265625,0.16033935546875
1688351871952,843984895,4632,15,-0.259033203125,-0.97418212890625,0.16864013671875
1688351871952,843984895,4632,16,-0.250732421875,-0.97418212890625,0.14935302734375
1688351871952,843984895,4632,17,-0.275634765625,-0.97833251953125,0.12884521484375
1688351871952,843984895,4632,18,-0.271240234375,-0.96441650390625,0.14837646484375
1688351871952,843984895,4632,19,-0.269287109375,-0.97052001953125,0.14471435546875
1688351871952,843984895,4632,20,-0.274658203125,-0.96588134765625,0.15716552734375
1688351871952,843984895,4632,21,-0.26904296875,-0.95782470703125,0.15399169921875
1688351871952,843984895,4632,22,-0.248779296875,-0.98004150390625,0.17205810546875
1688351871952,843984895,4632,23,-0.20751953125,-0.97784423828125,0.15496826171875
1688351871952,843984895,4632,24,-0.234375,-0.97637939453125,0.15594482421875
1688351871952,843984895,4632,25,-0.247314453125,-0.96051025390625,0.17669677734375
1688351871952,843984895,4632,26,-0.2392578125,-0.96929931640625,0.17742919921875
1688351871952,843984895,4632,27,-0.2529296875,-0.95758056640625,0.16815185546875
1688351871952,843984895,4632,28,-0.258544921875,-0.96734619140625,0.17669677734375
1688351871952,843984895,4632,29,-0.269287109375,-0.94610595703125,0.19134521484375
1688351871952,843984895,4632,30,-0.267822265625,-0.96417236328125,0.16961669921875
1688351871952,843984895,4632,31,-0.255859375,-0.96661376953125,0.18328857421875
1688351874877,843987474,4633,0,-0.280517578125,-0.94976806640625,0.19378662109375
1688351874877,843987474,4633,1,-0.238037109375,-0.96978759765625,0.17889404296875
1688351874877,843987474,4633,2,-0.249755859375,-0.96295166015625,0.18939208984375
1688351874877,843987474,4633,3,-0.260498046875,-0.95855712890625,0.18743896484375
1688351874877,843987474,4633,4,-0.2568359375,-0.96148681640625,0.19207763671875
1688351874877,843987474,4633,5,-0.2490234375,-0.96295166015625,0.18670654296875
1688351874877,843987474,4633,6,-0.25341796875,-0.95709228515625,0.19500732421875
1688351874877,843987474,4633,7,-0.253662109375,-0.96270751953125,0.19866943359375
1688351874877,843987474,4633,8,-0.24853515625,-0.96124267578125,0.19329833984375
1688351874877,843987474,4633,9,-0.249267578125,-0.96173095703125,0.19525146484375
1688351874877,843987474,4633,10,-0.25244140625,-0.95904541015625,0.19305419921875
1688351874877,843987474,4633,11,-0.258056640625,-0.95684814453125,0.19500732421875
1688351874877,843987474,4633,12,-0.25244140625,-0.95416259765625,0.19549560546875
1688351874877,843987474,4633,13,-0.248046875,-0.96368408203125,0.19232177734375
1688351874877,843987474,4633,14,-0.255859375,-0.97930908203125,0.18695068359375
1688351874877,843987474,4633,15,-0.267333984375,-0.94464111328125,0.17840576171875
1688351874877,843987474,4633,16,-0.26416015625,-0.97369384765625,0.16033935546875
1688351874877,843987474,4633,17,-0.2724609375,-0.96539306640625,0.14715576171875
1688351874877,843987474,4633,18,-0.27001953125,-0.96710205078125,0.12908935546875
1688351874877,843987474,4633,19,-0.2685546875,-0.96270751953125,0.12396240234375
1688351874877,843987474,4633,20,-0.25390625,-0.98272705078125,0.10614013671875
1688351874877,843987474,4633,21,-0.25439453125,-0.96783447265625,0.13592529296875
1688351874877,843987474,4633,22,-0.2626953125,-0.96929931640625,0.15277099609375
1688351874877,843987474,4633,23,-0.26025390625,-0.97613525390625,0.13519287109375
1688351874877,843987474,4633,24,-0.26416015625,-0.96905517578125,0.15106201171875
1688351874877,843987474,4633,25,-0.264892578125,-0.96441650390625,0.15155029296875
1688351874877,843987474,4633,26,-0.262451171875,-0.97320556640625,0.15106201171875
1688351874877,843987474,4633,27,-0.259521484375,-0.97052001953125,0.14788818359375
1688351874877,843987474,4633,28,-0.25244140625,-0.97369384765625,0.15057373046875
1688351874877,843987474,4633,29,-0.256591796875,-0.96368408203125,0.16253662109375
1688351874877,843987474,4633,30,-0.269775390625,-0.96417236328125,0.16253662109375
1688351874877,843987474,4633,31,-0.260498046875,-0.97418212890625,0.16326904296875
1688351876827,843990053,4634,0,-0.251953125,-0.96099853515625,0.16766357421875
1688351876827,843990053,4634,1,-0.25537109375,-0.96905517578125,0.15447998046875
1688351876827,843990053,4634,2,-0.25537109375,-0.96661376953125,0.15399169921875
1688351876827,843990053,4634,3,-0.2431640625,-0.97515869140625,0.15032958984375
1688351876827,843990053,4634,4,-0.254638671875,-0.97125244140625,0.15887451171875
1688351876827,843990053,4634,5,-0.260009765625,-0.96563720703125,0.16302490234375
1688351876827,843990053,4634,6,-0.2607421875,-0.96905517578125,0.16546630859375
1688351876827,843990053,4634,7,-0.256591796875,-0.96295166015625,0.15716552734375
1688351876827,843990053,4634,8,-0.261962890625,-0.96417236328125,0.16033935546875
1688351876827,843990053,4634,9,-0.256103515625,-0.96612548828125,0.15911865234375
1688351876827,843990053,4634,10,-0.262939453125,-0.96490478515625,0.16766357421875
1688351876827,843990053,4634,11,-0.250732421875,-0.97418212890625,0.16156005859375
1688351876827,843990053,4634,12,-0.242431640625,-0.96612548828125,0.16424560546875
1688351876827,843990053,4634,13,-0.26318359375,-0.96295166015625,0.17010498046875
1688351876827,843990053,4634,14,-0.24658203125,-0.97149658203125,0.17034912109375
1688351876827,843990053,4634,15,-0.2578125,-0.96661376953125,0.17279052734375
1688351876827,843990053,4634,16,-0.279541015625,-0.93170166015625,0.18670654296875
1688351876827,843990053,4634,17,-0.23779296875,-0.99639892578125,0.14739990234375
1688351876827,843990053,4634,18,-0.267822265625,-0.96929931640625,0.17010498046875
1688351876827,843990053,4634,19,-0.263427734375,-0.94439697265625,0.16888427734375
1688351876827,843990053,4634,20,-0.25634765625,-0.97198486328125,0.17303466796875
1688351876827,843990053,4634,21,-0.240234375,-0.98468017578125,0.16473388671875
1688351876827,843990053,4634,22,-0.277099609375,-0.94659423828125,0.19451904296875
1688351876827,843990053,4634,23,-0.25927734375,-0.94757080078125,0.17059326171875
1688351876827,843990053,4634,24,-0.235595703125,-0.99420166015625,0.16473388671875
1688351876827,843990053,4634,25,-0.272705078125,-0.93316650390625,0.19525146484375
1688351876827,843990053,4634,26,-0.255126953125,-0.97662353515625,0.18157958984375
1688351876827,843990053,4634,27,-0.259765625,-0.96417236328125,0.17987060546875
1688351876827,843990053,4634,28,-0.264892578125,-0.96124267578125,0.19427490234375
1688351876827,843990053,4634,29,-0.247802734375,-0.96343994140625,0.18084716796875
1688351876827,843990053,4634,30,-0.243408203125,-0.96978759765625,0.15496826171875
1688351876827,843990053,4634,31,-0.24951171875,-0.96636962890625,0.17669677734375
1688351879556,843992632,4635,0,-0.244873046875,-0.95904541015625,0.20550537109375
1688351879556,843992632,4635,1,-0.26123046875,-0.93878173828125,0.22991943359375
1688351879556,843992632,4635,2,-0.22998046875,-0.98736572265625,0.16937255859375
1688351879556,843992632,4635,3,-0.239501953125,-0.96051025390625,0.20697021484375
1688351879556,843992632,4635,4,-0.254638671875,-0.94757080078125,0.22967529296875
1688351879556,843992632,4635,5,-0.260986328125,-0.95123291015625,0.20233154296875
1688351879556,843992632,4635,6,-0.252685546875,-0.95172119140625,0.20989990234375
1688351879556,843992632,4635,7,-0.25439453125,-0.95953369140625,0.20892333984375
1688351879556,843992632,4635,8,-0.255126953125,-0.96490478515625,0.18695068359375
1688351879556,843992632,4635,9,-0.258056640625,-0.97296142578125,0.15936279296875
1688351879556,843992632,4635,10,-0.25341796875,-0.96759033203125,0.13128662109375
1688351879556,843992632,4635,11,-0.263671875,-0.96319580078125,0.17254638671875
1688351879556,843992632,4635,12,-0.2568359375,-0.96710205078125,0.16180419921875
1688351879556,843992632,4635,13,-0.25244140625,-0.96832275390625,0.15936279296875
1688351879556,843992632,4635,14,-0.265869140625,-0.96075439453125,0.17205810546875
1688351879556,843992632,4635,15,-0.255859375,-0.96710205078125,0.15594482421875
1688351879556,843992632,4635,16,-0.24853515625,-0.96661376953125,0.14959716796875
1688351879556,843992632,4635,17,-0.26416015625,-0.97003173828125,0.15228271484375
1688351879556,843992632,4635,18,-0.260986328125,-0.96807861328125,0.15594482421875
1688351879556,843992632,4635,19,-0.25390625,-0.96563720703125,0.16009521484375
1688351879556,843992632,4635,20,-0.251708984375,-0.97296142578125,0.15081787109375
1688351879556,843992632,4635,21,-0.258056640625,-0.96295166015625,0.16156005859375
1688351879556,843992632,4635,22,-0.252685546875,-0.96197509765625,0.17864990234375
1688351879556,843992632,4635,23,-0.2529296875,-0.96392822265625,0.16424560546875
1688351879556,843992632,4635,24,-0.25048828125,-0.96905517578125,0.16448974609375
1688351879556,843992632,4635,25,-0.239013671875,-0.97564697265625,0.15545654296875
1688351879556,843992632,4635,26,-0.261474609375,-0.96221923828125,0.18109130859375
1688351879556,843992632,4635,27,-0.264892578125,-0.95928955078125,0.17230224609375
1688351879556,843992632,4635,28,-0.262451171875,-0.96636962890625,0.16522216796875
1688351879556,843992632,4635,29,-0.25341796875,-0.96417236328125,0.17010498046875
1688351879556,843992632,4635,30,-0.245849609375,-0.96759033203125,0.16864013671875
1688351879556,843992632,4635,31,-0.26171875,-0.97296142578125,0.17669677734375
1688351882092,843995211,4636,0,-0.24560546875,-0.95660400390625,0.17254638671875
1688351882092,843995211,4636,1,-0.242919921875,-0.95587158203125,0.21551513671875
1688351882092,843995211,4636,2,-0.196044921875,-0.97906494140625,0.18719482421875
1688351882092,843995211,4636,3,-0.214111328125,-0.97979736328125,0.17742919921875
1688351882092,843995211,4636,4,-0.2412109375,-0.96514892578125,0.18719482421875
1688351882092,843995211,4636,5,-0.269775390625,-0.93951416015625,0.20721435546875
1688351882092,843995211,4636,6,-0.28125,-0.94317626953125,0.21063232421875
1688351882092,843995211,4636,7,-0.266357421875,-0.96124267578125,0.19647216796875
1688351882092,843995211,4636,8,-0.24267578125,-0.97125244140625,0.18621826171875
1688351882092,843995211,4636,9,-0.250732421875,-0.96197509765625,0.19305419921875
1688351882092,843995211,4636,10,-0.224365234375,-0.96710205078125,0.19110107421875
1688351882092,843995211,4636,11,-0.25537109375,-0.95635986328125,0.22772216796875
1688351882092,843995211,4636,12,-0.25927734375,-0.95098876953125,0.23187255859375
1688351882092,843995211,4636,13,-0.27587890625,-0.93341064453125,0.25897216796875
1688351882092,843995211,4636,14,-0.2373046875,-0.95904541015625,0.21575927734375
1688351882092,843995211,4636,15,-0.214599609375,-0.96563720703125,0.21966552734375
1688351882092,843995211,4636,16,-0.255126953125,-0.94561767578125,0.23309326171875
1688351882092,843995211,4636,17,-0.20361328125,-0.95587158203125,0.24993896484375
1688351882092,843995211,4636,18,-0.242431640625,-0.94537353515625,0.26361083984375
1688351882092,843995211,4636,19,-0.26025390625,-0.94171142578125,0.26190185546875
1688351882092,843995211,4636,20,-0.241455078125,-0.94659423828125,0.26043701171875
1688351882092,843995211,4636,21,-0.2470703125,-0.93341064453125,0.26263427734375
1688351882092,843995211,4636,22,-0.244873046875,-0.94683837890625,0.24969482421875
1688351882092,843995211,4636,23,-0.24462890625,-0.94708251953125,0.25555419921875
1688351882092,843995211,4636,24,-0.240478515625,-0.94195556640625,0.26141357421875
1688351882092,843995211,4636,25,-0.2451171875,-0.94219970703125,0.26434326171875
1688351882092,843995211,4636,26,-0.241455078125,-0.94097900390625,0.26434326171875
1688351882092,843995211,4636,27,-0.230224609375,-0.94781494140625,0.26947021484375
1688351882092,843995211,4636,28,-0.23388671875,-0.94268798828125,0.27777099609375
1688351882092,843995211,4636,29,-0.2333984375,-0.92852783203125,0.28582763671875
1688351882092,843995211,4636,30,-0.236572265625,-0.93292236328125,0.27996826171875
1688351882092,843995211,4636,31,-0.224365234375,-0.92828369140625,0.30316162109375
1688351884627,843997791,4637,0,-0.24169921875,-0.93389892578125,0.30169677734375
1688351884627,843997791,4637,1,-0.239990234375,-0.93634033203125,0.28948974609375
1688351884627,843997791,4637,2,-0.248291015625,-0.92315673828125,0.30194091796875
1688351884627,843997791,4637,3,-0.248046875,-0.92291259765625,0.31463623046875
1688351884627,843997791,4637,4,-0.216552734375,-0.93951416015625,0.28826904296875
1688351884627,843997791,4637,5,-0.21484375,-0.93292236328125,0.31072998046875
1688351884627,843997791,4637,6,-0.259521484375,-0.91070556640625,0.32025146484375
1688351884627,843997791,4637,7,-0.245849609375,-0.94342041015625,0.26336669921875
1688351884627,843997791,4637,8,-0.2265625,-0.94024658203125,0.32098388671875
1688351884627,843997791,4637,9,-0.25244140625,-0.92193603515625,0.30804443359375
1688351884627,843997791,4637,10,-0.210205078125,-0.94122314453125,0.29046630859375
1688351884627,843997791,4637,11,-0.213134765625,-0.92291259765625,0.31268310546875
1688351884627,843997791,4637,12,-0.22412109375,-0.93096923828125,0.31951904296875
1688351884627,843997791,4637,13,-0.236328125,-0.92852783203125,0.31707763671875
1688351884627,843997791,4637,14,-0.2451171875,-0.91534423828125,0.31658935546875
1688351884627,843997791,4637,15,-0.239013671875,-0.91925048828125,0.32244873046875
1688351884627,843997791,4637,16,-0.2490234375,-0.91241455078125,0.33587646484375
1688351884627,843997791,4637,17,-0.236572265625,-0.91827392578125,0.32904052734375
1688351884627,843997791,4637,18,-0.242919921875,-0.92047119140625,0.32366943359375
1688351884627,843997791,4637,19,-0.238525390625,-0.91705322265625,0.32879638671875
1688351884627,843997791,4637,20,-0.235595703125,-0.91729736328125,0.32269287109375
1688351884627,843997791,4637,21,-0.244140625,-0.89996337890625,0.32781982421875
1688351884627,843997791,4637,22,-0.228271484375,-0.94488525390625,0.35296630859375
1688351884627,843997791,4637,23,-0.257080078125,-0.94122314453125,0.28778076171875
1688351884627,843997791,4637,24,-0.223388671875,-0.95245361328125,0.17449951171875
1688351884627,843997791,4637,25,-0.2509765625,-0.95709228515625,0.19085693359375
1688351884627,843997791,4637,26,-0.254638671875,-0.95074462890625,0.24456787109375
1688351884627,843997791,4637,27,-0.24658203125,-0.95001220703125,0.23284912109375
1688351884627,843997791,4637,28,-0.2431640625,-0.94879150390625,0.24139404296875
1688351884627,843997791,4637,29,-0.23486328125,-0.95391845703125,0.23699951171875
1688351884627,843997791,4637,30,-0.2470703125,-0.95147705078125,0.24114990234375
1688351884627,843997791,4637,31,-0.2490234375,-0.94708251953125,0.22991943359375
1688351887358,844000364,4638,0,-0.24755859375,-0.96270751953125,0.21307373046875
1688351887358,844000364,4638,1,-0.243408203125,-0.97052001953125,0.17108154296875
1688351887358,844000364,4638,2,-0.267822265625,-0.95074462890625,0.17010498046875
1688351887358,844000364,4638,3,-0.263427734375,-0.97515869140625,0.13006591796875
1688351887358,844000364,4638,4,-0.260009765625,-0.96539306640625,0.15911865234375
1688351887358,844000364,4638,5,-0.281494140625,-0.95587158203125,0.17498779296875
1688351887358,844000364,4638,6,-0.260986328125,-0.95538330078125,0.18060302734375
1688351887358,844000364,4638,7,-0.221923828125,-0.97833251953125,0.19232177734375
1688351887358,844000364,4638,8,-0.23486328125,-0.96148681640625,0.19549560546875
1688351887358,844000364,4638,9,-0.262451171875,-0.96124267578125,0.16741943359375
1688351887358,844000364,4638,10,-0.2783203125,-0.96270751953125,0.16595458984375
1688351887358,844000364,4638,11,-0.2978515625,-0.94219970703125,0.14495849609375
1688351887358,844000364,4638,12,-0.258544921875,-0.97955322265625,0.11102294921875
1688351887358,844000364,4638,13,-0.2724609375,-0.95660400390625,0.19427490234375
1688351887358,844000364,4638,14,-0.249755859375,-0.97955322265625,0.15155029296875
1688351887358,844000364,4638,15,-0.2333984375,-0.97198486328125,0.18817138671875
1688351887358,844000364,4638,16,-0.27783203125,-0.94439697265625,0.20550537109375
1688351887358,844000364,4638,17,-0.250732421875,-0.95440673828125,0.19622802734375
1688351887358,844000364,4638,18,-0.24755859375,-0.96319580078125,0.20257568359375
1688351887358,844000364,4638,19,-0.243896484375,-0.95953369140625,0.20941162109375
1688351887358,844000364,4638,20,-0.248291015625,-0.96221923828125,0.20550537109375
1688351887358,844000364,4638,21,-0.24609375,-0.95709228515625,0.20819091796875
1688351887358,844000364,4638,22,-0.254638671875,-0.96221923828125,0.20526123046875
1688351887358,844000364,4638,23,-0.255126953125,-0.95220947265625,0.20159912109375
1688351887358,844000364,4638,24,-0.25830078125,-0.95709228515625,0.21405029296875
1688351887358,844000364,4638,25,-0.252685546875,-0.94952392578125,0.21844482421875
1688351887358,844000364,4638,26,-0.26708984375,-0.94854736328125,0.22601318359375
1688351887358,844000364,4638,27,-0.25634765625,-0.95269775390625,0.21282958984375
1688351887358,844000364,4638,28,-0.256591796875,-0.95196533203125,0.22259521484375
1688351887358,844000364,4638,29,-0.2578125,-0.95440673828125,0.22186279296875
1688351887358,844000364,4638,30,-0.255859375,-0.95416259765625,0.21405029296875
1688351887358,844000364,4638,31,-0.255859375,-0.95123291015625,0.22674560546875
1688351889696,844002943,4639,0,-0.26025390625,-0.94927978515625,0.21966552734375
