receivedPhoneTimestamp,respeckTimestamp,packetSeqNum,sampleSeqNum,accelX,accelY,accelZ
1760037617688,95385334,3265,17,0.630615234375,0.00384521484375,0.64276123046875
1760037617688,95385334,3265,18,0.636962890625,0.00506591796875,0.65130615234375
1760037617688,95385334,3265,19,0.63525390625,0.00775146484375,0.64764404296875
1760037617688,95385334,3265,20,0.62841796875,0.00384521484375,0.66180419921875
1760037617688,95385334,3265,21,0.62890625,0.00921630859375,0.65008544921875
1760037617688,95385334,3265,22,0.63134765625,0.00653076171875,0.65911865234375
1760037617688,95385334,3265,23,0.62548828125,0.00701904296875,0.65521240234375
1760037617688,95385334,3265,24,0.624755859375,0.01776123046875,0.65203857421875
1760037617688,95385334,3265,25,0.6201171875,0.01995849609375,0.65472412109375
1760037617688,95385334,3265,26,0.623046875,0.02117919921875,0.64617919921875
1760037617688,95385334,3265,27,0.62060546875,0.01849365234375,0.64178466796875
1760037617688,95385334,3265,28,0.63037109375,0.00677490234375,0.66033935546875
1760037617688,95385334,3265,29,0.633056640625,0.02215576171875,0.65106201171875
1760037617688,95385334,3265,30,0.6279296875,0.01580810546875,0.65106201171875
1760037617688,95385334,3265,31,0.622314453125,0.00848388671875,0.65447998046875
1760037620239,95387907,3266,0,0.62353515625,0.00531005859375,0.65936279296875
1760037620239,95387907,3266,1,0.62109375,0.00677490234375,0.65814208984375
1760037620239,95387907,3266,2,0.620849609375,0.01239013671875,0.65570068359375
1760037620239,95387907,3266,3,0.624755859375,0.01116943359375,0.65155029296875
1760037620239,95387907,3266,4,0.625244140625,0.00579833984375,0.66375732421875
1760037620239,95387907,3266,5,0.623046875,0.00775146484375,0.65521240234375
1760037620239,95387907,3266,6,0.6220703125,0.00946044921875,0.65716552734375
1760037620239,95387907,3266,7,0.62451171875,0.00946044921875,0.65838623046875
1760037620239,95387907,3266,8,0.62548828125,0.00384521484375,0.65960693359375
1760037620239,95387907,3266,9,0.6220703125,0.01092529296875,0.65936279296875
1760037620239,95387907,3266,10,0.6201171875,0.01043701171875,0.66156005859375
1760037620239,95387907,3266,11,0.62255859375,0.00970458984375,0.65496826171875
1760037620239,95387907,3266,12,0.622314453125,0.00360107421875,0.66326904296875
1760037620239,95387907,3266,13,0.62255859375,0.00701904296875,0.66131591796875
1760037620239,95387907,3266,14,0.6240234375,0.01068115234375,0.65667724609375
1760037620239,95387907,3266,15,0.620849609375,0.00335693359375,0.65863037109375
1760037620239,95387907,3266,16,0.6201171875,0.00115966796875,0.66204833984375
1760037620239,95387907,3266,17,0.618896484375,0.00555419921875,0.65936279296875
1760037620239,95387907,3266,18,0.62109375,0.00653076171875,0.66351318359375
1760037620239,95387907,3266,19,0.620849609375,0.00408935546875,0.66009521484375
1760037620239,95387907,3266,20,0.622802734375,0.00360107421875,0.65570068359375
1760037620239,95387907,3266,21,0.61962890625,0.00067138671875,0.66156005859375
1760037620239,95387907,3266,22,0.62353515625,0.00262451171875,0.65252685546875
1760037620239,95387907,3266,23,0.62451171875,0.00213623046875,0.65985107421875
1760037620239,95387907,3266,24,0.617431640625,-0.00225830078125,0.65863037109375
1760037620239,95387907,3266,25,0.6240234375,-0.00299072265625,0.65887451171875
1760037620239,95387907,3266,26,0.6240234375,-0.00128173828125,0.65643310546875
1760037620239,95387907,3266,27,0.621337890625,-0.00274658203125,0.65960693359375
1760037620239,95387907,3266,28,0.622314453125,-0.00201416015625,0.65936279296875
1760037620239,95387907,3266,29,0.618408203125,-0.00494384765625,0.65496826171875
1760037620239,95387907,3266,30,0.623779296875,-0.00543212890625,0.66717529296875
1760037620239,95387907,3266,31,0.623779296875,-0.00469970703125,0.65447998046875
1760037622939,95390480,3267,0,0.62646484375,-0.00128173828125,0.65350341796875
1760037622939,95390480,3267,1,0.632080078125,-0.00372314453125,0.67059326171875
1760037622939,95390480,3267,2,0.6201171875,0.00677490234375,0.65960693359375
1760037622939,95390480,3267,3,0.615234375,0.00946044921875,0.65521240234375
1760037622939,95390480,3267,4,0.617431640625,0.01702880859375,0.65277099609375
1760037622939,95390480,3267,5,0.61669921875,0.00823974609375,0.65350341796875
1760037622939,95390480,3267,6,0.62451171875,0.00408935546875,0.66082763671875
1760037622939,95390480,3267,7,0.6240234375,0.01092529296875,0.66229248046875
1760037622939,95390480,3267,8,0.6240234375,0.01409912109375,0.65545654296875
1760037622939,95390480,3267,9,0.6201171875,0.00921630859375,0.65838623046875
1760037622939,95390480,3267,10,0.620361328125,-0.00030517578125,0.66058349609375
1760037622939,95390480,3267,11,0.615966796875,0.00213623046875,0.66400146484375
1760037622939,95390480,3267,12,0.62060546875,0.01165771484375,0.66204833984375
1760037622939,95390480,3267,13,0.621826171875,0.00238037109375,0.65374755859375
1760037622939,95390480,3267,14,0.620361328125,0.00311279296875,0.65814208984375
1760037622939,95390480,3267,15,0.62109375,0.00238037109375,0.65936279296875
1760037622939,95390480,3267,16,0.617919921875,0.00067138671875,0.66278076171875
1760037622939,95390480,3267,17,0.619140625,0.00384521484375,0.65911865234375
1760037622939,95390480,3267,18,0.621337890625,0.00335693359375,0.65887451171875
1760037622939,95390480,3267,19,0.618408203125,0.00213623046875,0.66619873046875
1760037622939,95390480,3267,20,0.620849609375,0.00238037109375,0.66668701171875
1760037622939,95390480,3267,21,0.61865234375,-0.00054931640625,0.66278076171875
1760037622939,95390480,3267,22,0.6220703125,0.00164794921875,0.65545654296875
1760037622939,95390480,3267,23,0.620361328125,0.00067138671875,0.65911865234375
1760037622939,95390480,3267,24,0.619384765625,-0.00128173828125,0.66009521484375
1760037622939,95390480,3267,25,0.621337890625,-0.00372314453125,0.66693115234375
1760037622939,95390480,3267,26,0.62451171875,-0.00030517578125,0.65667724609375
1760037622939,95390480,3267,27,0.623046875,-0.00152587890625,0.65789794921875
1760037622939,95390480,3267,28,0.62158203125,-0.00225830078125,0.66009521484375
1760037622939,95390480,3267,29,0.62646484375,-0.00274658203125,0.66204833984375
1760037622939,95390480,3267,30,0.62548828125,-0.00152587890625,0.65032958984375
1760037622939,95390480,3267,31,0.626220703125,-0.00030517578125,0.65496826171875
1760037625638,95393053,3268,0,0.626708984375,-0.00396728515625,0.65130615234375
1760037625638,95393053,3268,1,0.63232421875,-6.103515625e-05,0.65374755859375
1760037625638,95393053,3268,2,0.63134765625,0.00286865234375,0.64788818359375
1760037625638,95393053,3268,3,0.62939453125,0.00115966796875,0.64959716796875
1760037625638,95393053,3268,4,0.632080078125,0.00213623046875,0.65447998046875
1760037625638,95393053,3268,5,0.626953125,-0.00274658203125,0.64788818359375
1760037625638,95393053,3268,6,0.632080078125,-0.00225830078125,0.64739990234375
1760037625638,95393053,3268,7,0.636962890625,-6.103515625e-05,0.63763427734375
1760037625638,95393053,3268,8,0.64306640625,0.00775146484375,0.66424560546875
1760037625638,95393053,3268,9,0.62646484375,0.00848388671875,0.65911865234375
1760037625638,95393053,3268,10,0.623291015625,0.01165771484375,0.64398193359375
1760037625638,95393053,3268,11,0.619140625,0.01116943359375,0.63665771484375
1760037625638,95393053,3268,12,0.624267578125,0.00604248046875,0.65496826171875
1760037625638,95393053,3268,13,0.633544921875,0.01092529296875,0.64837646484375
1760037625638,95393053,3268,14,0.6318359375,0.01190185546875,0.65008544921875
1760037625638,95393053,3268,15,0.63037109375,0.00653076171875,0.65399169921875
1760037625638,95393053,3268,16,0.626220703125,0.00091552734375,0.65716552734375
1760037625638,95393053,3268,17,0.62060546875,0.00115966796875,0.65399169921875
1760037625638,95393053,3268,18,0.626708984375,0.00604248046875,0.66253662109375
1760037625638,95393053,3268,19,0.62255859375,0.00701904296875,0.65008544921875
1760037625638,95393053,3268,20,0.629150390625,-0.00103759765625,0.65863037109375
1760037625638,95393053,3268,21,0.625732421875,0.00360107421875,0.66107177734375
1760037625638,95393053,3268,22,0.625244140625,0.00408935546875,0.65911865234375
1760037625638,95393053,3268,23,0.61962890625,0.00042724609375,0.65472412109375
1760037625638,95393053,3268,24,0.62158203125,-0.00030517578125,0.65985107421875
1760037625638,95393053,3268,25,0.62548828125,0.00067138671875,0.65594482421875
1760037625638,95393053,3268,26,0.62255859375,0.00140380859375,0.65765380859375
1760037625638,95393053,3268,27,0.6220703125,0.00091552734375,0.65521240234375
1760037625638,95393053,3268,28,0.625732421875,0.00140380859375,0.65496826171875
1760037625638,95393053,3268,29,0.624267578125,-0.00128173828125,0.65863037109375
1760037625638,95393053,3268,30,0.62353515625,-0.00103759765625,0.65716552734375
1760037625638,95393053,3268,31,0.62646484375,0.00164794921875,0.65521240234375
1760037628039,95395626,3269,0,0.624755859375,-0.00225830078125,0.65155029296875
1760037628039,95395626,3269,1,0.627685546875,-0.00128173828125,0.65887451171875
1760037628039,95395626,3269,2,0.625244140625,-0.00396728515625,0.66131591796875
1760037628039,95395626,3269,3,0.624755859375,0.00067138671875,0.65057373046875
1760037628039,95395626,3269,4,0.625732421875,-0.00225830078125,0.65618896484375
1760037628039,95395626,3269,5,0.62548828125,-0.00054931640625,0.65032958984375
1760037628039,95395626,3269,6,0.625732421875,-0.00543212890625,0.65911865234375
1760037628039,95395626,3269,7,0.627685546875,-0.00054931640625,0.65325927734375
1760037628039,95395626,3269,8,0.627197265625,-0.00201416015625,0.65447998046875
1760037628039,95395626,3269,9,0.629150390625,-0.00177001953125,0.65325927734375
1760037628039,95395626,3269,10,0.629638671875,-0.00347900390625,0.65570068359375
1760037628039,95395626,3269,11,0.630615234375,-0.00201416015625,0.64739990234375
1760037628039,95395626,3269,12,0.6298828125,-0.00201416015625,0.65057373046875
1760037628039,95395626,3269,13,0.63427734375,-0.00128173828125,0.65350341796875
1760037628039,95395626,3269,14,0.62939453125,0.00067138671875,0.64373779296875
1760037628039,95395626,3269,15,0.6337890625,-0.00152587890625,0.64764404296875
1760037628039,95395626,3269,16,0.63525390625,0.00115966796875,0.64373779296875
1760037628039,95395626,3269,17,0.63671875,0.00262451171875,0.65081787109375
1760037628039,95395626,3269,18,0.632080078125,-0.00177001953125,0.64569091796875
1760037628039,95395626,3269,19,0.635009765625,0.00262451171875,0.64569091796875
1760037628039,95395626,3269,20,0.64306640625,0.00384521484375,0.64691162109375
1760037628039,95395626,3269,21,0.634765625,0.00457763671875,0.64178466796875
1760037628039,95395626,3269,22,0.642333984375,0.00653076171875,0.63568115234375
1760037628039,95395626,3269,23,0.632568359375,0.00701904296875,0.63397216796875
1760037628039,95395626,3269,24,0.64111328125,0.00262451171875,0.64739990234375
1760037628039,95395626,3269,25,0.64111328125,0.00823974609375,0.63348388671875
1760037628039,95395626,3269,26,0.63916015625,0.00604248046875,0.63153076171875
1760037628039,95395626,3269,27,0.653564453125,0.00506591796875,0.64642333984375
1760037628039,95395626,3269,28,0.639892578125,0.01239013671875,0.66204833984375
1760037628039,95395626,3269,29,0.625,0.01409912109375,0.65521240234375
1760037628039,95395626,3269,30,0.62158203125,0.01800537109375,0.61981201171875
1760037628039,95395626,3269,31,0.628173828125,0.01239013671875,0.64398193359375
1760037630589,95398199,3270,0,0.631591796875,0.00872802734375,0.64666748046875
1760037630589,95398199,3270,1,0.637451171875,0.00823974609375,0.65081787109375
1760037630589,95398199,3270,2,0.6318359375,0.01507568359375,0.64398193359375
1760037630589,95398199,3270,3,0.626220703125,0.00750732421875,0.64984130859375
1760037630589,95398199,3270,4,0.628173828125,-0.00079345703125,0.65692138671875
1760037630589,95398199,3270,5,0.6259765625,0.00482177734375,0.65545654296875
1760037630589,95398199,3270,6,0.625,0.00531005859375,0.65228271484375
1760037630589,95398199,3270,7,0.62548828125,0.00457763671875,0.65252685546875
1760037630589,95398199,3270,8,0.628173828125,0.00360107421875,0.64984130859375
1760037630589,95398199,3270,9,0.628662109375,0.00091552734375,0.65643310546875
1760037630589,95398199,3270,10,0.62548828125,0.00335693359375,0.64788818359375
1760037630589,95398199,3270,11,0.62939453125,0.00335693359375,0.65301513671875
1760037630589,95398199,3270,12,0.6259765625,0.00067138671875,0.65399169921875
1760037630589,95398199,3270,13,0.625244140625,-0.00030517578125,0.65814208984375
1760037630589,95398199,3270,14,0.626708984375,0.00189208984375,0.65911865234375
1760037630589,95398199,3270,15,0.6240234375,0.00433349609375,0.65179443359375
1760037630589,95398199,3270,16,0.62548828125,-0.00054931640625,0.65570068359375
1760037630589,95398199,3270,17,0.627685546875,-0.00225830078125,0.65155029296875
1760037630589,95398199,3270,18,0.626220703125,-0.00250244140625,0.65350341796875
1760037630589,95398199,3270,19,0.626953125,0.00189208984375,0.65350341796875
1760037630589,95398199,3270,20,0.62646484375,0.00067138671875,0.65692138671875
1760037630589,95398199,3270,21,0.626953125,-0.00421142578125,0.65521240234375
1760037630589,95398199,3270,22,0.627197265625,0.00042724609375,0.64788818359375
1760037630589,95398199,3270,23,0.630126953125,-0.00128173828125,0.65228271484375
1760037630589,95398199,3270,24,0.6318359375,-0.00225830078125,0.64935302734375
1760037630589,95398199,3270,25,0.6318359375,-0.00177001953125,0.65032958984375
1760037630589,95398199,3270,26,0.6298828125,-6.103515625e-05,0.65008544921875
1760037630589,95398199,3270,27,0.63427734375,-0.00030517578125,0.64373779296875
1760037630589,95398199,3270,28,0.641357421875,0.00360107421875,0.64422607421875
1760037630589,95398199,3270,29,0.6337890625,0.00091552734375,0.64984130859375
1760037630589,95398199,3270,30,0.6337890625,-0.00030517578125,0.64788818359375
1760037630589,95398199,3270,31,0.63427734375,0.00189208984375,0.64276123046875
1760037633139,95400766,3271,0,0.64013671875,0.00189208984375,0.64495849609375
1760037633139,95400766,3271,1,0.639892578125,0.00531005859375,0.63568115234375
1760037633139,95400766,3271,2,0.640380859375,0.00335693359375,0.64251708984375
1760037633139,95400766,3271,3,0.6396484375,0.00506591796875,0.63421630859375
1760037633139,95400766,3271,4,0.637939453125,0.00604248046875,0.64276123046875
1760037633139,95400766,3271,5,0.6435546875,0.00872802734375,0.64154052734375
1760037633139,95400766,3271,6,0.638671875,0.00872802734375,0.63616943359375
1760037633139,95400766,3271,7,0.643310546875,0.00921630859375,0.63690185546875
1760037633139,95400766,3271,8,0.64306640625,0.01239013671875,0.63763427734375
1760037633139,95400766,3271,9,0.64208984375,0.01556396484375,0.63592529296875
1760037633139,95400766,3271,10,0.642333984375,0.01312255859375,0.64276123046875
1760037633139,95400766,3271,11,0.64111328125,0.01678466796875,0.63323974609375
1760037633139,95400766,3271,12,0.64111328125,0.01361083984375,0.63128662109375
1760037633139,95400766,3271,13,0.64501953125,0.01873779296875,0.63299560546875
1760037633139,95400766,3271,14,0.649658203125,0.01922607421875,0.63568115234375
1760037633139,95400766,3271,15,0.646240234375,0.01873779296875,0.62347412109375
1760037633139,95400766,3271,16,0.64208984375,0.02264404296875,0.63275146484375
1760037633139,95400766,3271,17,0.64599609375,0.02264404296875,0.63128662109375
1760037633139,95400766,3271,18,0.647216796875,0.02557373046875,0.62469482421875
1760037633139,95400766,3271,19,0.64892578125,0.02386474609375,0.62884521484375
1760037633139,95400766,3271,20,0.64794921875,0.02655029296875,0.62762451171875
1760037633139,95400766,3271,21,0.647216796875,0.02288818359375,0.62664794921875
1760037633139,95400766,3271,22,0.648681640625,0.03094482421875,0.62225341796875
1760037633139,95400766,3271,23,0.649169921875,0.02899169921875,0.62664794921875
1760037633139,95400766,3271,24,0.652099609375,0.02752685546875,0.62152099609375
1760037633139,95400766,3271,25,0.64892578125,0.02996826171875,0.62420654296875
1760037633139,95400766,3271,26,0.650146484375,0.02947998046875,0.62542724609375
1760037633139,95400766,3271,27,0.649658203125,0.02850341796875,0.62322998046875
1760037633139,95400766,3271,28,0.6533203125,0.02972412109375,0.62542724609375
1760037633139,95400766,3271,29,0.649169921875,0.03533935546875,0.61834716796875
1760037633139,95400766,3271,30,0.652099609375,0.02752685546875,0.63275146484375
1760037633139,95400766,3271,31,0.654052734375,0.03485107421875,0.62445068359375
1760037635691,95403340,3272,0,0.649169921875,0.03289794921875,0.62005615234375
1760037635691,95403340,3272,1,0.65771484375,0.03265380859375,0.62054443359375
1760037635691,95403340,3272,2,0.651123046875,0.02850341796875,0.61956787109375
1760037635691,95403340,3272,3,0.65185546875,0.02777099609375,0.62322998046875
1760037635691,95403340,3272,4,0.651611328125,0.02899169921875,0.62371826171875
1760037635691,95403340,3272,5,0.64697265625,0.02093505859375,0.63665771484375
1760037635691,95403340,3272,6,0.63671875,0.01409912109375,0.64617919921875
1760037635691,95403340,3272,7,0.649169921875,0.01239013671875,0.65203857421875
1760037635691,95403340,3272,8,0.631103515625,0.01995849609375,0.64910888671875
1760037635691,95403340,3272,9,0.6376953125,0.02459716796875,0.63861083984375
1760037635691,95403340,3272,10,0.623046875,0.02728271484375,0.64617919921875
1760037635691,95403340,3272,11,0.626220703125,0.02288818359375,0.63909912109375
1760037635691,95403340,3272,12,0.62353515625,0.01873779296875,0.63568115234375
1760037635691,95403340,3272,13,0.636962890625,0.01336669921875,0.64935302734375
1760037635691,95403340,3272,14,0.63525390625,0.02044677734375,0.65277099609375
1760037635691,95403340,3272,15,0.63232421875,0.02069091796875,0.64691162109375
1760037635691,95403340,3272,16,0.62548828125,0.00799560546875,0.65936279296875
1760037635691,95403340,3272,17,0.6259765625,0.01019287109375,0.65570068359375
1760037635691,95403340,3272,18,0.62109375,0.01483154296875,0.66131591796875
1760037635691,95403340,3272,19,0.6162109375,0.01092529296875,0.65985107421875
1760037635691,95403340,3272,20,0.622314453125,0.00579833984375,0.65692138671875
1760037635691,95403340,3272,21,0.624755859375,0.01019287109375,0.65814208984375
1760037635691,95403340,3272,22,0.625,0.00726318359375,0.65838623046875
1760037635691,95403340,3272,23,0.621826171875,0.00775146484375,0.65106201171875
1760037635691,95403340,3272,24,0.626220703125,0.00311279296875,0.65936279296875
1760037635691,95403340,3272,25,0.623046875,0.00823974609375,0.65570068359375
1760037635691,95403340,3272,26,0.62255859375,0.00750732421875,0.65618896484375
1760037635691,95403340,3272,27,0.61962890625,0.00555419921875,0.65252685546875
1760037635691,95403340,3272,28,0.626953125,0.00286865234375,0.66253662109375
1760037635691,95403340,3272,29,0.6240234375,0.00604248046875,0.65740966796875
1760037635691,95403340,3272,30,0.624755859375,0.00408935546875,0.65740966796875
1760037635691,95403340,3272,31,0.625244140625,0.00140380859375,0.64959716796875
1760037638539,95405913,3273,0,0.624755859375,0.00286865234375,0.65521240234375
1760037638539,95405913,3273,1,0.623779296875,0.00091552734375,0.65863037109375
1760037638539,95405913,3273,2,0.6279296875,0.00384521484375,0.65350341796875
1760037638539,95405913,3273,3,0.625732421875,0.00457763671875,0.65081787109375
1760037638539,95405913,3273,4,0.62890625,0.00067138671875,0.65887451171875
1760037638539,95405913,3273,5,0.627685546875,0.00604248046875,0.65032958984375
1760037638539,95405913,3273,6,0.6259765625,0.00921630859375,0.65228271484375
1760037638539,95405913,3273,7,0.628173828125,0.00628662109375,0.65032958984375
1760037638539,95405913,3273,8,0.6298828125,0.00897216796875,0.64105224609375
1760037638539,95405913,3273,9,0.63232421875,0.00579833984375,0.65838623046875
1760037638539,95405913,3273,10,0.6328125,0.01678466796875,0.65789794921875
1760037638539,95405913,3273,11,0.62646484375,0.02044677734375,0.65252685546875
1760037638539,95405913,3273,12,0.618408203125,0.01531982421875,0.64154052734375
1760037638539,95405913,3273,13,0.62109375,0.01483154296875,0.64813232421875
1760037638539,95405913,3273,14,0.62353515625,0.01531982421875,0.65423583984375
1760037638539,95405913,3273,15,0.62451171875,0.01605224609375,0.65399169921875
1760037638539,95405913,3273,16,0.623291015625,0.02020263671875,0.65008544921875
1760037638539,95405913,3273,17,0.625732421875,0.00946044921875,0.66278076171875
1760037638539,95405913,3273,18,0.62060546875,0.00482177734375,0.65765380859375
1760037638539,95405913,3273,19,0.623046875,0.01068115234375,0.66082763671875
1760037638539,95405913,3273,20,0.621337890625,0.01116943359375,0.65911865234375
1760037638539,95405913,3273,21,0.622802734375,0.00701904296875,0.65765380859375
1760037638539,95405913,3273,22,0.62255859375,0.00653076171875,0.65814208984375
1760037638539,95405913,3273,23,0.619384765625,0.00311279296875,0.66302490234375
1760037638539,95405913,3273,24,0.622314453125,0.00482177734375,0.66058349609375
1760037638539,95405913,3273,25,0.621337890625,0.00384521484375,0.65667724609375
1760037638539,95405913,3273,26,0.6240234375,0.00091552734375,0.66326904296875
1760037638539,95405913,3273,27,0.623046875,0.00360107421875,0.65594482421875
1760037638539,95405913,3273,28,0.62451171875,0.00482177734375,0.65643310546875
1760037638539,95405913,3273,29,0.621826171875,0.00164794921875,0.65740966796875
1760037638539,95405913,3273,30,0.62451171875,0.00091552734375,0.65765380859375
1760037638539,95405913,3273,31,0.626708984375,0.00555419921875,0.65643310546875
1760037640938,95408486,3274,0,0.625244140625,0.00286865234375,0.66131591796875
1760037640938,95408486,3274,1,0.625,0.00457763671875,0.65570068359375
1760037640938,95408486,3274,2,0.625732421875,0.00140380859375,0.64935302734375
1760037640938,95408486,3274,3,0.627197265625,0.00262451171875,0.65203857421875
1760037640938,95408486,3274,4,0.630615234375,0.00433349609375,0.65277099609375
1760037640938,95408486,3274,5,0.62841796875,0.00311279296875,0.64715576171875
1760037640938,95408486,3274,6,0.629638671875,0.00140380859375,0.65179443359375
1760037640938,95408486,3274,7,0.629638671875,0.00262451171875,0.64813232421875
1760037640938,95408486,3274,8,0.632080078125,0.00311279296875,0.64813232421875
1760037640938,95408486,3274,9,0.632568359375,0.00531005859375,0.64788818359375
1760037640938,95408486,3274,10,0.633544921875,0.00799560546875,0.64495849609375
1760037640938,95408486,3274,11,0.631591796875,0.00042724609375,0.65277099609375
1760037640938,95408486,3274,12,0.632568359375,0.00482177734375,0.64300537109375
1760037640938,95408486,3274,13,0.63818359375,0.01068115234375,0.64520263671875
1760037640938,95408486,3274,14,0.635009765625,0.00531005859375,0.64666748046875
1760037640938,95408486,3274,15,0.63671875,0.00384521484375,0.64398193359375
1760037640938,95408486,3274,16,0.633544921875,0.00848388671875,0.64691162109375
1760037640938,95408486,3274,17,0.635009765625,0.01043701171875,0.63958740234375
1760037640938,95408486,3274,18,0.637939453125,0.00750732421875,0.64178466796875
1760037640938,95408486,3274,19,0.64208984375,0.00970458984375,0.63592529296875
1760037640938,95408486,3274,20,0.6376953125,0.00628662109375,0.64886474609375
1760037640938,95408486,3274,21,0.637939453125,0.01092529296875,0.64447021484375
1760037640938,95408486,3274,22,0.63330078125,0.00775146484375,0.64959716796875
1760037640938,95408486,3274,23,0.627197265625,0.01116943359375,0.66033935546875
1760037640938,95408486,3274,24,0.630615234375,0.01580810546875,0.65985107421875
1760037640938,95408486,3274,25,0.628173828125,0.01458740234375,0.65789794921875
1760037640938,95408486,3274,26,0.624755859375,0.02166748046875,0.64715576171875
1760037640938,95408486,3274,27,0.620849609375,0.02484130859375,0.64300537109375
1760037640938,95408486,3274,28,0.623046875,0.01824951171875,0.64886474609375
1760037640938,95408486,3274,29,0.62744140625,0.01043701171875,0.66082763671875
1760037640938,95408486,3274,30,0.62939453125,0.02093505859375,0.65032958984375
1760037640938,95408486,3274,31,0.626708984375,0.02020263671875,0.65252685546875
1760037643490,95411059,3275,0,0.623046875,0.00897216796875,0.65716552734375
1760037643490,95411059,3275,1,0.62060546875,0.00531005859375,0.65594482421875
1760037643490,95411059,3275,2,0.621826171875,0.01580810546875,0.66131591796875
1760037643490,95411059,3275,3,0.62255859375,0.01385498046875,0.65716552734375
1760037643490,95411059,3275,4,0.62451171875,0.01019287109375,0.65277099609375
1760037643490,95411059,3275,5,0.62841796875,0.00555419921875,0.66033935546875
1760037643490,95411059,3275,6,0.621337890625,0.01361083984375,0.65350341796875
1760037643490,95411059,3275,7,0.623291015625,0.01043701171875,0.65496826171875
1760037643490,95411059,3275,8,0.62353515625,0.00457763671875,0.65521240234375
1760037643490,95411059,3275,9,0.623291015625,0.00531005859375,0.66058349609375
1760037643490,95411059,3275,10,0.62548828125,0.01165771484375,0.65789794921875
1760037643490,95411059,3275,11,0.622802734375,0.00408935546875,0.65423583984375
1760037643490,95411059,3275,12,0.62548828125,0.00604248046875,0.65667724609375
1760037643490,95411059,3275,13,0.621826171875,0.00408935546875,0.65496826171875
1760037643490,95411059,3275,14,0.62451171875,0.00604248046875,0.66033935546875
1760037643490,95411059,3275,15,0.623291015625,0.00921630859375,0.65570068359375
1760037643490,95411059,3275,16,0.62255859375,0.00384521484375,0.65521240234375
1760037643490,95411059,3275,17,0.627197265625,0.00018310546875,0.65863037109375
1760037643490,95411059,3275,18,0.625244140625,0.00482177734375,0.65692138671875
1760037643490,95411059,3275,19,0.625,0.00140380859375,0.65081787109375
1760037643490,95411059,3275,20,0.62841796875,0.00286865234375,0.65716552734375
1760037643490,95411059,3275,21,0.626220703125,0.00091552734375,0.64764404296875
1760037643490,95411059,3275,22,0.62939453125,0.00067138671875,0.65960693359375
1760037643490,95411059,3275,23,0.62744140625,0.00189208984375,0.65130615234375
1760037643490,95411059,3275,24,0.627197265625,0.00408935546875,0.65374755859375
1760037643490,95411059,3275,25,0.62744140625,-0.00299072265625,0.65252685546875
1760037643490,95411059,3275,26,0.629150390625,0.00091552734375,0.64886474609375
1760037643490,95411059,3275,27,0.627197265625,0.00140380859375,0.64984130859375
1760037643490,95411059,3275,28,0.63134765625,0.00067138671875,0.65374755859375
1760037643490,95411059,3275,29,0.6318359375,0.00335693359375,0.65179443359375
1760037643490,95411059,3275,30,0.631103515625,-0.00177001953125,0.64520263671875
1760037643490,95411059,3275,31,0.630859375,0.00286865234375,0.65203857421875
1760037646040,95413632,3276,0,0.63720703125,0.00579833984375,0.64666748046875
1760037646040,95413632,3276,1,0.631591796875,0.00335693359375,0.64471435546875
1760037646040,95413632,3276,2,0.63232421875,0.00384521484375,0.64959716796875
1760037646040,95413632,3276,3,0.628662109375,0.00653076171875,0.65447998046875
1760037646040,95413632,3276,4,0.622802734375,0.00872802734375,0.64837646484375
1760037646040,95413632,3276,5,0.62548828125,0.01165771484375,0.65472412109375
1760037646040,95413632,3276,6,0.630859375,0.00433349609375,0.64788818359375
1760037646040,95413632,3276,7,0.634033203125,0.00848388671875,0.67376708984375
1760037646040,95413632,3276,8,0.62158203125,0.02215576171875,0.65570068359375
1760037646040,95413632,3276,9,0.621826171875,0.02044677734375,0.65155029296875
1760037646040,95413632,3276,10,0.618408203125,0.01727294921875,0.64471435546875
1760037646040,95413632,3276,11,0.61962890625,0.01312255859375,0.64984130859375
1760037646040,95413632,3276,12,0.62890625,0.01507568359375,0.65936279296875
1760037646040,95413632,3276,13,0.6279296875,0.01971435546875,0.65570068359375
1760037646040,95413632,3276,14,0.625,0.01776123046875,0.65374755859375
1760037646040,95413632,3276,15,0.62548828125,0.00579833984375,0.65692138671875
1760037646040,95413632,3276,16,0.622802734375,0.00579833984375,0.65716552734375
1760037646040,95413632,3276,17,0.626220703125,0.01165771484375,0.66156005859375
1760037646040,95413632,3276,18,0.62109375,0.01239013671875,0.65374755859375
1760037646040,95413632,3276,19,0.624267578125,0.00433349609375,0.65936279296875
1760037646040,95413632,3276,20,0.62353515625,0.00531005859375,0.65740966796875
1760037646040,95413632,3276,21,0.626953125,0.00872802734375,0.65325927734375
1760037646040,95413632,3276,22,0.62451171875,0.00921630859375,0.65765380859375
1760037646040,95413632,3276,23,0.62451171875,0.00726318359375,0.65106201171875
1760037646040,95413632,3276,24,0.624755859375,0.00311279296875,0.66302490234375
1760037646040,95413632,3276,25,0.625732421875,0.00726318359375,0.65252685546875
1760037646040,95413632,3276,26,0.626220703125,0.00970458984375,0.65374755859375
1760037646040,95413632,3276,27,0.624267578125,0.00360107421875,0.65447998046875
1760037646040,95413632,3276,28,0.62744140625,0.00262451171875,0.65496826171875
1760037646040,95413632,3276,29,0.623291015625,0.00189208984375,0.65325927734375
1760037646040,95413632,3276,30,0.626708984375,0.00457763671875,0.65374755859375
1760037646040,95413632,3276,31,0.622802734375,0.00482177734375,0.65594482421875
1760037648590,95416205,3277,0,0.62646484375,-0.00030517578125,0.65301513671875
1760037648590,95416205,3277,1,0.625244140625,0.00164794921875,0.65545654296875
1760037648590,95416205,3277,2,0.628662109375,0.00262451171875,0.65740966796875
1760037648590,95416205,3277,3,0.625244140625,0.00262451171875,0.65325927734375
1760037648590,95416205,3277,4,0.62646484375,-0.00128173828125,0.65887451171875
1760037648590,95416205,3277,5,0.630615234375,0.00384521484375,0.64959716796875
1760037648590,95416205,3277,6,0.629638671875,0.00238037109375,0.64617919921875
1760037648590,95416205,3277,7,0.63330078125,0.00433349609375,0.65643310546875
1760037648590,95416205,3277,8,0.630615234375,0.00213623046875,0.64178466796875
1760037648590,95416205,3277,9,0.630859375,-0.00030517578125,0.65301513671875
1760037648590,95416205,3277,10,0.632080078125,0.00531005859375,0.64447021484375
1760037648590,95416205,3277,11,0.635498046875,0.00262451171875,0.64788818359375
1760037648590,95416205,3277,12,0.635986328125,0.00164794921875,0.64788818359375
1760037648590,95416205,3277,13,0.63818359375,0.00482177734375,0.64666748046875
1760037648590,95416205,3277,14,0.635498046875,0.00726318359375,0.64471435546875
1760037648590,95416205,3277,15,0.638916015625,0.00555419921875,0.64984130859375
1760037648590,95416205,3277,16,0.63671875,0.01043701171875,0.64349365234375
1760037648590,95416205,3277,17,0.635498046875,0.00726318359375,0.64154052734375
1760037648590,95416205,3277,18,0.63720703125,0.00799560546875,0.64178466796875
1760037648590,95416205,3277,19,0.6416015625,0.00531005859375,0.64398193359375
1760037648590,95416205,3277,20,0.639404296875,0.00531005859375,0.64251708984375
1760037648590,95416205,3277,21,0.63330078125,0.00897216796875,0.65301513671875
1760037648590,95416205,3277,22,0.627685546875,0.01068115234375,0.66180419921875
1760037648590,95416205,3277,23,0.6396484375,0.01751708984375,0.65008544921875
1760037648590,95416205,3277,24,0.617431640625,0.01824951171875,0.65350341796875
1760037648590,95416205,3277,25,0.618896484375,0.02337646484375,0.64593505859375
1760037648590,95416205,3277,26,0.62255859375,0.01678466796875,0.65789794921875
1760037648590,95416205,3277,27,0.6181640625,0.01873779296875,0.64984130859375
1760037648590,95416205,3277,28,0.628173828125,0.01922607421875,0.65570068359375
1760037648590,95416205,3277,29,0.618896484375,0.01409912109375,0.65789794921875
1760037648590,95416205,3277,30,0.620361328125,0.01214599609375,0.66033935546875
1760037648590,95416205,3277,31,0.6162109375,0.01263427734375,0.66839599609375
