receivedPhoneTimestamp,respeckTimestamp,packetSeqNum,sampleSeqNum,accelX,accelY,accelZ
1759678495973,866276808,13654,0,-0.9658203125,-0.14141845703125,0.22723388671875
1759678495973,866276808,13654,1,-0.972900390625,-0.13580322265625,0.22137451171875
1759678495973,866276808,13654,2,-0.96728515625,-0.13604736328125,0.22381591796875
1759678495973,866276808,13654,3,-0.966552734375,-0.13555908203125,0.22210693359375
1759678495973,866276808,13654,4,-0.96337890625,-0.13555908203125,0.22772216796875
1759678495973,866276808,13654,5,-0.96923828125,-0.13385009765625,0.22308349609375
1759678495973,866276808,13654,6,-0.9658203125,-0.14044189453125,0.22406005859375
1759678495973,866276808,13654,7,-0.964599609375,-0.13507080078125,0.22186279296875
1759678495973,866276808,13654,8,-0.967529296875,-0.13946533203125,0.21551513671875
1759678495973,866276808,13654,9,-0.970458984375,-0.13995361328125,0.21258544921875
1759678495973,866276808,13654,10,-0.969482421875,-0.14361572265625,0.21746826171875
1759678495973,866276808,13654,11,-0.96728515625,-0.14068603515625,0.21966552734375
1759678495973,866276808,13654,12,-0.966552734375,-0.14019775390625,0.21575927734375
1759678495973,866276808,13654,13,-0.967041015625,-0.14385986328125,0.22259521484375
1759678495973,866276808,13654,14,-0.96826171875,-0.14215087890625,0.22088623046875
1759678495973,866276808,13654,15,-0.96875,-0.14093017578125,0.21893310546875
1759678495973,866276808,13654,16,-0.96044921875,-0.14288330078125,0.22357177734375
1759678495973,866276808,13654,17,-0.9619140625,-0.14312744140625,0.22698974609375
1759678495973,866276808,13654,18,-0.966552734375,-0.13946533203125,0.22161865234375
1759678495973,866276808,13654,19,-0.967041015625,-0.14874267578125,0.21697998046875
1759678495973,866276808,13654,20,-0.978271484375,-0.14459228515625,0.23406982421875
1759678495973,866276808,13654,21,-0.958251953125,-0.14678955078125,0.24969482421875
1759678495973,866276808,13654,22,-0.959716796875,-0.12896728515625,0.23236083984375
1759678495973,866276808,13654,23,-0.94970703125,-0.12628173828125,0.23553466796875
1759678495973,866276808,13654,24,-0.9697265625,-0.13458251953125,0.21429443359375
1759678495973,866276808,13654,25,-0.974365234375,-0.13385009765625,0.20892333984375
1759678495973,866276808,13654,26,-0.97314453125,-0.13922119140625,0.22503662109375
1759678495973,866276808,13654,27,-0.9599609375,-0.14117431640625,0.22918701171875
1759678495973,866276808,13654,28,-0.9619140625,-0.13555908203125,0.22967529296875
1759678495973,866276808,13654,29,-0.96826171875,-0.13726806640625,0.22869873046875
1759678495973,866276808,13654,30,-0.969970703125,-0.13873291015625,0.22991943359375
1759678495973,866276808,13654,31,-0.9638671875,-0.13800048828125,0.22235107421875
1759678498498,866279345,13655,0,-0.96630859375,-0.13629150390625,0.21942138671875
1759678498498,866279345,13655,1,-0.970458984375,-0.13970947265625,0.22918701171875
1759678498498,866279345,13655,2,-0.961669921875,-0.13677978515625,0.22552490234375
1759678498498,866279345,13655,3,-0.958984375,-0.13702392578125,0.22186279296875
1759678498498,866279345,13655,4,-0.964599609375,-0.13751220703125,0.22674560546875
1759678498498,866279345,13655,5,-0.96728515625,-0.13702392578125,0.22137451171875
1759678498498,866279345,13655,6,-0.966552734375,-0.13848876953125,0.22650146484375
1759678498498,866279345,13655,7,-0.962890625,-0.14239501953125,0.22283935546875
1759678498498,866279345,13655,8,-0.967529296875,-0.14117431640625,0.23236083984375
1759678498498,866279345,13655,9,-0.96728515625,-0.14190673828125,0.23187255859375
1759678498498,866279345,13655,10,-0.963623046875,-0.14044189453125,0.22283935546875
1759678498498,866279345,13655,11,-0.967041015625,-0.14532470703125,0.23138427734375
1759678498498,866279345,13655,12,-0.966552734375,-0.14166259765625,0.22625732421875
1759678498498,866279345,13655,13,-0.96630859375,-0.14019775390625,0.22528076171875
1759678498498,866279345,13655,14,-0.965087890625,-0.14019775390625,0.22918701171875
1759678498498,866279345,13655,15,-0.96337890625,-0.14141845703125,0.22821044921875
1759678498498,866279345,13655,16,-0.96826171875,-0.14312744140625,0.22747802734375
1759678498498,866279345,13655,17,-0.96533203125,-0.14337158203125,0.22406005859375
1759678498498,866279345,13655,18,-0.9658203125,-0.13653564453125,0.22796630859375
1759678498498,866279345,13655,19,-0.96240234375,-0.14849853515625,0.22015380859375
1759678498498,866279345,13655,20,-0.965087890625,-0.14776611328125,0.21722412109375
1759678498498,866279345,13655,21,-0.974609375,-0.14483642578125,0.21575927734375
1759678498498,866279345,13655,22,-0.9736328125,-0.14508056640625,0.21380615234375
1759678498498,866279345,13655,23,-0.96875,-0.14190673828125,0.21331787109375
1759678498498,866279345,13655,24,-0.968505859375,-0.13970947265625,0.21868896484375
1759678498498,866279345,13655,25,-0.9716796875,-0.14141845703125,0.21844482421875
1759678498498,866279345,13655,26,-0.9677734375,-0.14215087890625,0.21453857421875
1759678498498,866279345,13655,27,-0.966796875,-0.14288330078125,0.21038818359375
1759678498498,866279345,13655,28,-0.96826171875,-0.14166259765625,0.21185302734375
1759678498498,866279345,13655,29,-0.972412109375,-0.14044189453125,0.21356201171875
1759678498498,866279345,13655,30,-0.962890625,-0.14141845703125,0.21551513671875
1759678498498,866279345,13655,31,-0.967041015625,-0.15216064453125,0.21429443359375
1759678501189,866281883,13656,0,-0.9765625,-0.14605712890625,0.23895263671875
1759678501189,866281883,13656,1,-0.962646484375,-0.13873291015625,0.23260498046875
1759678501189,866281883,13656,2,-0.95703125,-0.12896728515625,0.23040771484375
1759678501189,866281883,13656,3,-0.957763671875,-0.12335205078125,0.23040771484375
1759678501189,866281883,13656,4,-0.9697265625,-0.14068603515625,0.22381591796875
1759678501189,866281883,13656,5,-0.974365234375,-0.13751220703125,0.21331787109375
1759678501189,866281883,13656,6,-0.970703125,-0.13409423828125,0.22601318359375
1759678501189,866281883,13656,7,-0.9599609375,-0.13775634765625,0.22772216796875
1759678501189,866281883,13656,8,-0.9609375,-0.13751220703125,0.22283935546875
1759678501189,866281883,13656,9,-0.971923828125,-0.13726806640625,0.22235107421875
1759678501189,866281883,13656,10,-0.970458984375,-0.13507080078125,0.22796630859375
1759678501189,866281883,13656,11,-0.961181640625,-0.13800048828125,0.21795654296875
1759678501189,866281883,13656,12,-0.966552734375,-0.13848876953125,0.22650146484375
1759678501189,866281883,13656,13,-0.9716796875,-0.12921142578125,0.22698974609375
1759678501189,866281883,13656,14,-0.964599609375,-0.13702392578125,0.22601318359375
1759678501189,866281883,13656,15,-0.9638671875,-0.13458251953125,0.22186279296875
1759678501189,866281883,13656,16,-0.96533203125,-0.14117431640625,0.23040771484375
1759678501189,866281883,13656,17,-0.971435546875,-0.13824462890625,0.22235107421875
1759678501189,866281883,13656,18,-0.965087890625,-0.13189697265625,0.22454833984375
1759678501189,866281883,13656,19,-0.966064453125,-0.13873291015625,0.22479248046875
1759678501189,866281883,13656,20,-0.9677734375,-0.14093017578125,0.22039794921875
1759678501189,866281883,13656,21,-0.96923828125,-0.13751220703125,0.22283935546875
1759678501189,866281883,13656,22,-0.96533203125,-0.13848876953125,0.21990966796875
1759678501189,866281883,13656,23,-0.965087890625,-0.13507080078125,0.22625732421875
1759678501189,866281883,13656,24,-0.968994140625,-0.13922119140625,0.21722412109375
1759678501189,866281883,13656,25,-0.962890625,-0.13702392578125,0.23089599609375
1759678501189,866281883,13656,26,-0.96826171875,-0.14385986328125,0.21868896484375
1759678501189,866281883,13656,27,-0.965087890625,-0.13897705078125,0.22479248046875
1759678501189,866281883,13656,28,-0.967041015625,-0.13531494140625,0.22064208984375
1759678501189,866281883,13656,29,-0.96484375,-0.13482666015625,0.22381591796875
1759678501189,866281883,13656,30,-0.966064453125,-0.13897705078125,0.22406005859375
1759678501189,866281883,13656,31,-0.96923828125,-0.14361572265625,0.22406005859375
1759678503720,866284420,13657,0,-0.9677734375,-0.14068603515625,0.21478271484375
1759678503720,866284420,13657,1,-0.968505859375,-0.13800048828125,0.21990966796875
1759678503720,866284420,13657,2,-0.96533203125,-0.14019775390625,0.21697998046875
1759678503720,866284420,13657,3,-0.968017578125,-0.14459228515625,0.21795654296875
1759678503720,866284420,13657,4,-0.973388671875,-0.14215087890625,0.21673583984375
1759678503720,866284420,13657,5,-0.968017578125,-0.14508056640625,0.21746826171875
1759678503720,866284420,13657,6,-0.96484375,-0.13995361328125,0.21600341796875
1759678503720,866284420,13657,7,-0.971435546875,-0.14776611328125,0.21746826171875
1759678503720,866284420,13657,8,-0.97314453125,-0.14703369140625,0.21453857421875
1759678503720,866284420,13657,9,-0.9697265625,-0.14508056640625,0.21624755859375
1759678503720,866284420,13657,10,-0.96728515625,-0.14019775390625,0.21527099609375
1759678503720,866284420,13657,11,-0.959228515625,-0.14410400390625,0.21258544921875
1759678503720,866284420,13657,12,-0.96923828125,-0.15411376953125,0.22747802734375
1759678503720,866284420,13657,13,-0.975830078125,-0.13775634765625,0.20843505859375
1759678503720,866284420,13657,14,-0.96337890625,-0.14898681640625,0.20648193359375
1759678503720,866284420,13657,15,-0.9794921875,-0.15972900390625,0.21673583984375
1759678503720,866284420,13657,16,-0.96923828125,-0.13751220703125,0.23529052734375
1759678503720,866284420,13657,17,-0.951904296875,-0.13629150390625,0.25164794921875
1759678503720,866284420,13657,18,-0.953369140625,-0.12969970703125,0.24334716796875
1759678503720,866284420,13657,19,-0.94921875,-0.13018798828125,0.23944091796875
1759678503720,866284420,13657,20,-0.970947265625,-0.13897705078125,0.20941162109375
1759678503720,866284420,13657,21,-0.978759765625,-0.13458251953125,0.22698974609375
1759678503720,866284420,13657,22,-0.963134765625,-0.13604736328125,0.21673583984375
1759678503720,866284420,13657,23,-0.967041015625,-0.13775634765625,0.21942138671875
1759678503720,866284420,13657,24,-0.96923828125,-0.13677978515625,0.22674560546875
1759678503720,866284420,13657,25,-0.9697265625,-0.13946533203125,0.22772216796875
1759678503720,866284420,13657,26,-0.9609375,-0.13604736328125,0.22869873046875
1759678503720,866284420,13657,27,-0.960205078125,-0.13946533203125,0.22576904296875
1759678503720,866284420,13657,28,-0.973388671875,-0.14068603515625,0.22625732421875
1759678503720,866284420,13657,29,-0.970703125,-0.13775634765625,0.22454833984375
1759678503720,866284420,13657,30,-0.962158203125,-0.14434814453125,0.22454833984375
1759678503720,866284420,13657,31,-0.963623046875,-0.13995361328125,0.22821044921875
1759678506236,866286957,13658,0,-0.96875,-0.13555908203125,0.22943115234375
1759678506236,866286957,13658,1,-0.965576171875,-0.13922119140625,0.22723388671875
1759678506236,866286957,13658,2,-0.963134765625,-0.13970947265625,0.22576904296875
1759678506236,866286957,13658,3,-0.96484375,-0.13970947265625,0.21453857421875
1759678506236,866286957,13658,4,-0.968994140625,-0.13922119140625,0.22308349609375
1759678506236,866286957,13658,5,-0.964111328125,-0.14093017578125,0.22479248046875
1759678506236,866286957,13658,6,-0.963623046875,-0.14068603515625,0.22650146484375
1759678506236,866286957,13658,7,-0.968994140625,-0.14117431640625,0.22625732421875
1759678506236,866286957,13658,8,-0.9658203125,-0.14190673828125,0.22308349609375
1759678506236,866286957,13658,9,-0.964599609375,-0.14190673828125,0.22381591796875
1759678506236,866286957,13658,10,-0.9677734375,-0.14044189453125,0.22674560546875
1759678506236,866286957,13658,11,-0.965087890625,-0.14239501953125,0.22210693359375
1759678506236,866286957,13658,12,-0.96875,-0.14093017578125,0.22064208984375
1759678506236,866286957,13658,13,-0.96337890625,-0.14312744140625,0.22625732421875
1759678506236,866286957,13658,14,-0.968994140625,-0.14337158203125,0.22479248046875
1759678506236,866286957,13658,15,-0.965087890625,-0.14141845703125,0.21649169921875
1759678506236,866286957,13658,16,-0.96923828125,-0.14141845703125,0.21746826171875
1759678506236,866286957,13658,17,-0.967041015625,-0.14581298828125,0.21697998046875
1759678506236,866286957,13658,18,-0.969482421875,-0.13751220703125,0.21624755859375
1759678506236,866286957,13658,19,-0.96826171875,-0.14483642578125,0.22308349609375
1759678506236,866286957,13658,20,-0.96826171875,-0.14483642578125,0.21917724609375
1759678506236,866286957,13658,21,-0.96875,-0.14483642578125,0.22430419921875
1759678506236,866286957,13658,22,-0.964599609375,-0.14141845703125,0.21746826171875
1759678506236,866286957,13658,23,-0.966552734375,-0.14678955078125,0.21795654296875
1759678506236,866286957,13658,24,-0.968017578125,-0.14288330078125,0.22406005859375
1759678506236,866286957,13658,25,-0.96630859375,-0.14434814453125,0.21697998046875
1759678506236,866286957,13658,26,-0.9658203125,-0.14385986328125,0.22283935546875
1759678506236,866286957,13658,27,-0.968017578125,-0.14508056640625,0.21990966796875
1759678506236,866286957,13658,28,-0.96630859375,-0.14215087890625,0.22454833984375
1759678506236,866286957,13658,29,-0.96337890625,-0.15045166015625,0.22161865234375
1759678506236,866286957,13658,30,-0.969970703125,-0.15533447265625,0.22283935546875
1759678506236,866286957,13658,31,-0.97314453125,-0.14459228515625,0.24066162109375
1759678508756,866289494,13659,0,-0.96533203125,-0.13336181640625,0.24774169921875
1759678508756,866289494,13659,1,-0.948486328125,-0.13214111328125,0.24407958984375
1759678508756,866289494,13659,2,-0.9521484375,-0.12554931640625,0.23846435546875
1759678508756,866289494,13659,3,-0.967529296875,-0.14117431640625,0.23602294921875
1759678508756,866289494,13659,4,-0.9658203125,-0.13482666015625,0.21673583984375
1759678508756,866289494,13659,5,-0.96728515625,-0.13482666015625,0.23699951171875
1759678508756,866289494,13659,6,-0.962890625,-0.13433837890625,0.23309326171875
1759678508756,866289494,13659,7,-0.963134765625,-0.13531494140625,0.22357177734375
1759678508756,866289494,13659,8,-0.969970703125,-0.13531494140625,0.23504638671875
1759678508756,866289494,13659,9,-0.965576171875,-0.13653564453125,0.23114013671875
1759678508756,866289494,13659,10,-0.960693359375,-0.13726806640625,0.23406982421875
1759678508756,866289494,13659,11,-0.965576171875,-0.13629150390625,0.22967529296875
1759678508756,866289494,13659,12,-0.966552734375,-0.13946533203125,0.23846435546875
1759678508756,866289494,13659,13,-0.96435546875,-0.13775634765625,0.23211669921875
1759678508756,866289494,13659,14,-0.9658203125,-0.13702392578125,0.22552490234375
1759678508756,866289494,13659,15,-0.964599609375,-0.13995361328125,0.23211669921875
1759678508756,866289494,13659,16,-0.96630859375,-0.13653564453125,0.23236083984375
1759678508756,866289494,13659,17,-0.96240234375,-0.13800048828125,0.22772216796875
1759678508756,866289494,13659,18,-0.9638671875,-0.14166259765625,0.23162841796875
1759678508756,866289494,13659,19,-0.966064453125,-0.13848876953125,0.22845458984375
1759678508756,866289494,13659,20,-0.964599609375,-0.13653564453125,0.22967529296875
1759678508756,866289494,13659,21,-0.962646484375,-0.13970947265625,0.23333740234375
1759678508756,866289494,13659,22,-0.96630859375,-0.13970947265625,0.23529052734375
1759678508756,866289494,13659,23,-0.962646484375,-0.14117431640625,0.23480224609375
1759678508756,866289494,13659,24,-0.961669921875,-0.13946533203125,0.22772216796875
1759678508756,866289494,13659,25,-0.9599609375,-0.14385986328125,0.22845458984375
1759678508756,866289494,13659,26,-0.96728515625,-0.14166259765625,0.22796630859375
1759678508756,866289494,13659,27,-0.96435546875,-0.13946533203125,0.23089599609375
1759678508756,866289494,13659,28,-0.96240234375,-0.13824462890625,0.22747802734375
1759678508756,866289494,13659,29,-0.964599609375,-0.14044189453125,0.22869873046875
1759678508756,866289494,13659,30,-0.9658203125,-0.14068603515625,0.22454833984375
1759678508756,866289494,13659,31,-0.965576171875,-0.13970947265625,0.22918701171875
1759678511277,866292031,13660,0,-0.96484375,-0.14068603515625,0.21990966796875
1759678511277,866292031,13660,1,-0.9658203125,-0.14019775390625,0.22503662109375
1759678511277,866292031,13660,2,-0.965576171875,-0.13995361328125,0.22967529296875
1759678511277,866292031,13660,3,-0.9619140625,-0.14019775390625,0.22406005859375
1759678511277,866292031,13660,4,-0.96533203125,-0.14263916015625,0.22943115234375
1759678511277,866292031,13660,5,-0.96484375,-0.14166259765625,0.22869873046875
1759678511277,866292031,13660,6,-0.964599609375,-0.14263916015625,0.22601318359375
1759678511277,866292031,13660,7,-0.968017578125,-0.14459228515625,0.22088623046875
1759678511277,866292031,13660,8,-0.97265625,-0.14654541015625,0.22918701171875
1759678511277,866292031,13660,9,-0.964599609375,-0.13775634765625,0.23529052734375
1759678511277,866292031,13660,10,-0.9619140625,-0.13555908203125,0.24212646484375
1759678511277,866292031,13660,11,-0.9541015625,-0.13043212890625,0.23846435546875
1759678511277,866292031,13660,12,-0.958251953125,-0.12188720703125,0.22821044921875
1759678511277,866292031,13660,13,-0.97216796875,-0.13848876953125,0.22479248046875
1759678511277,866292031,13660,14,-0.97265625,-0.13165283203125,0.21282958984375
1759678511277,866292031,13660,15,-0.9716796875,-0.13092041015625,0.22772216796875
1759678511277,866292031,13660,16,-0.96044921875,-0.13653564453125,0.22161865234375
1759678511277,866292031,13660,17,-0.964599609375,-0.13897705078125,0.22503662109375
1759678511277,866292031,13660,18,-0.97216796875,-0.13653564453125,0.22528076171875
1759678511277,866292031,13660,19,-0.96875,-0.13629150390625,0.22210693359375
1759678511277,866292031,13660,20,-0.961181640625,-0.13507080078125,0.22381591796875
1759678511277,866292031,13660,21,-0.96826171875,-0.13531494140625,0.22088623046875
1759678511277,866292031,13660,22,-0.9697265625,-0.14068603515625,0.22332763671875
1759678511277,866292031,13660,23,-0.96533203125,-0.13824462890625,0.23162841796875
1759678511277,866292031,13660,24,-0.963623046875,-0.13922119140625,0.22479248046875
1759678511277,866292031,13660,25,-0.96533203125,-0.13922119140625,0.22528076171875
1759678511277,866292031,13660,26,-0.96875,-0.13751220703125,0.22625732421875
1759678511277,866292031,13660,27,-0.965576171875,-0.13873291015625,0.22210693359375
1759678511277,866292031,13660,28,-0.960693359375,-0.13970947265625,0.22747802734375
1759678511277,866292031,13660,29,-0.963134765625,-0.13751220703125,0.22576904296875
1759678511277,866292031,13660,30,-0.9697265625,-0.13775634765625,0.22698974609375
1759678511277,866292031,13660,31,-0.968505859375,-0.14019775390625,0.22601318359375
1759678513789,866294568,13661,0,-0.96337890625,-0.14215087890625,0.21966552734375
1759678513789,866294568,13661,1,-0.9697265625,-0.13922119140625,0.22967529296875
1759678513789,866294568,13661,2,-0.965087890625,-0.13775634765625,0.22210693359375
1759678513789,866294568,13661,3,-0.965087890625,-0.13995361328125,0.22943115234375
1759678513789,866294568,13661,4,-0.964599609375,-0.14190673828125,0.22772216796875
1759678513789,866294568,13661,5,-0.965576171875,-0.14166259765625,0.23016357421875
1759678513789,866294568,13661,6,-0.96875,-0.14068603515625,0.22088623046875
1759678513789,866294568,13661,7,-0.96533203125,-0.14044189453125,0.22381591796875
1759678513789,866294568,13661,8,-0.963134765625,-0.14288330078125,0.22943115234375
1759678513789,866294568,13661,9,-0.966552734375,-0.14263916015625,0.22747802734375
1759678513789,866294568,13661,10,-0.967041015625,-0.14190673828125,0.22503662109375
1759678513789,866294568,13661,11,-0.965576171875,-0.13970947265625,0.22381591796875
1759678513789,866294568,13661,12,-0.962158203125,-0.14263916015625,0.22332763671875
1759678513789,866294568,13661,13,-0.967529296875,-0.14288330078125,0.22381591796875
1759678513789,866294568,13661,14,-0.96728515625,-0.13995361328125,0.22381591796875
1759678513789,866294568,13661,15,-0.962890625,-0.14044189453125,0.22503662109375
1759678513789,866294568,13661,16,-0.963623046875,-0.14141845703125,0.22430419921875
1759678513789,866294568,13661,17,-0.96484375,-0.14459228515625,0.22601318359375
1759678513789,866294568,13661,18,-0.9609375,-0.13702392578125,0.22454833984375
1759678513789,866294568,13661,19,-0.96923828125,-0.14801025390625,0.23065185546875
1759678513789,866294568,13661,20,-0.97021484375,-0.14263916015625,0.21697998046875
1759678513789,866294568,13661,21,-0.972900390625,-0.14776611328125,0.21527099609375
1759678513789,866294568,13661,22,-0.9716796875,-0.14288330078125,0.21307373046875
1759678513789,866294568,13661,23,-0.9697265625,-0.13897705078125,0.21746826171875
1759678513789,866294568,13661,24,-0.9638671875,-0.14532470703125,0.21820068359375
1759678513789,866294568,13661,25,-0.965087890625,-0.14434814453125,0.22113037109375
1759678513789,866294568,13661,26,-0.970947265625,-0.14239501953125,0.22161865234375
1759678513789,866294568,13661,27,-0.966064453125,-0.14166259765625,0.22161865234375
1759678513789,866294568,13661,28,-0.96923828125,-0.13702392578125,0.21893310546875
1759678513789,866294568,13661,29,-0.9677734375,-0.14068603515625,0.22601318359375
1759678513789,866294568,13661,30,-0.97119140625,-0.13385009765625,0.23602294921875
1759678513789,866294568,13661,31,-0.961669921875,-0.13531494140625,0.22845458984375
1759678516314,866297105,13662,0,-0.958251953125,-0.12969970703125,0.23089599609375
1759678516314,866297105,13662,1,-0.967041015625,-0.13702392578125,0.23333740234375
1759678516314,866297105,13662,2,-0.96875,-0.13360595703125,0.23065185546875
1759678516314,866297105,13662,3,-0.966064453125,-0.12701416015625,0.22381591796875
1759678516314,866297105,13662,4,-0.96142578125,-0.12921142578125,0.22259521484375
1759678516314,866297105,13662,5,-0.96728515625,-0.13433837890625,0.22552490234375
1759678516314,866297105,13662,6,-0.97216796875,-0.13189697265625,0.22332763671875
1759678516314,866297105,13662,7,-0.96435546875,-0.13311767578125,0.22039794921875
1759678516314,866297105,13662,8,-0.958984375,-0.14508056640625,0.22528076171875
1759678516314,866297105,13662,9,-0.981689453125,-0.13482666015625,0.24432373046875
1759678516314,866297105,13662,10,-0.96533203125,-0.12872314453125,0.24847412109375
1759678516314,866297105,13662,11,-0.9560546875,-0.12017822265625,0.25115966796875
1759678516314,866297105,13662,12,-0.947998046875,-0.11480712890625,0.23577880859375
1759678516314,866297105,13662,13,-0.964111328125,-0.13922119140625,0.23089599609375
1759678516314,866297105,13662,14,-0.976318359375,-0.13018798828125,0.23016357421875
1759678516314,866297105,13662,15,-0.969482421875,-0.13433837890625,0.23675537109375
1759678516314,866297105,13662,16,-0.956298828125,-0.13287353515625,0.23138427734375
1759678516314,866297105,13662,17,-0.95849609375,-0.13043212890625,0.23846435546875
1759678516314,866297105,13662,18,-0.968017578125,-0.13238525390625,0.23748779296875
1759678516314,866297105,13662,19,-0.965087890625,-0.13433837890625,0.23406982421875
1759678516314,866297105,13662,20,-0.960205078125,-0.13629150390625,0.24237060546875
1759678516314,866297105,13662,21,-0.96337890625,-0.12872314453125,0.23065185546875
1759678516314,866297105,13662,22,-0.9677734375,-0.13726806640625,0.24212646484375
1759678516314,866297105,13662,23,-0.962646484375,-0.13629150390625,0.23138427734375
1759678516314,866297105,13662,24,-0.96044921875,-0.13726806640625,0.23870849609375
1759678516314,866297105,13662,25,-0.962890625,-0.13531494140625,0.23431396484375
1759678516314,866297105,13662,26,-0.964111328125,-0.13507080078125,0.22991943359375
1759678516314,866297105,13662,27,-0.9638671875,-0.12799072265625,0.22967529296875
1759678516314,866297105,13662,28,-0.965087890625,-0.13946533203125,0.23382568359375
1759678516314,866297105,13662,29,-0.96728515625,-0.13385009765625,0.23187255859375
1759678516314,866297105,13662,30,-0.963623046875,-0.13677978515625,0.23626708984375
1759678516314,866297105,13662,31,-0.962890625,-0.13409423828125,0.23553466796875
1759678518834,866299642,13663,0,-0.962646484375,-0.13995361328125,0.23333740234375
1759678518834,866299642,13663,1,-0.967041015625,-0.13800048828125,0.23089599609375
1759678518834,866299642,13663,2,-0.96533203125,-0.13360595703125,0.23089599609375
1759678518834,866299642,13663,3,-0.96435546875,-0.13458251953125,0.22747802734375
1759678518834,866299642,13663,4,-0.967041015625,-0.13238525390625,0.22772216796875
1759678518834,866299642,13663,5,-0.96484375,-0.13677978515625,0.22113037109375
1759678518834,866299642,13663,6,-0.98291015625,-0.13800048828125,0.24554443359375
1759678518834,866299642,13663,7,-0.9541015625,-0.12652587890625,0.25848388671875
1759678518834,866299642,13663,8,-0.952392578125,-0.11822509765625,0.23260498046875
1759678518834,866299642,13663,9,-0.955078125,-0.11334228515625,0.22845458984375
1759678518834,866299642,13663,10,-0.970703125,-0.13458251953125,0.22259521484375
1759678518834,866299642,13663,11,-0.97509765625,-0.12359619140625,0.22186279296875
1759678518834,866299642,13663,12,-0.96923828125,-0.13043212890625,0.23309326171875
1759678518834,866299642,13663,13,-0.959228515625,-0.12872314453125,0.23480224609375
1759678518834,866299642,13663,14,-0.95849609375,-0.12677001953125,0.23284912109375
1759678518834,866299642,13663,15,-0.9677734375,-0.12823486328125,0.23504638671875
1759678518834,866299642,13663,16,-0.967041015625,-0.12847900390625,0.23895263671875
1759678518834,866299642,13663,17,-0.96142578125,-0.13043212890625,0.23162841796875
1759678518834,866299642,13663,18,-0.963134765625,-0.12921142578125,0.23577880859375
1759678518834,866299642,13663,19,-0.965576171875,-0.13262939453125,0.23699951171875
1759678518834,866299642,13663,20,-0.963623046875,-0.12457275390625,0.22845458984375
1759678518834,866299642,13663,21,-0.95947265625,-0.14141845703125,0.24822998046875
1759678518834,866299642,13663,22,-0.96484375,-0.12872314453125,0.23309326171875
1759678518834,866299642,13663,23,-0.9658203125,-0.13458251953125,0.23870849609375
1759678518834,866299642,13663,24,-0.960693359375,-0.13262939453125,0.23211669921875
1759678518834,866299642,13663,25,-0.958251953125,-0.13800048828125,0.24212646484375
1759678518834,866299642,13663,26,-0.966064453125,-0.13726806640625,0.23211669921875
1759678518834,866299642,13663,27,-0.9658203125,-0.13311767578125,0.23040771484375
1759678518834,866299642,13663,28,-0.9619140625,-0.13555908203125,0.23455810546875
1759678518834,866299642,13663,29,-0.96142578125,-0.13848876953125,0.23651123046875
1759678518834,866299642,13663,30,-0.969482421875,-0.13531494140625,0.23162841796875
1759678518834,866299642,13663,31,-0.966064453125,-0.13531494140625,0.23944091796875
1759678521531,866302179,13664,0,-0.9580078125,-0.13189697265625,0.23162841796875
1759678521531,866302179,13664,1,-0.964599609375,-0.13848876953125,0.23236083984375
1759678521531,866302179,13664,2,-0.964111328125,-0.13580322265625,0.23089599609375
1759678521531,866302179,13664,3,-0.962646484375,-0.13580322265625,0.23797607421875
1759678521531,866302179,13664,4,-0.962158203125,-0.13604736328125,0.23162841796875
1759678521531,866302179,13664,5,-0.96435546875,-0.13580322265625,0.23406982421875
1759678521531,866302179,13664,6,-0.968994140625,-0.14385986328125,0.23699951171875
1759678521531,866302179,13664,7,-0.963623046875,-0.13482666015625,0.25042724609375
1759678521531,866302179,13664,8,-0.953369140625,-0.12823486328125,0.24066162109375
1759678521531,866302179,13664,9,-0.956787109375,-0.13165283203125,0.23992919921875
1759678521531,866302179,13664,10,-0.969970703125,-0.13458251953125,0.22869873046875
1759678521531,866302179,13664,11,-0.970947265625,-0.13311767578125,0.22967529296875
1759678521531,866302179,13664,12,-0.968505859375,-0.13604736328125,0.22406005859375
1759678521531,866302179,13664,13,-0.958984375,-0.13629150390625,0.22064208984375
1759678521531,866302179,13664,14,-0.966796875,-0.13531494140625,0.23211669921875
1759678521531,866302179,13664,15,-0.96484375,-0.13458251953125,0.23382568359375
1759678521531,866302179,13664,16,-0.963134765625,-0.13726806640625,0.23797607421875
1759678521531,866302179,13664,17,-0.962646484375,-0.13604736328125,0.23284912109375
1759678521531,866302179,13664,18,-0.96826171875,-0.13653564453125,0.23651123046875
1759678521531,866302179,13664,19,-0.9658203125,-0.13262939453125,0.23162841796875
1759678521531,866302179,13664,20,-0.9619140625,-0.13531494140625,0.22772216796875
1759678521531,866302179,13664,21,-0.962158203125,-0.13360595703125,0.22967529296875
1759678521531,866302179,13664,22,-0.962158203125,-0.13726806640625,0.22991943359375
1759678521531,866302179,13664,23,-0.964599609375,-0.13311767578125,0.22869873046875
1759678521531,866302179,13664,24,-0.965087890625,-0.13409423828125,0.23187255859375
1759678521531,866302179,13664,25,-0.959716796875,-0.13458251953125,0.23065185546875
1759678521531,866302179,13664,26,-0.968994140625,-0.13702392578125,0.22698974609375
1759678521531,866302179,13664,27,-0.9638671875,-0.14019775390625,0.22991943359375
1759678521531,866302179,13664,28,-0.968017578125,-0.13726806640625,0.23406982421875
1759678521531,866302179,13664,29,-0.964111328125,-0.13531494140625,0.23211669921875
1759678521531,866302179,13664,30,-0.96484375,-0.13751220703125,0.22479248046875
1759678521531,866302179,13664,31,-0.96435546875,-0.14508056640625,0.23626708984375
1759678524056,866304716,13665,0,-0.969482421875,-0.13385009765625,0.24774169921875
1759678524056,866304716,13665,1,-0.9619140625,-0.12164306640625,0.22894287109375
1759678524056,866304716,13665,2,-0.9541015625,-0.13287353515625,0.24212646484375
1759678524056,866304716,13665,3,-0.96484375,-0.12799072265625,0.23260498046875
1759678524056,866304716,13665,4,-0.96923828125,-0.13336181640625,0.22723388671875
1759678524056,866304716,13665,5,-0.9697265625,-0.13238525390625,0.23065185546875
1759678524056,866304716,13665,6,-0.95849609375,-0.13385009765625,0.23284912109375
1759678524056,866304716,13665,7,-0.958984375,-0.13311767578125,0.22772216796875
1759678524056,866304716,13665,8,-0.969482421875,-0.13800048828125,0.23919677734375
1759678524056,866304716,13665,9,-0.963623046875,-0.13092041015625,0.23114013671875
1759678524056,866304716,13665,10,-0.958251953125,-0.13677978515625,0.23553466796875
1759678524056,866304716,13665,11,-0.9638671875,-0.13287353515625,0.22625732421875
1759678524056,866304716,13665,12,-0.9658203125,-0.13604736328125,0.23309326171875
1759678524056,866304716,13665,13,-0.96484375,-0.13629150390625,0.23529052734375
1759678524056,866304716,13665,14,-0.9619140625,-0.13531494140625,0.23236083984375
1759678524056,866304716,13665,15,-0.96630859375,-0.13629150390625,0.23236083984375
1759678524056,866304716,13665,16,-0.964111328125,-0.13555908203125,0.23333740234375
1759678524056,866304716,13665,17,-0.964599609375,-0.13775634765625,0.22918701171875
1759678524056,866304716,13665,18,-0.967041015625,-0.13531494140625,0.23162841796875
1759678524056,866304716,13665,19,-0.9658203125,-0.13507080078125,0.23504638671875
1759678524056,866304716,13665,20,-0.96435546875,-0.13824462890625,0.24188232421875
1759678524056,866304716,13665,21,-0.956787109375,-0.13580322265625,0.24456787109375
