receivedPhoneTimestamp,respeckTimestamp,packetSeqNum,sampleSeqNum,accelX,accelY,accelZ
1760119246905,1242951925,19143,26,0.274169921875,-0.91339111328125,-0.29205322265625
1760119246905,1242951925,19143,27,0.270263671875,-0.91680908203125,-0.30133056640625
1760119246905,1242951925,19143,28,0.288330078125,-0.90899658203125,-0.32403564453125
1760119246905,1242951925,19143,29,0.291015625,-0.91021728515625,-0.31207275390625
1760119246905,1242951925,19143,30,0.277099609375,-0.91070556640625,-0.30548095703125
1760119246905,1242951925,19143,31,0.26904296875,-0.91192626953125,-0.31353759765625
1760119249632,1242954444,19144,0,0.261474609375,-0.91656494140625,-0.30255126953125
1760119249632,1242954444,19144,1,0.287353515625,-0.91241455078125,-0.30767822265625
1760119249632,1242954444,19144,2,0.282958984375,-0.91387939453125,-0.29034423828125
1760119249632,1242954444,19144,3,0.27880859375,-0.91583251953125,-0.27740478515625
1760119249632,1242954444,19144,4,0.268310546875,-0.91583251953125,-0.29498291015625
1760119249632,1242954444,19144,5,0.265625,-0.92071533203125,-0.29327392578125
1760119249632,1242954444,19144,6,0.2861328125,-0.91436767578125,-0.29278564453125
1760119249632,1242954444,19144,7,0.287353515625,-0.91290283203125,-0.28277587890625
1760119249632,1242954444,19144,8,0.27490234375,-0.91632080078125,-0.28619384765625
1760119249632,1242954444,19144,9,0.275146484375,-0.91656494140625,-0.29107666015625
1760119249632,1242954444,19144,10,0.281005859375,-0.91705322265625,-0.29302978515625
1760119249632,1242954444,19144,11,0.279541015625,-0.92022705078125,-0.27520751953125
1760119249632,1242954444,19144,12,0.267578125,-0.91973876953125,-0.27569580078125
1760119249632,1242954444,19144,13,0.270751953125,-0.91802978515625,-0.28692626953125
1760119249632,1242954444,19144,14,0.265869140625,-0.92022705078125,-0.28253173828125
1760119249632,1242954444,19144,15,0.288818359375,-0.91705322265625,-0.27862548828125
1760119249632,1242954444,19144,16,0.2890625,-0.91387939453125,-0.27764892578125
1760119249632,1242954444,19144,17,0.268798828125,-0.91558837890625,-0.28692626953125
1760119249632,1242954444,19144,18,0.2666015625,-0.91778564453125,-0.28692626953125
1760119249632,1242954444,19144,19,0.283447265625,-0.91290283203125,-0.28839111328125
1760119249632,1242954444,19144,20,0.280029296875,-0.92071533203125,-0.26593017578125
1760119249632,1242954444,19144,21,0.27978515625,-0.91876220703125,-0.27154541015625
1760119249632,1242954444,19144,22,0.272216796875,-0.91729736328125,-0.28326416015625
1760119249632,1242954444,19144,23,0.2685546875,-0.91973876953125,-0.27593994140625
1760119249632,1242954444,19144,24,0.293701171875,-0.92144775390625,-0.27130126953125
1760119249632,1242954444,19144,25,0.281494140625,-0.91656494140625,-0.26788330078125
1760119249632,1242954444,19144,26,0.24365234375,-0.91876220703125,-0.27423095703125
1760119249632,1242954444,19144,27,0.26953125,-0.92266845703125,-0.26983642578125
1760119249632,1242954444,19144,28,0.300048828125,-0.90435791015625,-0.27471923828125
1760119249632,1242954444,19144,29,0.286865234375,-0.93194580078125,-0.26300048828125
1760119249632,1242954444,19144,30,0.27685546875,-0.91363525390625,-0.27471923828125
1760119249632,1242954444,19144,31,0.265869140625,-0.92779541015625,-0.27740478515625
1760119251776,1242956963,19145,0,0.276123046875,-0.91632080078125,-0.26422119140625
1760119251776,1242956963,19145,1,0.3076171875,-0.91705322265625,-0.25421142578125
1760119251776,1242956963,19145,2,0.2900390625,-0.92095947265625,-0.25640869140625
1760119251776,1242956963,19145,3,0.273681640625,-0.91949462890625,-0.26446533203125
1760119251776,1242956963,19145,4,0.28173828125,-0.92193603515625,-0.26324462890625
1760119251776,1242956963,19145,5,0.299072265625,-0.92242431640625,-0.26080322265625
1760119251776,1242956963,19145,6,0.2841796875,-0.92291259765625,-0.24346923828125
1760119251776,1242956963,19145,7,0.277099609375,-0.92779541015625,-0.24053955078125
1760119251776,1242956963,19145,8,0.2744140625,-0.92193603515625,-0.24078369140625
1760119251776,1242956963,19145,9,0.274658203125,-0.93341064453125,-0.23345947265625
1760119251776,1242956963,19145,10,0.285400390625,-0.92681884765625,-0.24908447265625
1760119251776,1242956963,19145,11,0.291015625,-0.91754150390625,-0.23736572265625
1760119251776,1242956963,19145,12,0.291748046875,-0.92388916015625,-0.22906494140625
1760119251776,1242956963,19145,13,0.288330078125,-0.92608642578125,-0.24591064453125
1760119251776,1242956963,19145,14,0.279541015625,-0.92315673828125,-0.24053955078125
1760119251776,1242956963,19145,15,0.289306640625,-0.92608642578125,-0.24493408203125
1760119251776,1242956963,19145,16,0.289306640625,-0.91998291015625,-0.24151611328125
1760119251776,1242956963,19145,17,0.281982421875,-0.92584228515625,-0.23760986328125
1760119251776,1242956963,19145,18,0.29248046875,-0.92242431640625,-0.24517822265625
1760119251776,1242956963,19145,19,0.2958984375,-0.92364501953125,-0.24029541015625
1760119251776,1242956963,19145,20,0.3076171875,-0.92144775390625,-0.22589111328125
1760119251776,1242956963,19145,21,0.296142578125,-0.92315673828125,-0.23565673828125
1760119251776,1242956963,19145,22,0.27783203125,-0.92242431640625,-0.24713134765625
1760119251776,1242956963,19145,23,0.27685546875,-0.92901611328125,-0.23394775390625
1760119251776,1242956963,19145,24,0.3017578125,-0.91949462890625,-0.24639892578125
1760119251776,1242956963,19145,25,0.29443359375,-0.92218017578125,-0.23614501953125
1760119251776,1242956963,19145,26,0.27978515625,-0.92510986328125,-0.23541259765625
1760119251776,1242956963,19145,27,0.281005859375,-0.92510986328125,-0.24517822265625
1760119251776,1242956963,19145,28,0.289794921875,-0.92437744140625,-0.25250244140625
1760119251776,1242956963,19145,29,0.30859375,-0.91656494140625,-0.24737548828125
1760119251776,1242956963,19145,30,0.296630859375,-0.91558837890625,-0.25054931640625
1760119251776,1242956963,19145,31,0.283203125,-0.91632080078125,-0.26739501953125
1760119254505,1242959482,19146,0,0.285400390625,-0.91680908203125,-0.27252197265625
1760119254505,1242959482,19146,1,0.30126953125,-0.91778564453125,-0.27569580078125
1760119254505,1242959482,19146,2,0.300537109375,-0.91680908203125,-0.26690673828125
1760119254505,1242959482,19146,3,0.300048828125,-0.90802001953125,-0.27227783203125
1760119254505,1242959482,19146,4,0.26171875,-0.92779541015625,-0.25592041015625
1760119254505,1242959482,19146,5,0.281982421875,-0.91461181640625,-0.26934814453125
1760119254505,1242959482,19146,6,0.31640625,-0.91119384765625,-0.27935791015625
1760119254505,1242959482,19146,7,0.309326171875,-0.91510009765625,-0.26666259765625
1760119254505,1242959482,19146,8,0.299072265625,-0.90679931640625,-0.27105712890625
1760119254505,1242959482,19146,9,0.269287109375,-0.92218017578125,-0.26763916015625
1760119254505,1242959482,19146,10,0.291259765625,-0.91656494140625,-0.26470947265625
1760119254505,1242959482,19146,11,0.302978515625,-0.91217041015625,-0.25347900390625
1760119254505,1242959482,19146,12,0.273681640625,-0.92877197265625,-0.22344970703125
1760119254505,1242959482,19146,13,0.285888671875,-0.91607666015625,-0.26251220703125
1760119254505,1242959482,19146,14,0.296142578125,-0.91363525390625,-0.28253173828125
1760119254505,1242959482,19146,15,0.291748046875,-0.91925048828125,-0.27081298828125
1760119254505,1242959482,19146,16,0.3095703125,-0.91510009765625,-0.25933837890625
1760119254505,1242959482,19146,17,0.29541015625,-0.91290283203125,-0.26397705078125
1760119254505,1242959482,19146,18,0.28173828125,-0.91851806640625,-0.27203369140625
1760119254505,1242959482,19146,19,0.312744140625,-0.90435791015625,-0.28399658203125
1760119254505,1242959482,19146,20,0.3251953125,-0.91070556640625,-0.27960205078125
1760119254505,1242959482,19146,21,0.29150390625,-0.91265869140625,-0.26080322265625
1760119254505,1242959482,19146,22,0.2919921875,-0.91119384765625,-0.27081298828125
1760119254505,1242959482,19146,23,0.300537109375,-0.91046142578125,-0.28936767578125
1760119254505,1242959482,19146,24,0.319091796875,-0.90582275390625,-0.29766845703125
1760119254505,1242959482,19146,25,0.3212890625,-0.90191650390625,-0.28253173828125
1760119254505,1242959482,19146,26,0.317138671875,-0.90093994140625,-0.28472900390625
1760119254505,1242959482,19146,27,0.301025390625,-0.90777587890625,-0.29449462890625
1760119254505,1242959482,19146,28,0.31640625,-0.90118408203125,-0.29620361328125
1760119254505,1242959482,19146,29,0.318115234375,-0.89923095703125,-0.29986572265625
1760119254505,1242959482,19146,30,0.29296875,-0.91461181640625,-0.28204345703125
1760119254505,1242959482,19146,31,0.301025390625,-0.89825439453125,-0.30718994140625
1760119256853,1242962001,19147,0,0.310546875,-0.90216064453125,-0.31524658203125
1760119256853,1242962001,19147,1,0.318603515625,-0.89947509765625,-0.30523681640625
1760119256853,1242962001,19147,2,0.310302734375,-0.90191650390625,-0.29962158203125
1760119256853,1242962001,19147,3,0.2861328125,-0.90802001953125,-0.30352783203125
1760119256853,1242962001,19147,4,0.290283203125,-0.89605712890625,-0.30523681640625
1760119256853,1242962001,19147,5,0.32275390625,-0.91094970703125,-0.31402587890625
1760119256853,1242962001,19147,6,0.324951171875,-0.88555908203125,-0.31524658203125
1760119256853,1242962001,19147,7,0.297607421875,-0.90460205078125,-0.29791259765625
1760119256853,1242962001,19147,8,0.27685546875,-0.90924072265625,-0.29180908203125
1760119256853,1242962001,19147,9,0.281494140625,-0.91192626953125,-0.30474853515625
1760119256853,1242962001,19147,10,0.312744140625,-0.89508056640625,-0.32330322265625
1760119256853,1242962001,19147,11,0.335693359375,-0.89337158203125,-0.31475830078125
1760119256853,1242962001,19147,12,0.313232421875,-0.89288330078125,-0.31085205078125
1760119256853,1242962001,19147,13,0.288818359375,-0.90460205078125,-0.31060791015625
1760119256853,1242962001,19147,14,0.306396484375,-0.90704345703125,-0.31085205078125
1760119256853,1242962001,19147,15,0.328125,-0.89752197265625,-0.31182861328125
1760119256853,1242962001,19147,16,0.3212890625,-0.90020751953125,-0.29351806640625
1760119256853,1242962001,19147,17,0.268798828125,-0.91583251953125,-0.27056884765625
1760119256853,1242962001,19147,18,0.27783203125,-0.91802978515625,-0.28814697265625
1760119256853,1242962001,19147,19,0.31494140625,-0.89630126953125,-0.30010986328125
1760119256853,1242962001,19147,20,0.322998046875,-0.91729736328125,-0.29522705078125
1760119256853,1242962001,19147,21,0.29736328125,-0.90582275390625,-0.27032470703125
1760119256853,1242962001,19147,22,0.283935546875,-0.89825439453125,-0.28717041015625
1760119256853,1242962001,19147,23,0.288818359375,-0.92242431640625,-0.26739501953125
1760119256853,1242962001,19147,24,0.319580078125,-0.90777587890625,-0.27276611328125
1760119256853,1242962001,19147,25,0.305419921875,-0.91436767578125,-0.25640869140625
1760119256853,1242962001,19147,26,0.290283203125,-0.91802978515625,-0.23663330078125
1760119256853,1242962001,19147,27,0.285888671875,-0.92071533203125,-0.23614501953125
1760119256853,1242962001,19147,28,0.278076171875,-0.93243408203125,-0.23223876953125
1760119256853,1242962001,19147,29,0.28662109375,-0.92388916015625,-0.23858642578125
1760119256853,1242962001,19147,30,0.322998046875,-0.91510009765625,-0.26104736328125
1760119256853,1242962001,19147,31,0.295166015625,-0.92901611328125,-0.23883056640625
1760119259384,1242964520,19148,0,0.278076171875,-0.91461181640625,-0.26446533203125
1760119259384,1242964520,19148,1,0.290771484375,-0.91607666015625,-0.26812744140625
1760119259384,1242964520,19148,2,0.30419921875,-0.91021728515625,-0.27105712890625
1760119259384,1242964520,19148,3,0.2978515625,-0.91192626953125,-0.27545166015625
1760119259384,1242964520,19148,4,0.276611328125,-0.91412353515625,-0.27764892578125
1760119259384,1242964520,19148,5,0.298583984375,-0.89971923828125,-0.31182861328125
1760119259384,1242964520,19148,6,0.291015625,-0.90118408203125,-0.32037353515625
1760119259384,1242964520,19148,7,0.289306640625,-0.88970947265625,-0.31549072265625
1760119259384,1242964520,19148,8,0.2802734375,-0.92779541015625,-0.28424072265625
1760119259384,1242964520,19148,9,0.321533203125,-0.91607666015625,-0.32330322265625
1760119259384,1242964520,19148,10,0.27685546875,-0.88946533203125,-0.28692626953125
1760119259384,1242964520,19148,11,0.29248046875,-0.90386962890625,-0.31524658203125
1760119259384,1242964520,19148,12,0.2822265625,-0.91680908203125,-0.29400634765625
1760119259384,1242964520,19148,13,0.297119140625,-0.91241455078125,-0.29644775390625
1760119259384,1242964520,19148,14,0.279296875,-0.90997314453125,-0.30792236328125
1760119259384,1242964520,19148,15,0.288330078125,-0.89996337890625,-0.31060791015625
1760119259384,1242964520,19148,16,0.290283203125,-0.90948486328125,-0.32061767578125
1760119259384,1242964520,19148,17,0.294189453125,-0.90899658203125,-0.30279541015625
1760119259384,1242964520,19148,18,0.300048828125,-0.90679931640625,-0.29547119140625
1760119259384,1242964520,19148,19,0.296142578125,-0.90753173828125,-0.30963134765625
1760119259384,1242964520,19148,20,0.268798828125,-0.90948486328125,-0.30401611328125
1760119259384,1242964520,19148,21,0.2880859375,-0.91241455078125,-0.30645751953125
1760119259384,1242964520,19148,22,0.303466796875,-0.90167236328125,-0.30206298828125
1760119259384,1242964520,19148,23,0.292236328125,-0.91265869140625,-0.28302001953125
1760119259384,1242964520,19148,24,0.280029296875,-0.91241455078125,-0.29498291015625
1760119259384,1242964520,19148,25,0.274658203125,-0.91192626953125,-0.29888916015625
1760119259384,1242964520,19148,26,0.288330078125,-0.91217041015625,-0.28643798828125
1760119259384,1242964520,19148,27,0.302490234375,-0.91607666015625,-0.27398681640625
1760119259384,1242964520,19148,28,0.305419921875,-0.90509033203125,-0.29132080078125
1760119259384,1242964520,19148,29,0.279052734375,-0.90997314453125,-0.29815673828125
1760119259384,1242964520,19148,30,0.28515625,-0.91827392578125,-0.29058837890625
1760119259384,1242964520,19148,31,0.296875,-0.90777587890625,-0.29498291015625
1760119261920,1242967039,19149,0,0.294189453125,-0.90753173828125,-0.28155517578125
1760119261920,1242967039,19149,1,0.283203125,-0.91363525390625,-0.28521728515625
1760119261920,1242967039,19149,2,0.281982421875,-0.91119384765625,-0.30108642578125
1760119261920,1242967039,19149,3,0.29541015625,-0.90777587890625,-0.29547119140625
1760119261920,1242967039,19149,4,0.308349609375,-0.90875244140625,-0.29205322265625
1760119261920,1242967039,19149,5,0.30078125,-0.90362548828125,-0.30450439453125
1760119261920,1242967039,19149,6,0.281005859375,-0.90460205078125,-0.31378173828125
1760119261920,1242967039,19149,7,0.295654296875,-0.90484619140625,-0.31060791015625
1760119261920,1242967039,19149,8,0.31005859375,-0.90338134765625,-0.31011962890625
1760119261920,1242967039,19149,9,0.29541015625,-0.90484619140625,-0.30279541015625
1760119261920,1242967039,19149,10,0.291259765625,-0.90313720703125,-0.31109619140625
1760119261920,1242967039,19149,11,0.28076171875,-0.90972900390625,-0.30181884765625
1760119261920,1242967039,19149,12,0.274169921875,-0.95220947265625,-0.29888916015625
1760119261920,1242967039,19149,13,0.34912109375,-0.85992431640625,-0.37896728515625
1760119261920,1242967039,19149,14,0.361328125,-0.80230712890625,-0.39361572265625
1760119261920,1242967039,19149,15,0.319091796875,-0.87945556640625,-0.37261962890625
1760119261920,1242967039,19149,16,0.316650390625,-0.86846923828125,-0.38214111328125
1760119261920,1242967039,19149,17,0.32666015625,-0.89556884765625,-0.36676025390625
1760119261920,1242967039,19149,18,0.297607421875,-0.88946533203125,-0.34356689453125
1760119261920,1242967039,19149,19,0.296875,-0.89190673828125,-0.35137939453125
1760119261920,1242967039,19149,20,0.328369140625,-0.85968017578125,-0.38848876953125
1760119261920,1242967039,19149,21,0.321533203125,-0.87506103515625,-0.38385009765625
1760119261920,1242967039,19149,22,0.322998046875,-0.87554931640625,-0.37261962890625
1760119261920,1242967039,19149,23,0.31640625,-0.88067626953125,-0.37994384765625
1760119261920,1242967039,19149,24,0.322265625,-0.86187744140625,-0.36016845703125
1760119261920,1242967039,19149,25,0.3046875,-0.90289306640625,-0.34747314453125
1760119261920,1242967039,19149,26,0.331298828125,-0.86968994140625,-0.37774658203125
1760119261920,1242967039,19149,27,0.338134765625,-0.85870361328125,-0.38165283203125
1760119261920,1242967039,19149,28,0.32275390625,-0.88409423828125,-0.34893798828125
1760119261920,1242967039,19149,29,0.30810546875,-0.87701416015625,-0.34698486328125
1760119261920,1242967039,19149,30,0.30419921875,-0.87872314453125,-0.34259033203125
1760119261920,1242967039,19149,31,0.297607421875,-0.89190673828125,-0.34844970703125
1760119264454,1242969558,19150,0,0.318115234375,-0.88458251953125,-0.37921142578125
1760119264454,1242969558,19150,1,0.337158203125,-0.85821533203125,-0.38287353515625
1760119264454,1242969558,19150,2,0.32421875,-0.88140869140625,-0.35821533203125
1760119264454,1242969558,19150,3,0.308349609375,-0.87554931640625,-0.36553955078125
1760119264454,1242969558,19150,4,0.30224609375,-0.88360595703125,-0.37652587890625
1760119264454,1242969558,19150,5,0.339599609375,-0.85797119140625,-0.39654541015625
1760119264454,1242969558,19150,6,0.337890625,-0.87408447265625,-0.37969970703125
1760119264454,1242969558,19150,7,0.308837890625,-0.87384033203125,-0.36016845703125
1760119264454,1242969558,19150,8,0.296875,-0.87847900390625,-0.35772705078125
1760119264454,1242969558,19150,9,0.310546875,-0.88018798828125,-0.36700439453125
1760119264454,1242969558,19150,10,0.31201171875,-0.88262939453125,-0.37725830078125
1760119264454,1242969558,19150,11,0.326904296875,-0.87652587890625,-0.37310791015625
1760119264454,1242969558,19150,12,0.33203125,-0.87017822265625,-0.36041259765625
1760119264454,1242969558,19150,13,0.31494140625,-0.87872314453125,-0.37261962890625
1760119264454,1242969558,19150,14,0.302490234375,-0.86798095703125,-0.37579345703125
1760119264454,1242969558,19150,15,0.31884765625,-0.87261962890625,-0.38800048828125
1760119264454,1242969558,19150,16,0.33984375,-0.86920166015625,-0.38726806640625
1760119264454,1242969558,19150,17,0.317138671875,-0.87115478515625,-0.38165283203125
1760119264454,1242969558,19150,18,0.303955078125,-0.87335205078125,-0.37799072265625
1760119264454,1242969558,19150,19,0.3095703125,-0.87432861328125,-0.37896728515625
1760119264454,1242969558,19150,20,0.32763671875,-0.86578369140625,-0.38751220703125
1760119264454,1242969558,19150,21,0.33349609375,-0.87017822265625,-0.38531494140625
1760119264454,1242969558,19150,22,0.326171875,-0.85333251953125,-0.38751220703125
1760119264454,1242969558,19150,23,0.3095703125,-0.87823486328125,-0.39141845703125
1760119264454,1242969558,19150,24,0.3251953125,-0.86553955078125,-0.38751220703125
1760119264454,1242969558,19150,25,0.33251953125,-0.86285400390625,-0.39019775390625
1760119264454,1242969558,19150,26,0.326416015625,-0.86846923828125,-0.38140869140625
1760119264454,1242969558,19150,27,0.313720703125,-0.85968017578125,-0.37774658203125
1760119264454,1242969558,19150,28,0.313232421875,-0.88140869140625,-0.37701416015625
1760119264454,1242969558,19150,29,0.320068359375,-0.86334228515625,-0.38751220703125
1760119264454,1242969558,19150,30,0.331298828125,-0.86114501953125,-0.39312744140625
1760119264454,1242969558,19150,31,0.342529296875,-0.86358642578125,-0.38360595703125
1760119266990,1242972077,19151,0,0.330322265625,-0.87261962890625,-0.37603759765625
1760119266990,1242972077,19151,1,0.306884765625,-0.86553955078125,-0.39190673828125
1760119266990,1242972077,19151,2,0.32080078125,-0.87310791015625,-0.37847900390625
1760119266990,1242972077,19151,3,0.34033203125,-0.86138916015625,-0.37628173828125
1760119266990,1242972077,19151,4,0.327880859375,-0.88116455078125,-0.36505126953125
1760119266990,1242972077,19151,5,0.3017578125,-0.86041259765625,-0.37554931640625
1760119266990,1242972077,19151,6,0.31201171875,-0.87921142578125,-0.38165283203125
1760119266990,1242972077,19151,7,0.325927734375,-0.86553955078125,-0.38775634765625
1760119266990,1242972077,19151,8,0.322509765625,-0.87774658203125,-0.38092041015625
1760119266990,1242972077,19151,9,0.337158203125,-0.86138916015625,-0.39605712890625
1760119266990,1242972077,19151,10,0.3349609375,-0.84576416015625,-0.41583251953125
1760119266990,1242972077,19151,11,0.29443359375,-0.86138916015625,-0.41265869140625
1760119266990,1242972077,19151,12,0.311767578125,-0.85626220703125,-0.43243408203125
1760119266990,1242972077,19151,13,0.32861328125,-0.83990478515625,-0.43048095703125
1760119266990,1242972077,19151,14,0.31884765625,-0.87310791015625,-0.41827392578125
1760119266990,1242972077,19151,15,0.309326171875,-0.84527587890625,-0.41363525390625
1760119266990,1242972077,19151,16,0.323486328125,-0.85894775390625,-0.40533447265625
1760119266990,1242972077,19151,17,0.312255859375,-0.86431884765625,-0.42095947265625
1760119266990,1242972077,19151,18,0.3134765625,-0.84771728515625,-0.43853759765625
1760119266990,1242972077,19151,19,0.310302734375,-0.85675048828125,-0.41802978515625
1760119266990,1242972077,19151,20,0.343994140625,-0.85430908203125,-0.40826416015625
1760119266990,1242972077,19151,21,0.330322265625,-0.85675048828125,-0.39947509765625
1760119266990,1242972077,19151,22,0.320556640625,-0.85577392578125,-0.41094970703125
1760119266990,1242972077,19151,23,0.327880859375,-0.85797119140625,-0.41510009765625
1760119266990,1242972077,19151,24,0.327880859375,-0.85382080078125,-0.41339111328125
1760119266990,1242972077,19151,25,0.316650390625,-0.85137939453125,-0.40435791015625
1760119266990,1242972077,19151,26,0.31640625,-0.86724853515625,-0.40167236328125
1760119266990,1242972077,19151,27,0.324462890625,-0.86871337890625,-0.39996337890625
1760119266990,1242972077,19151,28,0.324462890625,-0.85821533203125,-0.40802001953125
1760119266990,1242972077,19151,29,0.320556640625,-0.85894775390625,-0.39385986328125
1760119266990,1242972077,19151,30,0.33349609375,-0.86651611328125,-0.38458251953125
1760119266990,1242972077,19151,31,0.33837890625,-0.85748291015625,-0.40191650390625
1760119269524,1242974596,19152,0,0.3095703125,-0.86407470703125,-0.39825439453125
1760119269524,1242974596,19152,1,0.3232421875,-0.86651611328125,-0.39947509765625
1760119269524,1242974596,19152,2,0.3447265625,-0.85137939453125,-0.40850830078125
1760119269524,1242974596,19152,3,0.322509765625,-0.86407470703125,-0.38507080078125
1760119269524,1242974596,19152,4,0.3076171875,-0.87530517578125,-0.38214111328125
1760119269524,1242974596,19152,5,0.327392578125,-0.85919189453125,-0.39556884765625
1760119269524,1242974596,19152,6,0.333740234375,-0.86041259765625,-0.40313720703125
1760119269524,1242974596,19152,7,0.321533203125,-0.86798095703125,-0.38555908203125
1760119269524,1242974596,19152,8,0.313232421875,-0.86578369140625,-0.39605712890625
1760119269524,1242974596,19152,9,0.305908203125,-0.87554931640625,-0.38360595703125
1760119269524,1242974596,19152,10,0.311767578125,-0.87872314453125,-0.36065673828125
1760119269524,1242974596,19152,11,0.315185546875,-0.89410400390625,-0.33526611328125
1760119269524,1242974596,19152,12,0.296142578125,-0.90093994140625,-0.32965087890625
1760119269524,1242974596,19152,13,0.33251953125,-0.86602783203125,-0.32574462890625
1760119269524,1242974596,19152,14,0.354248046875,-0.88189697265625,-0.32598876953125
1760119269524,1242974596,19152,15,0.35205078125,-0.88824462890625,-0.30987548828125
1760119269524,1242974596,19152,16,0.31689453125,-0.90118408203125,-0.30108642578125
1760119269524,1242974596,19152,17,0.301025390625,-0.89556884765625,-0.32183837890625
1760119269524,1242974596,19152,18,0.275146484375,-0.91290283203125,-0.29058837890625
1760119269524,1242974596,19152,19,0.304443359375,-0.91021728515625,-0.29376220703125
1760119269524,1242974596,19152,20,0.322509765625,-0.90020751953125,-0.29913330078125
1760119269524,1242974596,19152,21,0.3125,-0.90582275390625,-0.29620361328125
1760119269524,1242974596,19152,22,0.319091796875,-0.88922119140625,-0.32086181640625
1760119269524,1242974596,19152,23,0.31982421875,-0.90362548828125,-0.31671142578125
1760119269524,1242974596,19152,24,0.30712890625,-0.88604736328125,-0.30987548828125
1760119269524,1242974596,19152,25,0.310791015625,-0.89215087890625,-0.33135986328125
1760119269524,1242974596,19152,26,0.291259765625,-0.90142822265625,-0.32354736328125
1760119269524,1242974596,19152,27,0.311279296875,-0.89239501953125,-0.32720947265625
1760119269524,1242974596,19152,28,0.307373046875,-0.90142822265625,-0.31475830078125
1760119269524,1242974596,19152,29,0.29931640625,-0.89556884765625,-0.31207275390625
1760119269524,1242974596,19152,30,0.3046875,-0.89971923828125,-0.32672119140625
1760119269524,1242974596,19152,31,0.30029296875,-0.89947509765625,-0.31475830078125
1760119272060,1242977115,19153,0,0.319091796875,-0.90850830078125,-0.30499267578125
1760119272060,1242977115,19153,1,0.307373046875,-0.90338134765625,-0.28350830078125
1760119272060,1242977115,19153,2,0.31689453125,-0.89947509765625,-0.29620361328125
1760119272060,1242977115,19153,3,0.333251953125,-0.86846923828125,-0.29791259765625
1760119272060,1242977115,19153,4,0.3349609375,-0.89776611328125,-0.31256103515625
1760119272060,1242977115,19153,5,0.314697265625,-0.88287353515625,-0.33062744140625
1760119272060,1242977115,19153,6,0.286865234375,-0.92559814453125,-0.30474853515625
1760119272060,1242977115,19153,7,0.308837890625,-0.89727783203125,-0.32354736328125
1760119272060,1242977115,19153,8,0.296630859375,-0.88360595703125,-0.33795166015625
1760119272060,1242977115,19153,9,0.301025390625,-0.89337158203125,-0.33648681640625
1760119272060,1242977115,19153,10,0.29443359375,-0.90167236328125,-0.33624267578125
1760119272060,1242977115,19153,11,0.302978515625,-0.89678955078125,-0.32843017578125
1760119272060,1242977115,19153,12,0.298828125,-0.89190673828125,-0.33013916015625
1760119272060,1242977115,19153,13,0.292236328125,-0.89678955078125,-0.34674072265625
1760119272060,1242977115,19153,14,0.293701171875,-0.89874267578125,-0.33551025390625
1760119272060,1242977115,19153,15,0.302734375,-0.89776611328125,-0.32843017578125
1760119272060,1242977115,19153,16,0.292724609375,-0.90679931640625,-0.31524658203125
1760119272060,1242977115,19153,17,0.301513671875,-0.89385986328125,-0.33746337890625
1760119272060,1242977115,19153,18,0.304931640625,-0.87896728515625,-0.34869384765625
1760119272060,1242977115,19153,19,0.312744140625,-0.89215087890625,-0.32501220703125
1760119272060,1242977115,19153,20,0.30908203125,-0.90435791015625,-0.31793212890625
1760119272060,1242977115,19153,21,0.31396484375,-0.90191650390625,-0.32452392578125
1760119272060,1242977115,19153,22,0.28857421875,-0.88336181640625,-0.32891845703125
1760119272060,1242977115,19153,23,0.3125,-0.89605712890625,-0.33087158203125
1760119272060,1242977115,19153,24,0.31396484375,-0.89727783203125,-0.31671142578125
1760119272060,1242977115,19153,25,0.29248046875,-0.90777587890625,-0.30596923828125
1760119272060,1242977115,19153,26,0.300537109375,-0.89801025390625,-0.32086181640625
1760119272060,1242977115,19153,27,0.31103515625,-0.89288330078125,-0.33502197265625
1760119272060,1242977115,19153,28,0.3291015625,-0.90338134765625,-0.31182861328125
1760119272060,1242977115,19153,29,0.3232421875,-0.89483642578125,-0.29669189453125
1760119272060,1242977115,19153,30,0.302734375,-0.89678955078125,-0.31011962890625
1760119272060,1242977115,19153,31,0.291015625,-0.90704345703125,-0.30645751953125
1760119274598,1242979634,19154,0,0.3154296875,-0.90045166015625,-0.30816650390625
1760119274598,1242979634,19154,1,0.331787109375,-0.89556884765625,-0.30328369140625
1760119274598,1242979634,19154,2,0.31396484375,-0.90313720703125,-0.29132080078125
1760119274598,1242979634,19154,3,0.309326171875,-0.90289306640625,-0.29302978515625
1760119274598,1242979634,19154,4,0.30419921875,-0.90338134765625,-0.30230712890625
1760119274598,1242979634,19154,5,0.32080078125,-0.90411376953125,-0.30645751953125
1760119274598,1242979634,19154,6,0.31982421875,-0.89971923828125,-0.29083251953125
1760119274598,1242979634,19154,7,0.31103515625,-0.89947509765625,-0.29766845703125
1760119274598,1242979634,19154,8,0.298095703125,-0.89898681640625,-0.31109619140625
1760119274598,1242979634,19154,9,0.3037109375,-0.90264892578125,-0.30230712890625
1760119274598,1242979634,19154,10,0.32373046875,-0.90631103515625,-0.29791259765625
1760119274598,1242979634,19154,11,0.31103515625,-0.90240478515625,-0.27838134765625
1760119274598,1242979634,19154,12,0.3115234375,-0.90631103515625,-0.28985595703125
1760119274598,1242979634,19154,13,0.306640625,-0.90386962890625,-0.29840087890625
1760119274598,1242979634,19154,14,0.31787109375,-0.90216064453125,-0.30010986328125
1760119274598,1242979634,19154,15,0.33203125,-0.90533447265625,-0.29571533203125
1760119274598,1242979634,19154,16,0.31689453125,-0.89361572265625,-0.28497314453125
1760119274598,1242979634,19154,17,0.296875,-0.90362548828125,-0.30718994140625
1760119274598,1242979634,19154,18,0.287353515625,-0.90899658203125,-0.29718017578125
1760119274598,1242979634,19154,19,0.3193359375,-0.90093994140625,-0.30474853515625
1760119274598,1242979634,19154,20,0.331298828125,-0.90045166015625,-0.29864501953125
1760119274598,1242979634,19154,21,0.299560546875,-0.89801025390625,-0.27325439453125
1760119274598,1242979634,19154,22,0.299560546875,-0.91021728515625,-0.28741455078125
1760119274598,1242979634,19154,23,0.314453125,-0.89898681640625,-0.30352783203125
1760119274598,1242979634,19154,24,0.31591796875,-0.90411376953125,-0.29986572265625
1760119274598,1242979634,19154,25,0.3232421875,-0.90582275390625,-0.27764892578125
1760119274598,1242979634,19154,26,0.324462890625,-0.90435791015625,-0.27862548828125
1760119274598,1242979634,19154,27,0.306884765625,-0.90362548828125,-0.29400634765625
1760119274598,1242979634,19154,28,0.279052734375,-0.91314697265625,-0.26885986328125
1760119274598,1242979634,19154,29,0.296630859375,-0.91680908203125,-0.26812744140625
1760119274598,1242979634,19154,30,0.3134765625,-0.90875244140625,-0.27349853515625
1760119274598,1242979634,19154,31,0.2998046875,-0.90875244140625,-0.27056884765625
1760119277124,1242982153,19155,0,0.307861328125,-0.90533447265625,-0.29376220703125
1760119277124,1242982153,19155,1,0.317138671875,-0.91412353515625,-0.27593994140625
1760119277124,1242982153,19155,2,0.323486328125,-0.90631103515625,-0.28033447265625
1760119277124,1242982153,19155,3,0.31494140625,-0.89263916015625,-0.29010009765625
1760119277124,1242982153,19155,4,0.28369140625,-0.91265869140625,-0.29180908203125
1760119277124,1242982153,19155,5,0.310546875,-0.89825439453125,-0.30133056640625
1760119277124,1242982153,19155,6,0.32470703125,-0.89190673828125,-0.30279541015625
1760119277124,1242982153,19155,7,0.3173828125,-0.90826416015625,-0.27862548828125
1760119277124,1242982153,19155,8,0.31005859375,-0.90142822265625,-0.29571533203125
1760119277124,1242982153,19155,9,0.302734375,-0.90704345703125,-0.29742431640625
1760119277124,1242982153,19155,10,0.309326171875,-0.90411376953125,-0.30914306640625
1760119277124,1242982153,19155,11,0.32177734375,-0.89874267578125,-0.29595947265625
1760119277124,1242982153,19155,12,0.3349609375,-0.89727783203125,-0.29400634765625
1760119277124,1242982153,19155,13,0.326171875,-0.89288330078125,-0.30279541015625
1760119277124,1242982153,19155,14,0.292724609375,-0.89752197265625,-0.30963134765625
1760119277124,1242982153,19155,15,0.313232421875,-0.89825439453125,-0.30987548828125
1760119277124,1242982153,19155,16,0.330322265625,-0.90020751953125,-0.30767822265625
