receivedPhoneTimestamp,respeckTimestamp,packetSeqNum,sampleSeqNum,accelX,accelY,accelZ
1759913549166,1009032490,9478,0,-0.64306640625,-0.04986572265625,0.72650146484375
1759913549166,1009032490,9478,1,-0.640625,-0.04937744140625,0.72821044921875
1759913549166,1009032490,9478,2,-0.643798828125,-0.04791259765625,0.72723388671875
1759913549166,1009032490,9478,3,-0.640869140625,-0.04815673828125,0.72381591796875
1759913549166,1009032490,9478,4,-0.6435546875,-0.05157470703125,0.72552490234375
1759913549166,1009032490,9478,5,-0.64111328125,-0.04718017578125,0.72576904296875
1759913549166,1009032490,9478,6,-0.638916015625,-0.04693603515625,0.72283935546875
1759913549166,1009032490,9478,7,-0.643310546875,-0.05035400390625,0.72430419921875
1759913549166,1009032490,9478,8,-0.64013671875,-0.04400634765625,0.72601318359375
1759913549166,1009032490,9478,9,-0.639892578125,-0.04937744140625,0.72479248046875
1759913549166,1009032490,9478,10,-0.645751953125,-0.04644775390625,0.72308349609375
1759913549166,1009032490,9478,11,-0.646240234375,-0.04522705078125,0.72357177734375
1759913549166,1009032490,9478,12,-0.653076171875,-0.03961181640625,0.72186279296875
1759913549166,1009032490,9478,13,-0.6484375,-0.04449462890625,0.71624755859375
1759913549166,1009032490,9478,14,-0.656982421875,-0.03717041015625,0.71551513671875
1759913549166,1009032490,9478,15,-0.660888671875,-0.02935791015625,0.71697998046875
1759913549166,1009032490,9478,16,-0.669677734375,-0.03570556640625,0.71112060546875
1759913549166,1009032490,9478,17,-0.686279296875,-0.03326416015625,0.70550537109375
1759913549166,1009032490,9478,18,-0.677490234375,-0.04742431640625,0.69110107421875
1759913549166,1009032490,9478,19,-0.680908203125,-0.04718017578125,0.69671630859375
1759913549166,1009032490,9478,20,-0.66748046875,-0.03375244140625,0.70843505859375
1759913549166,1009032490,9478,21,-0.645263671875,-0.04010009765625,0.72088623046875
1759913549166,1009032490,9478,22,-0.64599609375,-0.02740478515625,0.72796630859375
1759913549166,1009032490,9478,23,-0.657470703125,-0.03106689453125,0.71478271484375
1759913549166,1009032490,9478,24,-0.630859375,-0.03009033203125,0.69598388671875
1759913549166,1009032490,9478,25,-0.6591796875,-0.06475830078125,0.72991943359375
1759913549166,1009032490,9478,26,-0.66162109375,-0.05572509765625,0.70623779296875
1759913549166,1009032490,9478,27,-0.673095703125,-0.02056884765625,0.69671630859375
1759913549166,1009032490,9478,28,-0.66748046875,-0.02813720703125,0.70135498046875
1759913549166,1009032490,9478,29,-0.659912109375,-0.03936767578125,0.71112060546875
1759913549166,1009032490,9478,30,-0.66650390625,-0.04132080078125,0.70867919921875
1759913549166,1009032490,9478,31,-0.65380859375,-0.04205322265625,0.71868896484375
1759913551878,1009035082,9479,0,-0.6728515625,-0.05133056640625,0.69549560546875
1759913551878,1009035082,9479,1,-0.6748046875,-0.03570556640625,0.71063232421875
1759913551878,1009035082,9479,2,-0.649658203125,-0.03936767578125,0.70574951171875
1759913551878,1009035082,9479,3,-0.665283203125,-0.05645751953125,0.71649169921875
1759913551878,1009035082,9479,4,-0.657958984375,-0.04791259765625,0.70599365234375
1759913551878,1009035082,9479,5,-0.668701171875,-0.05279541015625,0.70623779296875
1759913551878,1009035082,9479,6,-0.673095703125,-0.07452392578125,0.71063232421875
1759913551878,1009035082,9479,7,-0.679931640625,-0.02789306640625,0.69964599609375
1759913551878,1009035082,9479,8,-0.6728515625,-0.03155517578125,0.69915771484375
1759913551878,1009035082,9479,9,-0.647705078125,-0.02374267578125,0.70550537109375
1759913551878,1009035082,9479,10,-0.65771484375,-0.03887939453125,0.71209716796875
1759913551878,1009035082,9479,11,-0.6787109375,-0.06646728515625,0.71307373046875
1759913551878,1009035082,9479,12,-0.6552734375,-0.03131103515625,0.69427490234375
1759913551878,1009035082,9479,13,-0.65478515625,-0.02423095703125,0.70452880859375
1759913551878,1009035082,9479,14,-0.65478515625,-0.04669189453125,0.72625732421875
1759913551878,1009035082,9479,15,-0.6669921875,-0.07232666015625,0.71087646484375
1759913551878,1009035082,9479,16,-0.675048828125,-0.05841064453125,0.69036865234375
1759913551878,1009035082,9479,17,-0.6826171875,-0.03985595703125,0.71063232421875
1759913551878,1009035082,9479,18,-0.6572265625,-0.04327392578125,0.71014404296875
1759913551878,1009035082,9479,19,-0.650634765625,-0.04693603515625,0.71331787109375
1759913551878,1009035082,9479,20,-0.65966796875,-0.04278564453125,0.71038818359375
1759913551878,1009035082,9479,21,-0.661376953125,-0.04498291015625,0.71258544921875
1759913551878,1009035082,9479,22,-0.654296875,-0.05303955078125,0.71185302734375
1759913551878,1009035082,9479,23,-0.663330078125,-0.05523681640625,0.71380615234375
1759913551878,1009035082,9479,24,-0.656982421875,-0.04278564453125,0.70941162109375
1759913551878,1009035082,9479,25,-0.66259765625,-0.05474853515625,0.71478271484375
1759913551878,1009035082,9479,26,-0.659423828125,-0.05157470703125,0.71063232421875
1759913551878,1009035082,9479,27,-0.657958984375,-0.05206298828125,0.71038818359375
1759913551878,1009035082,9479,28,-0.654052734375,-0.05230712890625,0.71258544921875
1759913551878,1009035082,9479,29,-0.65771484375,-0.05377197265625,0.71820068359375
1759913551878,1009035082,9479,30,-0.652099609375,-0.05255126953125,0.71112060546875
1759913551878,1009035082,9479,31,-0.661865234375,-0.05548095703125,0.71160888671875
1759913554423,1009037673,9480,0,-0.65380859375,-0.05059814453125,0.71649169921875
1759913554423,1009037673,9480,1,-0.652587890625,-0.05572509765625,0.71771240234375
1759913554423,1009037673,9480,2,-0.65234375,-0.05670166015625,0.71624755859375
1759913554423,1009037673,9480,3,-0.6591796875,-0.05523681640625,0.71649169921875
1759913554423,1009037673,9480,4,-0.6533203125,-0.05010986328125,0.71087646484375
1759913554423,1009037673,9480,5,-0.6513671875,-0.05255126953125,0.71136474609375
1759913554423,1009037673,9480,6,-0.650634765625,-0.05279541015625,0.71429443359375
1759913554423,1009037673,9480,7,-0.656005859375,-0.05718994140625,0.71795654296875
1759913554423,1009037673,9480,8,-0.652099609375,-0.05035400390625,0.71307373046875
1759913554423,1009037673,9480,9,-0.649658203125,-0.05084228515625,0.72161865234375
1759913554423,1009037673,9480,10,-0.652099609375,-0.05084228515625,0.71795654296875
1759913554423,1009037673,9480,11,-0.65576171875,-0.05108642578125,0.71575927734375
1759913554423,1009037673,9480,12,-0.650634765625,-0.04864501953125,0.71502685546875
1759913554423,1009037673,9480,13,-0.652587890625,-0.05059814453125,0.72161865234375
1759913554423,1009037673,9480,14,-0.649169921875,-0.04962158203125,0.71990966796875
1759913554423,1009037673,9480,15,-0.651123046875,-0.05645751953125,0.72039794921875
1759913554423,1009037673,9480,16,-0.651123046875,-0.05108642578125,0.72015380859375
1759913554423,1009037673,9480,17,-0.65087890625,-0.05133056640625,0.72161865234375
1759913554423,1009037673,9480,18,-0.651611328125,-0.05279541015625,0.71917724609375
1759913554423,1009037673,9480,19,-0.653564453125,-0.05352783203125,0.71600341796875
1759913554423,1009037673,9480,20,-0.652099609375,-0.05157470703125,0.71697998046875
1759913554423,1009037673,9480,21,-0.649169921875,-0.05352783203125,0.72088623046875
1759913554423,1009037673,9480,22,-0.654052734375,-0.05181884765625,0.71234130859375
1759913554423,1009037673,9480,23,-0.655517578125,-0.06256103515625,0.71844482421875
1759913554423,1009037673,9480,24,-0.6513671875,-0.05206298828125,0.71575927734375
1759913554423,1009037673,9480,25,-0.65283203125,-0.06475830078125,0.72235107421875
1759913554423,1009037673,9480,26,-0.652587890625,-0.06402587890625,0.70892333984375
1759913554423,1009037673,9480,27,-0.66064453125,-0.06134033203125,0.70941162109375
1759913554423,1009037673,9480,28,-0.65625,-0.05938720703125,0.70379638671875
1759913554423,1009037673,9480,29,-0.65576171875,-0.06475830078125,0.71331787109375
1759913554423,1009037673,9480,30,-0.66357421875,-0.06109619140625,0.70941162109375
1759913554423,1009037673,9480,31,-0.65625,-0.05718994140625,0.70965576171875
1759913556972,1009040264,9481,0,-0.654052734375,-0.06207275390625,0.71209716796875
1759913556972,1009040264,9481,1,-0.658935546875,-0.06085205078125,0.71258544921875
1759913556972,1009040264,9481,2,-0.65869140625,-0.06158447265625,0.71453857421875
1759913556972,1009040264,9481,3,-0.65771484375,-0.06280517578125,0.71478271484375
1759913556972,1009040264,9481,4,-0.6572265625,-0.05865478515625,0.71209716796875
1759913556972,1009040264,9481,5,-0.65771484375,-0.06182861328125,0.71038818359375
1759913556972,1009040264,9481,6,-0.656005859375,-0.05914306640625,0.71405029296875
1759913556972,1009040264,9481,7,-0.662841796875,-0.06158447265625,0.71624755859375
1759913556972,1009040264,9481,8,-0.655029296875,-0.05596923828125,0.71258544921875
1759913556972,1009040264,9481,9,-0.657958984375,-0.05718994140625,0.71551513671875
1759913556972,1009040264,9481,10,-0.656005859375,-0.05450439453125,0.71087646484375
1759913556972,1009040264,9481,11,-0.657958984375,-0.05914306640625,0.71527099609375
1759913556972,1009040264,9481,12,-0.66064453125,-0.05499267578125,0.71112060546875
1759913556972,1009040264,9481,13,-0.655029296875,-0.05841064453125,0.71697998046875
1759913556972,1009040264,9481,14,-0.65087890625,-0.05499267578125,0.71746826171875
1759913556972,1009040264,9481,15,-0.658447265625,-0.06060791015625,0.71575927734375
1759913556972,1009040264,9481,16,-0.654296875,-0.05303955078125,0.71527099609375
1759913556972,1009040264,9481,17,-0.653076171875,-0.05938720703125,0.71453857421875
1759913556972,1009040264,9481,18,-0.6591796875,-0.05499267578125,0.71722412109375
1759913556972,1009040264,9481,19,-0.656982421875,-0.05792236328125,0.71649169921875
1759913556972,1009040264,9481,20,-0.65380859375,-0.05499267578125,0.71014404296875
1759913556972,1009040264,9481,21,-0.65625,-0.05841064453125,0.71307373046875
1759913556972,1009040264,9481,22,-0.6513671875,-0.05230712890625,0.71331787109375
1759913556972,1009040264,9481,23,-0.657958984375,-0.05938720703125,0.71673583984375
1759913556972,1009040264,9481,24,-0.6513671875,-0.05572509765625,0.71063232421875
1759913556972,1009040264,9481,25,-0.65234375,-0.05718994140625,0.71893310546875
1759913556972,1009040264,9481,26,-0.651123046875,-0.05328369140625,0.70916748046875
1759913556972,1009040264,9481,27,-0.6572265625,-0.05938720703125,0.71331787109375
1759913556972,1009040264,9481,28,-0.6513671875,-0.05523681640625,0.71722412109375
1759913556972,1009040264,9481,29,-0.65380859375,-0.05865478515625,0.71502685546875
1759913556972,1009040264,9481,30,-0.650146484375,-0.05499267578125,0.71649169921875
1759913556972,1009040264,9481,31,-0.654541015625,-0.06280517578125,0.71453857421875
1759913559523,1009042855,9482,0,-0.65673828125,-0.05352783203125,0.71527099609375
1759913559523,1009042855,9482,1,-0.654296875,-0.05401611328125,0.71722412109375
1759913559523,1009042855,9482,2,-0.654052734375,-0.05548095703125,0.71429443359375
1759913559523,1009042855,9482,3,-0.65673828125,-0.04937744140625,0.71600341796875
1759913559523,1009042855,9482,4,-0.654052734375,-0.05523681640625,0.71282958984375
1759913559523,1009042855,9482,5,-0.653076171875,-0.05694580078125,0.71307373046875
1759913559523,1009042855,9482,6,-0.654296875,-0.05596923828125,0.71649169921875
1759913559523,1009042855,9482,7,-0.654541015625,-0.06060791015625,0.71844482421875
1759913559523,1009042855,9482,8,-0.650634765625,-0.05035400390625,0.71234130859375
1759913559523,1009042855,9482,9,-0.655029296875,-0.05938720703125,0.71746826171875
1759913559523,1009042855,9482,10,-0.65185546875,-0.05963134765625,0.72113037109375
1759913559523,1009042855,9482,11,-0.65380859375,-0.05743408203125,0.72235107421875
1759913559523,1009042855,9482,12,-0.6533203125,-0.06060791015625,0.71820068359375
1759913559523,1009042855,9482,13,-0.6513671875,-0.05865478515625,0.71527099609375
1759913559523,1009042855,9482,14,-0.653076171875,-0.06036376953125,0.71746826171875
1759913559523,1009042855,9482,15,-0.65185546875,-0.05865478515625,0.71868896484375
1759913559523,1009042855,9482,16,-0.65185546875,-0.06036376953125,0.71722412109375
1759913559523,1009042855,9482,17,-0.65234375,-0.06060791015625,0.71746826171875
1759913559523,1009042855,9482,18,-0.64892578125,-0.05670166015625,0.71966552734375
1759913559523,1009042855,9482,19,-0.651611328125,-0.06256103515625,0.71649169921875
1759913559523,1009042855,9482,20,-0.65673828125,-0.06280517578125,0.72235107421875
1759913559523,1009042855,9482,21,-0.646728515625,-0.05279541015625,0.71624755859375
1759913559523,1009042855,9482,22,-0.650634765625,-0.06353759765625,0.72357177734375
1759913559523,1009042855,9482,23,-0.649169921875,-0.05914306640625,0.72015380859375
1759913559523,1009042855,9482,24,-0.657470703125,-0.06402587890625,0.71575927734375
1759913559523,1009042855,9482,25,-0.651123046875,-0.05035400390625,0.71624755859375
1759913559523,1009042855,9482,26,-0.657470703125,-0.05865478515625,0.72552490234375
1759913559523,1009042855,9482,27,-0.6513671875,-0.04693603515625,0.71307373046875
1759913559523,1009042855,9482,28,-0.654296875,-0.04571533203125,0.71722412109375
1759913559523,1009042855,9482,29,-0.6533203125,-0.05303955078125,0.71844482421875
1759913559523,1009042855,9482,30,-0.649658203125,-0.04400634765625,0.71771240234375
1759913559523,1009042855,9482,31,-0.6484375,-0.04425048828125,0.72552490234375
1759913562221,1009045446,9483,0,-0.6572265625,-0.05206298828125,0.72601318359375
1759913562221,1009045446,9483,1,-0.653564453125,-0.04620361328125,0.71160888671875
1759913562221,1009045446,9483,2,-0.655517578125,-0.06353759765625,0.71160888671875
1759913562221,1009045446,9483,3,-0.645263671875,-0.08599853515625,0.71258544921875
1759913562221,1009045446,9483,4,-0.667236328125,-0.10406494140625,0.71356201171875
1759913562221,1009045446,9483,5,-0.666748046875,-0.08209228515625,0.69476318359375
1759913562221,1009045446,9483,6,-0.669677734375,-0.09918212890625,0.71380615234375
1759913562221,1009045446,9483,7,-0.622802734375,-0.07159423828125,0.68499755859375
1759913562221,1009045446,9483,8,-0.690673828125,-0.05230712890625,0.73089599609375
1759913562221,1009045446,9483,9,-0.642822265625,-0.06719970703125,0.71209716796875
1759913562221,1009045446,9483,10,-0.65625,-0.06304931640625,0.72308349609375
1759913562221,1009045446,9483,11,-0.65625,-0.05694580078125,0.70330810546875
1759913562221,1009045446,9483,12,-0.6650390625,-0.05938720703125,0.72064208984375
1759913562221,1009045446,9483,13,-0.65673828125,-0.05206298828125,0.71429443359375
1759913562221,1009045446,9483,14,-0.654052734375,-0.06524658203125,0.71795654296875
1759913562221,1009045446,9483,15,-0.658447265625,-0.06866455078125,0.71234130859375
1759913562221,1009045446,9483,16,-0.666748046875,-0.07037353515625,0.70428466796875
1759913562221,1009045446,9483,17,-0.660400390625,-0.05938720703125,0.71551513671875
1759913562221,1009045446,9483,18,-0.65869140625,-0.07037353515625,0.71063232421875
1759913562221,1009045446,9483,19,-0.650634765625,-0.07281494140625,0.71502685546875
1759913562221,1009045446,9483,20,-0.655517578125,-0.06060791015625,0.71844482421875
1759913562221,1009045446,9483,21,-0.6552734375,-0.06671142578125,0.71405029296875
1759913562221,1009045446,9483,22,-0.65380859375,-0.06329345703125,0.71185302734375
1759913562221,1009045446,9483,23,-0.65576171875,-0.06573486328125,0.72088623046875
1759913562221,1009045446,9483,24,-0.65576171875,-0.06353759765625,0.71038818359375
1759913562221,1009045446,9483,25,-0.65625,-0.05670166015625,0.72357177734375
1759913562221,1009045446,9483,26,-0.64990234375,-0.07012939453125,0.72161865234375
1759913562221,1009045446,9483,27,-0.650146484375,-0.07550048828125,0.72332763671875
1759913562221,1009045446,9483,28,-0.64013671875,-0.07989501953125,0.71844482421875
1759913562221,1009045446,9483,29,-0.647705078125,-0.08697509765625,0.72650146484375
1759913562221,1009045446,9483,30,-0.641357421875,-0.07916259765625,0.72357177734375
1759913562221,1009045446,9483,31,-0.647705078125,-0.08917236328125,0.72381591796875
1759913564773,1009048037,9484,0,-0.64111328125,-0.08404541015625,0.72161865234375
1759913564773,1009048037,9484,1,-0.6435546875,-0.08673095703125,0.72235107421875
1759913564773,1009048037,9484,2,-0.647216796875,-0.08770751953125,0.72283935546875
1759913564773,1009048037,9484,3,-0.64306640625,-0.08599853515625,0.71966552734375
1759913564773,1009048037,9484,4,-0.643798828125,-0.08892822265625,0.72601318359375
1759913564773,1009048037,9484,5,-0.641845703125,-0.08917236328125,0.72357177734375
1759913564773,1009048037,9484,6,-0.642578125,-0.08795166015625,0.72332763671875
1759913564773,1009048037,9484,7,-0.643798828125,-0.09234619140625,0.72113037109375
1759913564773,1009048037,9484,8,-0.645263671875,-0.08990478515625,0.72576904296875
1759913564773,1009048037,9484,9,-0.63916015625,-0.09088134765625,0.72454833984375
1759913564773,1009048037,9484,10,-0.642333984375,-0.09185791015625,0.72381591796875
1759913564773,1009048037,9484,11,-0.641845703125,-0.09136962890625,0.72381591796875
1759913564773,1009048037,9484,12,-0.638671875,-0.09381103515625,0.72552490234375
1759913564773,1009048037,9484,13,-0.64306640625,-0.09185791015625,0.72308349609375
1759913564773,1009048037,9484,14,-0.6416015625,-0.09649658203125,0.72064208984375
1759913564773,1009048037,9484,15,-0.645263671875,-0.08990478515625,0.72137451171875
1759913564773,1009048037,9484,16,-0.641357421875,-0.08624267578125,0.72528076171875
1759913564773,1009048037,9484,17,-0.639892578125,-0.08892822265625,0.72650146484375
1759913564773,1009048037,9484,18,-0.64208984375,-0.09332275390625,0.72357177734375
1759913564773,1009048037,9484,19,-0.64111328125,-0.08624267578125,0.72357177734375
1759913564773,1009048037,9484,20,-0.641357421875,-0.08941650390625,0.72674560546875
1759913564773,1009048037,9484,21,-0.642578125,-0.08917236328125,0.72503662109375
1759913564773,1009048037,9484,22,-0.639892578125,-0.08746337890625,0.72576904296875
1759913564773,1009048037,9484,23,-0.641845703125,-0.08843994140625,0.72039794921875
1759913564773,1009048037,9484,24,-0.646240234375,-0.08453369140625,0.72918701171875
1759913564773,1009048037,9484,25,-0.638427734375,-0.08575439453125,0.72503662109375
1759913564773,1009048037,9484,26,-0.6435546875,-0.08770751953125,0.72503662109375
1759913564773,1009048037,9484,27,-0.64208984375,-0.08697509765625,0.72723388671875
1759913564773,1009048037,9484,28,-0.640625,-0.08575439453125,0.72528076171875
1759913564773,1009048037,9484,29,-0.63916015625,-0.08599853515625,0.72479248046875
1759913564773,1009048037,9484,30,-0.63671875,-0.08209228515625,0.72674560546875
1759913564773,1009048037,9484,31,-0.638916015625,-0.08697509765625,0.72772216796875
1759913567321,1009050629,9485,0,-0.633056640625,-0.08428955078125,0.72381591796875
1759913567321,1009050629,9485,1,-0.63818359375,-0.08843994140625,0.73040771484375
1759913567321,1009050629,9485,2,-0.63134765625,-0.08428955078125,0.73114013671875
1759913567321,1009050629,9485,3,-0.63671875,-0.08819580078125,0.72821044921875
1759913567321,1009050629,9485,4,-0.64013671875,-0.08258056640625,0.72943115234375
1759913567321,1009050629,9485,5,-0.632080078125,-0.08526611328125,0.72552490234375
1759913567321,1009050629,9485,6,-0.638671875,-0.08209228515625,0.72918701171875
1759913567321,1009050629,9485,7,-0.638427734375,-0.08184814453125,0.72772216796875
1759913567321,1009050629,9485,8,-0.63671875,-0.07891845703125,0.72625732421875
1759913567321,1009050629,9485,9,-0.635498046875,-0.07965087890625,0.72821044921875
1759913567321,1009050629,9485,10,-0.6357421875,-0.08013916015625,0.73114013671875
1759913567321,1009050629,9485,11,-0.638671875,-0.08428955078125,0.73040771484375
1759913567321,1009050629,9485,12,-0.633544921875,-0.08062744140625,0.72821044921875
1759913567321,1009050629,9485,13,-0.636962890625,-0.08673095703125,0.73651123046875
1759913567321,1009050629,9485,14,-0.638427734375,-0.07989501953125,0.73016357421875
1759913567321,1009050629,9485,15,-0.6318359375,-0.09259033203125,0.72650146484375
1759913567321,1009050629,9485,16,-0.640625,-0.09063720703125,0.73016357421875
1759913567321,1009050629,9485,17,-0.62890625,-0.08428955078125,0.72454833984375
1759913567321,1009050629,9485,18,-0.6259765625,-0.09405517578125,0.72381591796875
1759913567321,1009050629,9485,19,-0.640380859375,-0.09332275390625,0.72967529296875
1759913567321,1009050629,9485,20,-0.63525390625,-0.08209228515625,0.72528076171875
1759913567321,1009050629,9485,21,-0.63623046875,-0.08795166015625,0.73114013671875
1759913567321,1009050629,9485,22,-0.63916015625,-0.08746337890625,0.72723388671875
1759913567321,1009050629,9485,23,-0.636474609375,-0.08551025390625,0.72381591796875
1759913567321,1009050629,9485,24,-0.640869140625,-0.08819580078125,0.72674560546875
1759913567321,1009050629,9485,25,-0.633056640625,-0.08233642578125,0.72772216796875
1759913567321,1009050629,9485,26,-0.638916015625,-0.08721923828125,0.72650146484375
1759913567321,1009050629,9485,27,-0.637939453125,-0.08941650390625,0.72454833984375
1759913567321,1009050629,9485,28,-0.639892578125,-0.07965087890625,0.72772216796875
1759913567321,1009050629,9485,29,-0.637939453125,-0.08648681640625,0.72479248046875
1759913567321,1009050629,9485,30,-0.6396484375,-0.08526611328125,0.72821044921875
1759913567321,1009050629,9485,31,-0.636962890625,-0.08233642578125,0.72894287109375
1759913569871,1009053220,9486,0,-0.636962890625,-0.08306884765625,0.72674560546875
1759913569871,1009053220,9486,1,-0.639892578125,-0.08453369140625,0.72625732421875
1759913569871,1009053220,9486,2,-0.63671875,-0.08087158203125,0.73089599609375
1759913569871,1009053220,9486,3,-0.636962890625,-0.08599853515625,0.72528076171875
1759913569871,1009053220,9486,4,-0.638427734375,-0.08087158203125,0.72674560546875
1759913569871,1009053220,9486,5,-0.6396484375,-0.08428955078125,0.72772216796875
1759913569871,1009053220,9486,6,-0.64111328125,-0.08941650390625,0.73284912109375
1759913569871,1009053220,9486,7,-0.637451171875,-0.08599853515625,0.72601318359375
1759913569871,1009053220,9486,8,-0.63525390625,-0.07891845703125,0.72528076171875
1759913569871,1009053220,9486,9,-0.6328125,-0.08551025390625,0.72991943359375
1759913569871,1009053220,9486,10,-0.634765625,-0.08917236328125,0.72869873046875
1759913569871,1009053220,9486,11,-0.64111328125,-0.08721923828125,0.72235107421875
1759913569871,1009053220,9486,12,-0.640625,-0.07794189453125,0.72821044921875
1759913569871,1009053220,9486,13,-0.629638671875,-0.08087158203125,0.73651123046875
1759913569871,1009053220,9486,14,-0.6416015625,-0.07891845703125,0.72357177734375
1759913569871,1009053220,9486,15,-0.6484375,-0.08428955078125,0.72625732421875
1759913569871,1009053220,9486,16,-0.63525390625,-0.07232666015625,0.72308349609375
1759913569871,1009053220,9486,17,-0.62353515625,-0.07623291015625,0.73114013671875
1759913569871,1009053220,9486,18,-0.64013671875,-0.07965087890625,0.72454833984375
1759913569871,1009053220,9486,19,-0.6494140625,-0.08062744140625,0.72625732421875
1759913569871,1009053220,9486,20,-0.6416015625,-0.07574462890625,0.72698974609375
1759913569871,1009053220,9486,21,-0.630615234375,-0.07525634765625,0.73162841796875
1759913569871,1009053220,9486,22,-0.619873046875,-0.07940673828125,0.73431396484375
1759913569871,1009053220,9486,23,-0.620361328125,-0.07696533203125,0.73870849609375
1759913569871,1009053220,9486,24,-0.638671875,-0.07183837890625,0.73065185546875
1759913569871,1009053220,9486,25,-0.6328125,-0.07379150390625,0.73382568359375
1759913569871,1009053220,9486,26,-0.62451171875,-0.07330322265625,0.73260498046875
1759913569871,1009053220,9486,27,-0.629638671875,-0.07550048828125,0.73382568359375
1759913569871,1009053220,9486,28,-0.629150390625,-0.07550048828125,0.73333740234375
1759913569871,1009053220,9486,29,-0.632080078125,-0.07037353515625,0.72918701171875
1759913569871,1009053220,9486,30,-0.631591796875,-0.07403564453125,0.73333740234375
1759913569871,1009053220,9486,31,-0.6279296875,-0.07403564453125,0.72967529296875
1759913572573,1009055811,9487,0,-0.634033203125,-0.07159423828125,0.72967529296875
1759913572573,1009055811,9487,1,-0.63134765625,-0.06964111328125,0.72967529296875
1759913572573,1009055811,9487,2,-0.62939453125,-0.06842041015625,0.73406982421875
1759913572573,1009055811,9487,3,-0.640869140625,-0.06890869140625,0.72650146484375
1759913572573,1009055811,9487,4,-0.641357421875,-0.06329345703125,0.72698974609375
1759913572573,1009055811,9487,5,-0.628173828125,-0.06915283203125,0.73260498046875
1759913572573,1009055811,9487,6,-0.63525390625,-0.07305908203125,0.73333740234375
1759913572573,1009055811,9487,7,-0.62109375,-0.08184814453125,0.73455810546875
1759913572573,1009055811,9487,8,-0.62158203125,-0.06988525390625,0.74139404296875
1759913572573,1009055811,9487,9,-0.652587890625,-0.09332275390625,0.73040771484375
1759913572573,1009055811,9487,10,-0.614990234375,-0.09625244140625,0.72747802734375
1759913572573,1009055811,9487,11,-0.620361328125,-0.09381103515625,0.72772216796875
1759913572573,1009055811,9487,12,-0.63720703125,-0.08746337890625,0.73236083984375
1759913572573,1009055811,9487,13,-0.6357421875,-0.08380126953125,0.72357177734375
1759913572573,1009055811,9487,14,-0.632080078125,-0.08477783203125,0.73284912109375
1759913572573,1009055811,9487,15,-0.63232421875,-0.09161376953125,0.73211669921875
1759913572573,1009055811,9487,16,-0.630126953125,-0.07818603515625,0.72601318359375
1759913572573,1009055811,9487,17,-0.635986328125,-0.08038330078125,0.72918701171875
1759913572573,1009055811,9487,18,-0.637939453125,-0.08087158203125,0.72747802734375
1759913572573,1009055811,9487,19,-0.629638671875,-0.08843994140625,0.73333740234375
1759913572573,1009055811,9487,20,-0.630859375,-0.08135986328125,0.72406005859375
1759913572573,1009055811,9487,21,-0.64111328125,-0.08502197265625,0.72967529296875
1759913572573,1009055811,9487,22,-0.6318359375,-0.08380126953125,0.72869873046875
1759913572573,1009055811,9487,23,-0.631103515625,-0.08258056640625,0.72845458984375
1759913572573,1009055811,9487,24,-0.6328125,-0.08282470703125,0.73162841796875
1759913572573,1009055811,9487,25,-0.62841796875,-0.08502197265625,0.72943115234375
1759913572573,1009055811,9487,26,-0.6357421875,-0.08380126953125,0.72918701171875
1759913572573,1009055811,9487,27,-0.636962890625,-0.08453369140625,0.73040771484375
1759913572573,1009055811,9487,28,-0.63330078125,-0.08477783203125,0.72991943359375
1759913572573,1009055811,9487,29,-0.63525390625,-0.08233642578125,0.72894287109375
1759913572573,1009055811,9487,30,-0.63037109375,-0.08135986328125,0.73333740234375
1759913572573,1009055811,9487,31,-0.6357421875,-0.08331298828125,0.73040771484375
1759913575116,1009058402,9488,0,-0.62744140625,-0.08282470703125,0.72601318359375
1759913575116,1009058402,9488,1,-0.630859375,-0.07696533203125,0.72821044921875
1759913575116,1009058402,9488,2,-0.63134765625,-0.08355712890625,0.73358154296875
1759913575116,1009058402,9488,3,-0.634765625,-0.07745361328125,0.72845458984375
1759913575116,1009058402,9488,4,-0.63720703125,-0.08477783203125,0.73284912109375
1759913575116,1009058402,9488,5,-0.622802734375,-0.07696533203125,0.73138427734375
1759913575116,1009058402,9488,6,-0.632568359375,-0.08258056640625,0.73406982421875
1759913575116,1009058402,9488,7,-0.628173828125,-0.07843017578125,0.73040771484375
1759913575116,1009058402,9488,8,-0.63330078125,-0.07965087890625,0.73406982421875
1759913575116,1009058402,9488,9,-0.6259765625,-0.07696533203125,0.73236083984375
1759913575116,1009058402,9488,10,-0.62841796875,-0.07916259765625,0.73699951171875
1759913575116,1009058402,9488,11,-0.633544921875,-0.07720947265625,0.72845458984375
1759913575116,1009058402,9488,12,-0.6357421875,-0.08233642578125,0.72967529296875
1759913575116,1009058402,9488,13,-0.6220703125,-0.07305908203125,0.73333740234375
1759913575116,1009058402,9488,14,-0.62939453125,-0.08062744140625,0.73284912109375
1759913575116,1009058402,9488,15,-0.63720703125,-0.07989501953125,0.72723388671875
1759913575116,1009058402,9488,16,-0.63427734375,-0.08038330078125,0.72991943359375
1759913575116,1009058402,9488,17,-0.62744140625,-0.07696533203125,0.73040771484375
1759913575116,1009058402,9488,18,-0.633056640625,-0.08160400390625,0.72869873046875
1759913575116,1009058402,9488,19,-0.638916015625,-0.08233642578125,0.72747802734375
1759913575116,1009058402,9488,20,-0.634033203125,-0.07720947265625,0.72918701171875
1759913575116,1009058402,9488,21,-0.627197265625,-0.07623291015625,0.73406982421875
1759913575116,1009058402,9488,22,-0.638916015625,-0.08038330078125,0.72869873046875
1759913575116,1009058402,9488,23,-0.6455078125,-0.07843017578125,0.72235107421875
1759913575116,1009058402,9488,24,-0.630859375,-0.07574462890625,0.73162841796875
1759913575116,1009058402,9488,25,-0.62646484375,-0.08258056640625,0.73455810546875
1759913575116,1009058402,9488,26,-0.63232421875,-0.09210205078125,0.73089599609375
1759913575116,1009058402,9488,27,-0.636474609375,-0.07940673828125,0.72772216796875
1759913575116,1009058402,9488,28,-0.6298828125,-0.10235595703125,0.73406982421875
1759913575116,1009058402,9488,29,-0.63525390625,-0.10357666015625,0.71258544921875
1759913575116,1009058402,9488,30,-0.65576171875,-0.10479736328125,0.72210693359375
1759913575116,1009058402,9488,31,-0.643310546875,-0.10601806640625,0.71990966796875
1759913577666,1009060993,9489,0,-0.638916015625,-0.12896728515625,0.72039794921875
1759913577666,1009060993,9489,1,-0.63720703125,-0.09820556640625,0.72381591796875
1759913577666,1009060993,9489,2,-0.642822265625,-0.08160400390625,0.72210693359375
1759913577666,1009060993,9489,3,-0.626953125,-0.09747314453125,0.73895263671875
1759913577666,1009060993,9489,4,-0.61669921875,-0.08795166015625,0.73919677734375
1759913577666,1009060993,9489,5,-0.625,-0.06622314453125,0.72625732421875
1759913577666,1009060993,9489,6,-0.638671875,-0.08843994140625,0.72845458984375
1759913577666,1009060993,9489,7,-0.646484375,-0.07794189453125,0.71942138671875
1759913577666,1009060993,9489,8,-0.62890625,-0.08282470703125,0.72625732421875
1759913577666,1009060993,9489,9,-0.62646484375,-0.08673095703125,0.74285888671875
1759913577666,1009060993,9489,10,-0.634033203125,-0.07940673828125,0.72796630859375
1759913577666,1009060993,9489,11,-0.6416015625,-0.08380126953125,0.72650146484375
1759913577666,1009060993,9489,12,-0.6279296875,-0.08502197265625,0.73162841796875
1759913577666,1009060993,9489,13,-0.630859375,-0.09307861328125,0.73382568359375
1759913577666,1009060993,9489,14,-0.628662109375,-0.08306884765625,0.73187255859375
1759913577666,1009060993,9489,15,-0.6328125,-0.08502197265625,0.73187255859375
1759913577666,1009060993,9489,16,-0.626953125,-0.08990478515625,0.72943115234375
1759913577666,1009060993,9489,17,-0.6259765625,-0.08355712890625,0.73187255859375
1759913577666,1009060993,9489,18,-0.628173828125,-0.08770751953125,0.73358154296875
1759913577666,1009060993,9489,19,-0.631591796875,-0.09088134765625,0.73138427734375
1759913577666,1009060993,9489,20,-0.62451171875,-0.08551025390625,0.73162841796875
