receivedPhoneTimestamp,respeckTimestamp,packetSeqNum,sampleSeqNum,accelX,accelY,accelZ
1759488499549,619933052,3226,18,-0.02099609375,-0.99273681640625,-0.10089111328125
1759488499549,619933052,3226,19,-0.016845703125,-1.00372314453125,-0.17828369140625
1759488499549,619933052,3226,20,-0.03076171875,-1.01251220703125,-0.17999267578125
1759488499549,619933052,3226,21,-0.024169921875,-0.99298095703125,-0.17510986328125
1759488499549,619933052,3226,22,-0.018798828125,-0.99298095703125,-0.13946533203125
1759488499549,619933052,3226,23,-0.011962890625,-0.99591064453125,-0.17950439453125
1759488499549,619933052,3226,24,-0.011474609375,-1.00128173828125,-0.13311767578125
1759488499549,619933052,3226,25,-0.02001953125,-0.99835205078125,-0.13360595703125
1759488499549,619933052,3226,26,-0.02001953125,-1.00860595703125,-0.13897705078125
1759488499549,619933052,3226,27,-0.013916015625,-0.99810791015625,-0.14654541015625
1759488499549,619933052,3226,28,-0.0126953125,-0.98980712890625,-0.16729736328125
1759488499549,619933052,3226,29,-0.01708984375,-1.00445556640625,-0.16119384765625
1759488499549,619933052,3226,30,-0.01513671875,-0.99444580078125,-0.14532470703125
1759488499549,619933052,3226,31,-0.0224609375,-1.00201416015625,-0.14849853515625
1759488502085,619935607,3227,0,-0.0234375,-1.00640869140625,-0.15386962890625
1759488502085,619935607,3227,1,-0.025634765625,-1.00347900390625,-0.14947509765625
1759488502085,619935607,3227,2,-0.021240234375,-0.99200439453125,-0.15191650390625
1759488502085,619935607,3227,3,-0.0185546875,-1.00250244140625,-0.14581298828125
1759488502085,619935607,3227,4,-0.007568359375,-1.00665283203125,-0.16802978515625
1759488502085,619935607,3227,5,-0.041259765625,-0.99615478515625,-0.09185791015625
1759488502085,619935607,3227,6,-0.032958984375,-1.00396728515625,-0.13702392578125
1759488502085,619935607,3227,7,-0.03759765625,-0.97052001953125,-0.14337158203125
1759488502085,619935607,3227,8,-0.013916015625,-0.99542236328125,-0.17706298828125
1759488502085,619935607,3227,9,-0.01513671875,-1.02374267578125,-0.16070556640625
1759488502085,619935607,3227,10,-0.014404296875,-0.99444580078125,-0.12188720703125
1759488502085,619935607,3227,11,-0.019287109375,-0.99224853515625,-0.17706298828125
1759488502085,619935607,3227,12,-0.03125,-1.00665283203125,-0.17022705078125
1759488502085,619935607,3227,13,-0.017822265625,-0.99664306640625,-0.15118408203125
1759488502085,619935607,3227,14,-0.015625,-0.99835205078125,-0.15582275390625
1759488502085,619935607,3227,15,-0.01318359375,-1.00030517578125,-0.16094970703125
1759488502085,619935607,3227,16,-0.020751953125,-0.99835205078125,-0.14605712890625
1759488502085,619935607,3227,17,-0.0234375,-1.00665283203125,-0.15313720703125
1759488502085,619935607,3227,18,-0.017822265625,-1.00054931640625,-0.15289306640625
1759488502085,619935607,3227,19,-0.01318359375,-0.98956298828125,-0.15362548828125
1759488502085,619935607,3227,20,-0.0166015625,-0.99932861328125,-0.17169189453125
1759488502085,619935607,3227,21,-0.014404296875,-0.99713134765625,-0.14483642578125
1759488502085,619935607,3227,22,-0.01904296875,-1.00421142578125,-0.15679931640625
1759488502085,619935607,3227,23,-0.012939453125,-0.99859619140625,-0.15118408203125
1759488502085,619935607,3227,24,-0.0283203125,-1.00030517578125,-0.13385009765625
1759488502085,619935607,3227,25,-0.02197265625,-0.99884033203125,-0.12481689453125
1759488502085,619935607,3227,26,-0.029052734375,-1.00103759765625,-0.15313720703125
1759488502085,619935607,3227,27,-0.0400390625,-0.99029541015625,-0.14288330078125
1759488502085,619935607,3227,28,-0.016357421875,-1.00054931640625,-0.20953369140625
1759488502085,619935607,3227,29,-0.0234375,-1.00958251953125,-0.18170166015625
1759488502085,619935607,3227,30,-0.028076171875,-0.99786376953125,-0.17193603515625
1759488502085,619935607,3227,31,-0.027099609375,-0.99566650390625,-0.13262939453125
1759488504814,619938168,3228,0,-0.022705078125,-0.98272705078125,-0.13531494140625
1759488504814,619938168,3228,1,-0.03369140625,-0.99224853515625,-0.06622314453125
1759488504814,619938168,3228,2,-0.01220703125,-1.02203369140625,-0.25689697265625
1759488504814,619938168,3228,3,-0.02099609375,-1.00421142578125,-0.19342041015625
1759488504814,619938168,3228,4,-0.036865234375,-0.98614501953125,-0.17242431640625
1759488504814,619938168,3228,5,-0.01806640625,-0.99395751953125,-0.12750244140625
1759488504814,619938168,3228,6,-0.0361328125,-0.99005126953125,-0.11749267578125
1759488504814,619938168,3228,7,0.01220703125,-1.00933837890625,-0.14410400390625
1759488504814,619938168,3228,8,-0.05517578125,-1.00250244140625,-0.23297119140625
1759488504814,619938168,3228,9,-0.02099609375,-1.00128173828125,-0.13873291015625
1759488504814,619938168,3228,10,-0.019775390625,-0.98834228515625,-0.18365478515625
1759488504814,619938168,3228,11,-0.015625,-0.99615478515625,-0.16070556640625
1759488504814,619938168,3228,12,-0.01025390625,-1.00006103515625,-0.18560791015625
1759488504814,619938168,3228,13,-0.02490234375,-0.99835205078125,-0.16241455078125
1759488504814,619938168,3228,14,-0.027587890625,-0.99200439453125,-0.17266845703125
1759488504814,619938168,3228,15,-0.0185546875,-1.00762939453125,-0.16168212890625
1759488504814,619938168,3228,16,-0.021484375,-1.00030517578125,-0.17193603515625
1759488504814,619938168,3228,17,-0.01953125,-0.99908447265625,-0.16510009765625
1759488504814,619938168,3228,18,-0.046630859375,-0.99957275390625,-0.13775634765625
1759488504814,619938168,3228,19,-0.0458984375,-0.99176025390625,-0.13385009765625
1759488504814,619938168,3228,20,-0.04052734375,-0.97515869140625,-0.16046142578125
1759488504814,619938168,3228,21,-0.031982421875,-1.00616455078125,-0.14337158203125
1759488504814,619938168,3228,22,-0.0400390625,-1.01226806640625,-0.19244384765625
1759488504814,619938168,3228,23,-0.046142578125,-1.01617431640625,-0.14532470703125
1759488504814,619938168,3228,24,-0.01953125,-0.97833251953125,-0.18902587890625
1759488504814,619938168,3228,25,-0.0390625,-0.99371337890625,-0.16192626953125
1759488504814,619938168,3228,26,-0.051513671875,-1.00201416015625,-0.15240478515625
1759488504814,619938168,3228,27,-0.039306640625,-1.00152587890625,-0.13677978515625
1759488504814,619938168,3228,28,-0.0361328125,-1.00250244140625,-0.15338134765625
1759488504814,619938168,3228,29,-0.031982421875,-0.98907470703125,-0.21051025390625
1759488504814,619938168,3228,30,-0.037109375,-0.99053955078125,-0.16290283203125
1759488504814,619938168,3228,31,-0.05078125,-1.00372314453125,-0.16461181640625
1759488507349,619940729,3229,0,-0.038330078125,-0.99688720703125,-0.16363525390625
1759488507349,619940729,3229,1,-0.042724609375,-0.99615478515625,-0.17706298828125
1759488507349,619940729,3229,2,-0.03955078125,-0.99517822265625,-0.16876220703125
1759488507349,619940729,3229,3,-0.0419921875,-0.99835205078125,-0.16119384765625
1759488507349,619940729,3229,4,-0.03125,-0.99810791015625,-0.17852783203125
1759488507349,619940729,3229,5,-0.03564453125,-1.00054931640625,-0.17681884765625
1759488507349,619940729,3229,6,-0.03857421875,-0.99249267578125,-0.17974853515625
1759488507349,619940729,3229,7,-0.041015625,-0.99249267578125,-0.18170166015625
1759488507349,619940729,3229,8,-0.0390625,-0.99664306640625,-0.15679931640625
1759488507349,619940729,3229,9,-0.033203125,-1.00640869140625,-0.16192626953125
1759488507349,619940729,3229,10,-0.039794921875,-1.00982666015625,-0.18218994140625
1759488507349,619940729,3229,11,-0.035400390625,-0.98028564453125,-0.17706298828125
1759488507349,619940729,3229,12,-0.037841796875,-0.98931884765625,-0.17877197265625
1759488507349,619940729,3229,13,-0.03076171875,-1.00103759765625,-0.18560791015625
1759488507349,619940729,3229,14,-0.034912109375,-1.00006103515625,-0.16021728515625
1759488507349,619940729,3229,15,-0.037841796875,-0.99493408203125,-0.17706298828125
1759488507349,619940729,3229,16,-0.04150390625,-1.00665283203125,-0.19146728515625
1759488507349,619940729,3229,17,-0.01953125,-0.99444580078125,-0.18536376953125
1759488507349,619940729,3229,18,-0.035888671875,-0.98931884765625,-0.17828369140625
1759488507349,619940729,3229,19,-0.04248046875,-0.99102783203125,-0.17779541015625
1759488507349,619940729,3229,20,-0.03857421875,-1.00518798828125,-0.16070556640625
1759488507349,619940729,3229,21,-0.038818359375,-0.99664306640625,-0.17974853515625
1759488507349,619940729,3229,22,-0.03173828125,-0.99444580078125,-0.16973876953125
1759488507349,619940729,3229,23,-0.0361328125,-0.99420166015625,-0.17144775390625
1759488507349,619940729,3229,24,-0.03173828125,-0.99810791015625,-0.21002197265625
1759488507349,619940729,3229,25,-0.043701171875,-0.99029541015625,-0.17999267578125
1759488507349,619940729,3229,26,-0.033203125,-1.00201416015625,-0.12335205078125
1759488507349,619940729,3229,27,-0.036865234375,-0.99664306640625,-0.14752197265625
1759488507349,619940729,3229,28,-0.044189453125,-1.00787353515625,-0.15850830078125
1759488507349,619940729,3229,29,-0.045166015625,-0.99298095703125,-0.15338134765625
1759488507349,619940729,3229,30,-0.042236328125,-1.00225830078125,-0.17095947265625
1759488507349,619940729,3229,31,-0.04296875,-0.98834228515625,-0.15802001953125
1759488509884,619943290,3230,0,-0.051025390625,-1.00933837890625,-0.14166259765625
1759488509884,619943290,3230,1,-0.054443359375,-0.98443603515625,-0.13946533203125
1759488509884,619943290,3230,2,-0.02978515625,-0.98883056640625,-0.19708251953125
1759488509884,619943290,3230,3,-0.04541015625,-1.00933837890625,-0.19830322265625
1759488509884,619943290,3230,4,-0.043212890625,-0.99444580078125,-0.14190673828125
1759488509884,619943290,3230,5,-0.02783203125,-0.98834228515625,-0.19024658203125
1759488509884,619943290,3230,6,-0.047607421875,-0.99786376953125,-0.17633056640625
1759488509884,619943290,3230,7,-0.03515625,-0.99517822265625,-0.16827392578125
1759488509884,619943290,3230,8,-0.037841796875,-0.99688720703125,-0.17755126953125
1759488509884,619943290,3230,9,-0.044921875,-0.99273681640625,-0.18487548828125
1759488509884,619943290,3230,10,-0.039306640625,-0.98614501953125,-0.18316650390625
1759488509884,619943290,3230,11,-0.045166015625,-1.00396728515625,-0.16876220703125
1759488509884,619943290,3230,12,-0.046142578125,-0.99517822265625,-0.17193603515625
1759488509884,619943290,3230,13,-0.0361328125,-0.98785400390625,-0.19317626953125
1759488509884,619943290,3230,14,-0.03564453125,-0.99688720703125,-0.17755126953125
1759488509884,619943290,3230,15,-0.03955078125,-0.99298095703125,-0.17193603515625
1759488509884,619943290,3230,16,-0.0380859375,-1.00909423828125,-0.19024658203125
1759488509884,619943290,3230,17,-0.07080078125,-1.01397705078125,-0.14556884765625
1759488509884,619943290,3230,18,-0.035888671875,-0.98614501953125,-0.15802001953125
1759488509884,619943290,3230,19,-0.052490234375,-0.97369384765625,-0.14093017578125
1759488509884,619943290,3230,20,-0.025146484375,-1.00543212890625,-0.19976806640625
1759488509884,619943290,3230,21,-0.052978515625,-1.00445556640625,-0.19610595703125
1759488509884,619943290,3230,22,-0.051513671875,-1.00787353515625,-0.12823486328125
1759488509884,619943290,3230,23,-0.019775390625,-0.98492431640625,-0.18023681640625
1759488509884,619943290,3230,24,-0.05224609375,-1.00128173828125,-0.18731689453125
1759488509884,619943290,3230,25,-0.046142578125,-1.00250244140625,-0.16168212890625
1759488509884,619943290,3230,26,-0.04443359375,-0.99053955078125,-0.14019775390625
1759488509884,619943290,3230,27,-0.057861328125,-1.00543212890625,-0.13555908203125
1759488509884,619943290,3230,28,-0.06396484375,-1.00299072265625,-0.16632080078125
1759488509884,619943290,3230,29,-0.0390625,-0.98760986328125,-0.16168212890625
1759488509884,619943290,3230,30,-0.050048828125,-1.00079345703125,-0.15826416015625
1759488509884,619943290,3230,31,-0.0478515625,-1.01690673828125,-0.14801025390625
1759488512614,619945851,3231,0,-0.03466796875,-0.98419189453125,-0.14044189453125
1759488512614,619945851,3231,1,-0.06640625,-0.99395751953125,-0.13995361328125
1759488512614,619945851,3231,2,-0.07080078125,-1.02301025390625,-0.12921142578125
1759488512614,619945851,3231,3,-0.057861328125,-0.98614501953125,-0.14825439453125
1759488512614,619945851,3231,4,-0.046875,-0.99566650390625,-0.15362548828125
1759488512614,619945851,3231,5,-0.042236328125,-1.00299072265625,-0.16558837890625
1759488512614,619945851,3231,6,-0.06591796875,-1.00885009765625,-0.12799072265625
1759488512614,619945851,3231,7,-0.06787109375,-1.00543212890625,-0.11676025390625
1759488512614,619945851,3231,8,-0.0673828125,-0.99884033203125,-0.14166259765625
1759488512614,619945851,3231,9,-0.0576171875,-0.97515869140625,-0.16680908203125
1759488512614,619945851,3231,10,-0.0712890625,-0.98907470703125,-0.13873291015625
1759488512614,619945851,3231,11,-0.060302734375,-1.00494384765625,-0.18951416015625
1759488512614,619945851,3231,12,-0.073974609375,-1.01763916015625,-0.15899658203125
1759488512614,619945851,3231,13,-0.06494140625,-0.98248291015625,-0.15802001953125
1759488512614,619945851,3231,14,-0.05029296875,-0.98785400390625,-0.19049072265625
1759488512614,619945851,3231,15,-0.05224609375,-0.99737548828125,-0.17462158203125
1759488512614,619945851,3231,16,-0.060302734375,-0.99761962890625,-0.15875244140625
1759488512614,619945851,3231,17,-0.077880859375,-1.01055908203125,-0.12701416015625
1759488512614,619945851,3231,18,-0.060791015625,-1.00518798828125,-0.19146728515625
1759488512614,619945851,3231,19,-0.05712890625,-0.98809814453125,-0.17657470703125
1759488512614,619945851,3231,20,-0.052734375,-0.98077392578125,-0.17803955078125
1759488512614,619945851,3231,21,-0.056640625,-0.99639892578125,-0.12481689453125
1759488512614,619945851,3231,22,-0.055908203125,-1.01007080078125,-0.19097900390625
1759488512614,619945851,3231,23,-0.07421875,-1.00909423828125,-0.16680908203125
1759488512614,619945851,3231,24,-0.067138671875,-0.98638916015625,-0.18194580078125
1759488512614,619945851,3231,25,-0.05859375,-0.98663330078125,-0.16290283203125
1759488512614,619945851,3231,26,-0.05029296875,-0.99395751953125,-0.19073486328125
1759488512614,619945851,3231,27,-0.056396484375,-0.99835205078125,-0.14508056640625
1759488512614,619945851,3231,28,-0.070068359375,-1.00030517578125,-0.17559814453125
1759488512614,619945851,3231,29,-0.067138671875,-1.02496337890625,-0.24664306640625
1759488512614,619945851,3231,30,-0.091552734375,-0.99224853515625,-0.05621337890625
1759488512614,619945851,3231,31,-0.0634765625,-0.96051025390625,-0.15240478515625
1759488514954,619948412,3232,0,-0.0712890625,-0.99176025390625,-0.16119384765625
1759488514954,619948412,3232,1,-0.04345703125,-1.00689697265625,-0.23101806640625
1759488514954,619948412,3232,2,-0.065673828125,-1.00811767578125,-0.17437744140625
1759488514954,619948412,3232,3,-0.06884765625,-1.00250244140625,-0.17510986328125
1759488514954,619948412,3232,4,-0.058349609375,-0.98199462890625,-0.17950439453125
1759488514954,619948412,3232,5,-0.052490234375,-0.99322509765625,-0.19781494140625
1759488514954,619948412,3232,6,-0.063232421875,-0.99468994140625,-0.15753173828125
1759488514954,619948412,3232,7,-0.07275390625,-1.01470947265625,-0.14483642578125
1759488514954,619948412,3232,8,-0.06640625,-0.99468994140625,-0.20855712890625
1759488514954,619948412,3232,9,-0.05126953125,-0.99151611328125,-0.16680908203125
1759488514954,619948412,3232,10,-0.04736328125,-0.97906494140625,-0.22760009765625
1759488514954,619948412,3232,11,-0.063720703125,-0.99810791015625,-0.14776611328125
1759488514954,619948412,3232,12,-0.0576171875,-1.01153564453125,-0.18316650390625
1759488514954,619948412,3232,13,-0.057373046875,-0.99273681640625,-0.16510009765625
1759488514954,619948412,3232,14,-0.06005859375,-1.00201416015625,-0.17022705078125
1759488514954,619948412,3232,15,-0.056640625,-0.98907470703125,-0.16119384765625
1759488514954,619948412,3232,16,-0.063720703125,-0.99249267578125,-0.16680908203125
1759488514954,619948412,3232,17,-0.06494140625,-1.00543212890625,-0.17999267578125
1759488514954,619948412,3232,18,-0.06982421875,-1.00103759765625,-0.16339111328125
1759488514954,619948412,3232,19,-0.06591796875,-0.99859619140625,-0.20513916015625
1759488514954,619948412,3232,20,-0.079833984375,-0.99395751953125,-0.14190673828125
1759488514954,619948412,3232,21,-0.068359375,-0.98272705078125,-0.16265869140625
1759488514954,619948412,3232,22,-0.0693359375,-1.00885009765625,-0.18170166015625
1759488514954,619948412,3232,23,-0.06591796875,-0.99591064453125,-0.19415283203125
1759488514954,619948412,3232,24,-0.070068359375,-0.98248291015625,-0.18145751953125
1759488514954,619948412,3232,25,-0.080322265625,-0.98785400390625,-0.16973876953125
1759488514954,619948412,3232,26,-0.081787109375,-0.98297119140625,-0.15484619140625
1759488514954,619948412,3232,27,-0.0478515625,-0.99688720703125,-0.24664306640625
1759488514954,619948412,3232,28,-0.0634765625,-1.02203369140625,-0.20416259765625
1759488514954,619948412,3232,29,-0.06689453125,-0.99176025390625,-0.19122314453125
1759488514954,619948412,3232,30,-0.0654296875,-0.98004150390625,-0.20440673828125
1759488514954,619948412,3232,31,-0.058349609375,-0.99468994140625,-0.22296142578125
1759488517489,619950974,3233,0,-0.0537109375,-0.99420166015625,-0.18023681640625
1759488517489,619950974,3233,1,-0.0615234375,-0.99664306640625,-0.19805908203125
1759488517489,619950974,3233,2,-0.07177734375,-1.00445556640625,-0.18951416015625
1759488517489,619950974,3233,3,-0.052001953125,-0.98541259765625,-0.19537353515625
1759488517489,619950974,3233,4,-0.053955078125,-0.98858642578125,-0.20123291015625
1759488517489,619950974,3233,5,-0.057861328125,-0.99468994140625,-0.19903564453125
1759488517489,619950974,3233,6,-0.060302734375,-0.99420166015625,-0.19293212890625
1759488517489,619950974,3233,7,-0.0654296875,-0.99664306640625,-0.17047119140625
1759488517489,619950974,3233,8,-0.063232421875,-1.00616455078125,-0.19781494140625
1759488517489,619950974,3233,9,-0.05322265625,-0.98419189453125,-0.19000244140625
1759488517489,619950974,3233,10,-0.052001953125,-0.98590087890625,-0.16510009765625
1759488517489,619950974,3233,11,-0.05419921875,-0.99420166015625,-0.21075439453125
1759488517489,619950974,3233,12,-0.056396484375,-1.01177978515625,-0.21075439453125
1759488517489,619950974,3233,13,-0.060546875,-0.99078369140625,-0.16192626953125
1759488517489,619950974,3233,14,-0.043212890625,-0.98126220703125,-0.19854736328125
1759488517489,619950974,3233,15,-0.07373046875,-1.00347900390625,-0.14923095703125
1759488517489,619950974,3233,16,-0.044921875,-0.97833251953125,-0.19146728515625
1759488517489,619950974,3233,17,-0.0546875,-1.02130126953125,-0.20147705078125
1759488517489,619950974,3233,18,-0.066650390625,-0.98907470703125,-0.17608642578125
1759488517489,619950974,3233,19,-0.070068359375,-0.98858642578125,-0.20147705078125
1759488517489,619950974,3233,20,-0.061279296875,-0.98516845703125,-0.17559814453125
1759488517489,619950974,3233,21,-0.064453125,-0.98614501953125,-0.14508056640625
1759488517489,619950974,3233,22,-0.0546875,-1.01251220703125,-0.17218017578125
1759488517489,619950974,3233,23,-0.04248046875,-1.01519775390625,-0.17047119140625
1759488517489,619950974,3233,24,-0.055908203125,-0.99591064453125,-0.24078369140625
1759488517489,619950974,3233,25,-0.066650390625,-0.97369384765625,-0.15313720703125
1759488517489,619950974,3233,26,-0.0615234375,-0.97833251953125,-0.14263916015625
1759488517489,619950974,3233,27,-0.0537109375,-1.00543212890625,-0.19024658203125
1759488517489,619950974,3233,28,-0.049072265625,-1.01690673828125,-0.17266845703125
1759488517489,619950974,3233,29,-0.05029296875,-0.98199462890625,-0.16827392578125
1759488517489,619950974,3233,30,-0.062744140625,-1.00250244140625,-0.17828369140625
1759488517489,619950974,3233,31,-0.052978515625,-0.99786376953125,-0.15509033203125
1759488520216,619953535,3234,0,-0.058349609375,-0.99566650390625,-0.17706298828125
1759488520216,619953535,3234,1,-0.06494140625,-0.99957275390625,-0.19757080078125
1759488520216,619953535,3234,2,-0.049072265625,-0.98858642578125,-0.17218017578125
1759488520216,619953535,3234,3,-0.0751953125,-1.00836181640625,-0.14630126953125
1759488520216,619953535,3234,4,-0.072998046875,-1.00787353515625,-0.12921142578125
1759488520216,619953535,3234,5,-0.07763671875,-0.96124267578125,-0.14141845703125
1759488520216,619953535,3234,6,-0.048583984375,-0.98858642578125,-0.17730712890625
1759488520216,619953535,3234,7,-0.043212890625,-1.00640869140625,-0.21417236328125
1759488520216,619953535,3234,8,-0.07421875,-1.03228759765625,-0.15264892578125
1759488520216,619953535,3234,9,-0.0576171875,-0.97735595703125,-0.17120361328125
1759488520216,619953535,3234,10,-0.051025390625,-0.97515869140625,-0.18658447265625
1759488520216,619953535,3234,11,-0.058349609375,-1.00689697265625,-0.16339111328125
1759488520216,619953535,3234,12,-0.06005859375,-1.00152587890625,-0.13531494140625
1759488520216,619953535,3234,13,-0.071533203125,-1.00592041015625,-0.13677978515625
1759488520216,619953535,3234,14,-0.067138671875,-1.00616455078125,-0.17266845703125
1759488520216,619953535,3234,15,-0.0556640625,-0.97955322265625,-0.17169189453125
1759488520216,619953535,3234,16,-0.060546875,-0.98736572265625,-0.17022705078125
1759488520216,619953535,3234,17,-0.072509765625,-1.01495361328125,-0.13336181640625
1759488520216,619953535,3234,18,-0.07080078125,-1.00714111328125,-0.14752197265625
1759488520216,619953535,3234,19,-0.06298828125,-0.99761962890625,-0.16705322265625
1759488520216,619953535,3234,20,-0.056884765625,-0.98883056640625,-0.17388916015625
1759488520216,619953535,3234,21,-0.06005859375,-0.98883056640625,-0.17510986328125
1759488520216,619953535,3234,22,-0.064697265625,-0.99468994140625,-0.17803955078125
1759488520216,619953535,3234,23,-0.072265625,-1.00543212890625,-0.14215087890625
1759488520216,619953535,3234,24,-0.05859375,-1.01690673828125,-0.14361572265625
1759488520216,619953535,3234,25,-0.065185546875,-1.00494384765625,-0.19561767578125
1759488520216,619953535,3234,26,-0.075439453125,-0.96783447265625,-0.11016845703125
1759488520216,619953535,3234,27,-0.091552734375,-0.97052001953125,-0.08575439453125
1759488520216,619953535,3234,28,-0.03662109375,-1.03692626953125,-0.17047119140625
1759488520216,619953535,3234,29,-0.083251953125,-1.00885009765625,-0.19097900390625
1759488520216,619953535,3234,30,-0.064697265625,-0.99200439453125,-0.15924072265625
1759488520216,619953535,3234,31,-0.05419921875,-0.97784423828125,-0.19415283203125
1759488522949,619956096,3235,0,-0.061767578125,-0.98760986328125,-0.16363525390625
1759488522949,619956096,3235,1,-0.06689453125,-1.00714111328125,-0.15435791015625
1759488522949,619956096,3235,2,-0.080078125,-1.01373291015625,-0.12432861328125
1759488522949,619956096,3235,3,-0.0703125,-0.99932861328125,-0.16851806640625
1759488522949,619956096,3235,4,-0.069580078125,-0.98223876953125,-0.18731689453125
1759488522949,619956096,3235,5,-0.06591796875,-0.99298095703125,-0.16949462890625
1759488522949,619956096,3235,6,-0.071044921875,-1.00006103515625,-0.16802978515625
1759488522949,619956096,3235,7,-0.084228515625,-0.99322509765625,-0.13897705078125
1759488522949,619956096,3235,8,-0.073974609375,-1.01519775390625,-0.17462158203125
1759488522949,619956096,3235,9,-0.0693359375,-0.98931884765625,-0.18218994140625
1759488522949,619956096,3235,10,-0.069091796875,-0.98077392578125,-0.19927978515625
1759488522949,619956096,3235,11,-0.078369140625,-1.00347900390625,-0.14093017578125
1759488522949,619956096,3235,12,-0.071044921875,-0.99517822265625,-0.18316650390625
1759488522949,619956096,3235,13,-0.081298828125,-0.99176025390625,-0.17413330078125
1759488522949,619956096,3235,14,-0.0673828125,-0.99591064453125,-0.20294189453125
1759488522949,619956096,3235,15,-0.06591796875,-1.00274658203125,-0.18682861328125
1759488522949,619956096,3235,16,-0.0625,-1.00274658203125,-0.16632080078125
1759488522949,619956096,3235,17,-0.07763671875,-0.98614501953125,-0.13629150390625
1759488522949,619956096,3235,18,-0.090087890625,-1.00128173828125,-0.16387939453125
1759488522949,619956096,3235,19,-0.084228515625,-1.00372314453125,-0.15753173828125
1759488522949,619956096,3235,20,-0.073974609375,-0.96392822265625,-0.15484619140625
1759488522949,619956096,3235,21,-0.060546875,-0.99273681640625,-0.21466064453125
1759488522949,619956096,3235,22,-0.08154296875,-1.01519775390625,-0.20050048828125
1759488522949,619956096,3235,23,-0.07421875,-1.00762939453125,-0.16192626953125
1759488522949,619956096,3235,24,-0.056640625,-0.98004150390625,-0.20684814453125
1759488522949,619956096,3235,25,-0.06689453125,-0.99102783203125,-0.18560791015625
1759488522949,619956096,3235,26,-0.07177734375,-1.00323486328125,-0.18585205078125
1759488522949,619956096,3235,27,-0.07275390625,-0.98443603515625,-0.18829345703125
1759488522949,619956096,3235,28,-0.068359375,-0.97833251953125,-0.20660400390625
1759488522949,619956096,3235,29,-0.075439453125,-1.01031494140625,-0.18756103515625
1759488522949,619956096,3235,30,-0.068359375,-1.00885009765625,-0.17340087890625
1759488522949,619956096,3235,31,-0.06640625,-0.98248291015625,-0.20343017578125
1759488525289,619958657,3236,0,-0.06787109375,-0.98321533203125,-0.21343994140625
1759488525289,619958657,3236,1,-0.0703125,-0.98931884765625,-0.18463134765625
1759488525289,619958657,3236,2,-0.087158203125,-0.99957275390625,-0.16217041015625
1759488525289,619958657,3236,3,-0.080322265625,-1.01495361328125,-0.15533447265625
1759488525289,619958657,3236,4,-0.06494140625,-0.98590087890625,-0.22198486328125
1759488525289,619958657,3236,5,-0.060302734375,-0.97662353515625,-0.23956298828125
1759488525289,619958657,3236,6,-0.059814453125,-0.98638916015625,-0.18902587890625
1759488525289,619958657,3236,7,-0.083984375,-0.98931884765625,-0.16607666015625
1759488525289,619958657,3236,8,-0.06396484375,-1.01104736328125,-0.18463134765625
1759488525289,619958657,3236,9,-0.086181640625,-1.00347900390625,-0.20709228515625
1759488525289,619958657,3236,10,-0.0810546875,-0.99957275390625,-0.19488525390625
1759488525289,619958657,3236,11,-0.077392578125,-0.97100830078125,-0.16607666015625
1759488525289,619958657,3236,12,-0.0615234375,-0.98101806640625,-0.21392822265625
1759488525289,619958657,3236,13,-0.071533203125,-1.00811767578125,-0.17413330078125
1759488525289,619958657,3236,14,-0.0859375,-0.99224853515625,-0.18487548828125
1759488525289,619958657,3236,15,-0.08740234375,-1.02178955078125,-0.18145751953125
1759488525289,619958657,3236,16,-0.072998046875,-0.98760986328125,-0.20855712890625
1759488525289,619958657,3236,17,-0.065185546875,-0.97198486328125,-0.19610595703125
1759488525289,619958657,3236,18,-0.062744140625,-0.98223876953125,-0.17681884765625
1759488525289,619958657,3236,19,-0.072998046875,-1.00201416015625,-0.15777587890625
1759488525289,619958657,3236,20,-0.08642578125,-1.00347900390625,-0.18658447265625
1759488525289,619958657,3236,21,-0.069091796875,-1.00323486328125,-0.17974853515625
1759488525289,619958657,3236,22,-0.0673828125,-0.99249267578125,-0.17510986328125
1759488525289,619958657,3236,23,-0.0615234375,-0.99176025390625,-0.18438720703125
1759488525289,619958657,3236,24,-0.072021484375,-0.99615478515625,-0.19439697265625
1759488525289,619958657,3236,25,-0.072265625,-0.99591064453125,-0.19317626953125
1759488525289,619958657,3236,26,-0.08203125,-0.99713134765625,-0.17169189453125
1759488525289,619958657,3236,27,-0.0771484375,-0.98931884765625,-0.19293212890625
1759488525289,619958657,3236,28,-0.08544921875,-0.99835205078125,-0.15167236328125
1759488525289,619958657,3236,29,-0.07568359375,-1.00836181640625,-0.16656494140625
1759488525289,619958657,3236,30,-0.0908203125,-0.96710205078125,-0.16021728515625
1759488525289,619958657,3236,31,-0.068115234375,-0.99127197265625,-0.19781494140625
1759488527824,619961218,3237,0,-0.079345703125,-0.98883056640625,-0.21539306640625
1759488527824,619961218,3237,1,-0.0810546875,-1.02056884765625,-0.17462158203125
1759488527824,619961218,3237,2,-0.066650390625,-0.98223876953125,-0.18463134765625
1759488527824,619961218,3237,3,-0.080078125,-0.98590087890625,-0.20465087890625
1759488527824,619961218,3237,4,-0.076904296875,-0.99298095703125,-0.20758056640625
1759488527824,619961218,3237,5,-0.07666015625,-0.98980712890625,-0.15582275390625
1759488527824,619961218,3237,6,-0.08203125,-1.00616455078125,-0.17828369140625
1759488527824,619961218,3237,7,-0.080322265625,-1.00616455078125,-0.18853759765625
1759488527824,619961218,3237,8,-0.072265625,-0.97857666015625,-0.18902587890625
1759488527824,619961218,3237,9,-0.0712890625,-0.98980712890625,-0.19610595703125
1759488527824,619961218,3237,10,-0.084228515625,-0.99786376953125,-0.17242431640625
1759488527824,619961218,3237,11,-0.08642578125,-0.99468994140625,-0.17755126953125
1759488527824,619961218,3237,12,-0.080322265625,-1.00103759765625,-0.16925048828125
1759488527824,619961218,3237,13,-0.077392578125,-0.99859619140625,-0.18878173828125
1759488527824,619961218,3237,14,-0.067626953125,-0.98516845703125,-0.18804931640625
1759488527824,619961218,3237,15,-0.07275390625,-0.98663330078125,-0.20050048828125
1759488527824,619961218,3237,16,-0.080078125,-0.99566650390625,-0.18731689453125
1759488527824,619961218,3237,17,-0.08740234375,-0.99737548828125,-0.17608642578125
1759488527824,619961218,3237,18,-0.0810546875,-0.99639892578125,-0.18585205078125
1759488527824,619961218,3237,19,-0.072021484375,-0.99176025390625,-0.19049072265625
1759488527824,619961218,3237,20,-0.07470703125,-1.00738525390625,-0.16583251953125
1759488527824,619961218,3237,21,-0.07470703125,-0.99322509765625,-0.19512939453125
1759488527824,619961218,3237,22,-0.072021484375,-0.98370361328125,-0.19439697265625
1759488527824,619961218,3237,23,-0.064208984375,-0.99176025390625,-0.19732666015625
1759488527824,619961218,3237,24,-0.073486328125,-0.99249267578125,-0.16802978515625
1759488527824,619961218,3237,25,-0.08056640625,-0.99322509765625,-0.17169189453125
1759488527824,619961218,3237,26,-0.0888671875,-1.02032470703125,-0.13482666015625
1759488527824,619961218,3237,27,-0.07421875,-0.98858642578125,-0.18853759765625
1759488527824,619961218,3237,28,-0.053955078125,-0.98883056640625,-0.19488525390625
1759488527824,619961218,3237,29,-0.060546875,-0.98956298828125,-0.18707275390625
1759488527824,619961218,3237,30,-0.072021484375,-0.99078369140625,-0.15582275390625
1759488527824,619961218,3237,31,-0.079833984375,-1.00982666015625,-0.15924072265625
1759488530366,619963779,3238,0,-0.0869140625,-1.00518798828125,-0.14337158203125
1759488530366,619963779,3238,1,-0.07177734375,-0.99005126953125,-0.14874267578125
1759488530366,619963779,3238,2,-0.068359375,-0.99542236328125,-0.17120361328125
1759488530366,619963779,3238,3,-0.083740234375,-0.99591064453125,-0.11773681640625
