receivedPhoneTimestamp,respeckTimestamp,packetSeqNum,sampleSeqNum,accelX,accelY,accelZ
1688370082438,15074010,5701,30,-0.223876953125,-0.99371337890625,-0.09503173828125
1688370082438,15074010,5701,31,-0.225341796875,-0.98541259765625,-0.08673095703125
1688370084782,15076590,5702,0,-0.22412109375,-0.99542236328125,-0.09356689453125
1688370084782,15076590,5702,1,-0.21923828125,-0.99664306640625,-0.09356689453125
1688370084782,15076590,5702,2,-0.219482421875,-0.99273681640625,-0.09112548828125
1688370084782,15076590,5702,3,-0.2236328125,-0.99517822265625,-0.08551025390625
1688370084782,15076590,5702,4,-0.22705078125,-0.99371337890625,-0.08673095703125
1688370084782,15076590,5702,5,-0.21875,-0.99566650390625,-0.08282470703125
1688370084782,15076590,5702,6,-0.214599609375,-1.00054931640625,-0.09527587890625
1688370084782,15076590,5702,7,-0.221923828125,-0.99761962890625,-0.08306884765625
1688370084782,15076590,5702,8,-0.211669921875,-0.99664306640625,-0.08868408203125
1688370084782,15076590,5702,9,-0.216064453125,-0.99761962890625,-0.09625244140625
1688370084782,15076590,5702,10,-0.2001953125,-0.98516845703125,-0.08013916015625
1688370084782,15076590,5702,11,-0.21875,-0.99713134765625,-0.08111572265625
1688370084782,15076590,5702,12,-0.214599609375,-1.00469970703125,-0.08697509765625
1688370084782,15076590,5702,13,-0.21240234375,-0.99884033203125,-0.08331298828125
1688370084782,15076590,5702,14,-0.2197265625,-0.99737548828125,-0.07037353515625
1688370084782,15076590,5702,15,-0.219970703125,-1.00421142578125,-0.08428955078125
1688370084782,15076590,5702,16,-0.225341796875,-0.99713134765625,-0.09747314453125
1688370084782,15076590,5702,17,-0.240234375,-0.97027587890625,-0.08477783203125
1688370084782,15076590,5702,18,-0.23974609375,-0.98687744140625,-0.11090087890625
1688370084782,15076590,5702,19,-0.23046875,-0.99224853515625,-0.09063720703125
1688370084782,15076590,5702,20,-0.217529296875,-1.00787353515625,-0.09893798828125
1688370084782,15076590,5702,21,-0.23486328125,-0.99224853515625,-0.09210205078125
1688370084782,15076590,5702,22,-0.227783203125,-0.99151611328125,-0.08282470703125
1688370084782,15076590,5702,23,-0.228515625,-0.99395751953125,-0.08599853515625
1688370084782,15076590,5702,24,-0.22509765625,-0.99639892578125,-0.09576416015625
1688370084782,15076590,5702,25,-0.21533203125,-0.99273681640625,-0.09307861328125
1688370084782,15076590,5702,26,-0.220458984375,-0.99249267578125,-0.08624267578125
1688370084782,15076590,5702,27,-0.22021484375,-0.99395751953125,-0.09259033203125
1688370084782,15076590,5702,28,-0.219482421875,-0.99615478515625,-0.09332275390625
1688370084782,15076590,5702,29,-0.222412109375,-0.99395751953125,-0.09210205078125
1688370084782,15076590,5702,30,-0.22705078125,-0.99664306640625,-0.08917236328125
1688370084782,15076590,5702,31,-0.219482421875,-0.99151611328125,-0.08892822265625
1688370087317,15079169,5703,0,-0.221923828125,-0.99591064453125,-0.09429931640625
1688370087317,15079169,5703,1,-0.22607421875,-0.99493408203125,-0.08819580078125
1688370087317,15079169,5703,2,-0.2216796875,-0.99420166015625,-0.09112548828125
1688370087317,15079169,5703,3,-0.2216796875,-0.99639892578125,-0.08721923828125
1688370087317,15079169,5703,4,-0.2216796875,-0.99151611328125,-0.08380126953125
1688370087317,15079169,5703,5,-0.22216796875,-0.99591064453125,-0.09381103515625
1688370087317,15079169,5703,6,-0.21630859375,-0.99053955078125,-0.08135986328125
1688370087317,15079169,5703,7,-0.22265625,-0.99932861328125,-0.07745361328125
1688370087317,15079169,5703,8,-0.19287109375,-0.99493408203125,-0.10260009765625
1688370087317,15079169,5703,9,-0.2080078125,-0.99200439453125,-0.09234619140625
1688370087317,15079169,5703,10,-0.205078125,-1.00421142578125,-0.08721923828125
1688370087317,15079169,5703,11,-0.209716796875,-0.99615478515625,-0.07452392578125
1688370087317,15079169,5703,12,-0.2060546875,-0.99981689453125,-0.07720947265625
1688370087317,15079169,5703,13,-0.197998046875,-0.99761962890625,-0.08087158203125
1688370087317,15079169,5703,14,-0.21044921875,-0.99468994140625,-0.08917236328125
1688370087317,15079169,5703,15,-0.20947265625,-0.99713134765625,-0.08209228515625
1688370087317,15079169,5703,16,-0.216064453125,-0.99517822265625,-0.07916259765625
1688370087317,15079169,5703,17,-0.21435546875,-0.99444580078125,-0.08551025390625
1688370087317,15079169,5703,18,-0.219482421875,-0.99493408203125,-0.07867431640625
1688370087317,15079169,5703,19,-0.225341796875,-0.99249267578125,-0.06890869140625
1688370087317,15079169,5703,20,-0.224365234375,-0.99468994140625,-0.07379150390625
1688370087317,15079169,5703,21,-0.221435546875,-0.99786376953125,-0.07305908203125
1688370087317,15079169,5703,22,-0.2236328125,-0.99420166015625,-0.07330322265625
1688370087317,15079169,5703,23,-0.2236328125,-0.99542236328125,-0.07305908203125
1688370087317,15079169,5703,24,-0.22314453125,-0.99420166015625,-0.07354736328125
1688370087317,15079169,5703,25,-0.224365234375,-0.99468994140625,-0.07574462890625
1688370087317,15079169,5703,26,-0.221923828125,-0.99688720703125,-0.07257080078125
1688370087317,15079169,5703,27,-0.2197265625,-0.99420166015625,-0.07110595703125
1688370087317,15079169,5703,28,-0.22216796875,-0.99371337890625,-0.07550048828125
1688370087317,15079169,5703,29,-0.220947265625,-0.99664306640625,-0.07159423828125
1688370087317,15079169,5703,30,-0.21923828125,-0.99566650390625,-0.06597900390625
1688370087317,15079169,5703,31,-0.221435546875,-0.99468994140625,-0.06817626953125
1688370089853,15081748,5704,0,-0.221923828125,-0.99444580078125,-0.06964111328125
1688370089853,15081748,5704,1,-0.222412109375,-0.99493408203125,-0.06451416015625
1688370089853,15081748,5704,2,-0.22705078125,-0.98687744140625,-0.06036376953125
1688370089853,15081748,5704,3,-0.2197265625,-1.00909423828125,-0.04962158203125
1688370089853,15081748,5704,4,-0.224609375,-0.99468994140625,-0.04864501953125
1688370089853,15081748,5704,5,-0.223388671875,-0.99395751953125,-0.05084228515625
1688370089853,15081748,5704,6,-0.22021484375,-0.99884033203125,-0.04132080078125
1688370089853,15081748,5704,7,-0.2255859375,-0.99688720703125,-0.04083251953125
1688370089853,15081748,5704,8,-0.224609375,-0.99468994140625,-0.04449462890625
1688370089853,15081748,5704,9,-0.224365234375,-0.99517822265625,-0.04302978515625
1688370089853,15081748,5704,10,-0.22265625,-0.99346923828125,-0.04254150390625
1688370089853,15081748,5704,11,-0.22314453125,-0.99468994140625,-0.04473876953125
1688370089853,15081748,5704,12,-0.22265625,-0.99395751953125,-0.04205322265625
1688370089853,15081748,5704,13,-0.220458984375,-0.99468994140625,-0.04156494140625
1688370089853,15081748,5704,14,-0.222412109375,-0.99493408203125,-0.03863525390625
1688370089853,15081748,5704,15,-0.22314453125,-0.99468994140625,-0.03961181640625
1688370089853,15081748,5704,16,-0.223388671875,-1.00567626953125,-0.04400634765625
1688370089853,15081748,5704,17,-0.22314453125,-0.99371337890625,-0.06549072265625
1688370089853,15081748,5704,18,-0.222900390625,-0.99029541015625,-0.07012939453125
1688370089853,15081748,5704,19,-0.223876953125,-0.98370361328125,-0.06768798828125
1688370089853,15081748,5704,20,-0.21630859375,-0.99957275390625,-0.07330322265625
1688370089853,15081748,5704,21,-0.213134765625,-0.99957275390625,-0.07427978515625
1688370089853,15081748,5704,22,-0.217529296875,-0.99688720703125,-0.06158447265625
1688370089853,15081748,5704,23,-0.220947265625,-0.99200439453125,-0.05718994140625
1688370089853,15081748,5704,24,-0.21728515625,-0.99493408203125,-0.06646728515625
1688370089853,15081748,5704,25,-0.212646484375,-0.99688720703125,-0.06500244140625
1688370089853,15081748,5704,26,-0.2158203125,-0.99542236328125,-0.06842041015625
1688370089853,15081748,5704,27,-0.2119140625,-0.99737548828125,-0.07281494140625
1688370089853,15081748,5704,28,-0.216796875,-0.99322509765625,-0.06988525390625
1688370089853,15081748,5704,29,-0.2177734375,-0.99517822265625,-0.06890869140625
1688370089853,15081748,5704,30,-0.218505859375,-0.99371337890625,-0.07281494140625
1688370089853,15081748,5704,31,-0.216552734375,-0.99639892578125,-0.07257080078125
1688370092582,15084327,5705,0,-0.213623046875,-0.99835205078125,-0.07159423828125
1688370092582,15084327,5705,1,-0.213134765625,-0.99688720703125,-0.08331298828125
1688370092582,15084327,5705,2,-0.213623046875,-0.99468994140625,-0.08941650390625
1688370092582,15084327,5705,3,-0.2099609375,-0.99688720703125,-0.08966064453125
1688370092582,15084327,5705,4,-0.209228515625,-0.99346923828125,-0.09454345703125
1688370092582,15084327,5705,5,-0.205810546875,-0.99615478515625,-0.10675048828125
1688370092582,15084327,5705,6,-0.211181640625,-0.98883056640625,-0.09967041015625
1688370092582,15084327,5705,7,-0.21435546875,-0.98614501953125,-0.07305908203125
1688370092582,15084327,5705,8,-0.20458984375,-1.00006103515625,-0.09161376953125
1688370092582,15084327,5705,9,-0.211181640625,-1.00518798828125,-0.09161376953125
1688370092582,15084327,5705,10,-0.22607421875,-0.98760986328125,-0.07452392578125
1688370092582,15084327,5705,11,-0.222412109375,-0.99249267578125,-0.08038330078125
1688370092582,15084327,5705,12,-0.218017578125,-0.99810791015625,-0.08404541015625
1688370092582,15084327,5705,13,-0.2138671875,-0.99298095703125,-0.08404541015625
1688370092582,15084327,5705,14,-0.214599609375,-0.99786376953125,-0.08380126953125
1688370092582,15084327,5705,15,-0.21142578125,-0.99688720703125,-0.07720947265625
1688370092582,15084327,5705,16,-0.21044921875,-0.99664306640625,-0.08477783203125
1688370092582,15084327,5705,17,-0.216064453125,-0.99737548828125,-0.08477783203125
1688370092582,15084327,5705,18,-0.2109375,-0.99713134765625,-0.07794189453125
1688370092582,15084327,5705,19,-0.212158203125,-0.99371337890625,-0.08233642578125
1688370092582,15084327,5705,20,-0.2099609375,-0.99810791015625,-0.08209228515625
1688370092582,15084327,5705,21,-0.210693359375,-0.99932861328125,-0.08306884765625
1688370092582,15084327,5705,22,-0.216064453125,-0.99542236328125,-0.07135009765625
1688370092582,15084327,5705,23,-0.21533203125,-0.99688720703125,-0.08306884765625
1688370092582,15084327,5705,24,-0.2138671875,-1.00079345703125,-0.08306884765625
1688370092582,15084327,5705,25,-0.212646484375,-0.99639892578125,-0.07159423828125
1688370092582,15084327,5705,26,-0.218017578125,-0.99249267578125,-0.07354736328125
1688370092582,15084327,5705,27,-0.215576171875,-0.99468994140625,-0.06793212890625
1688370092582,15084327,5705,28,-0.21630859375,-0.99517822265625,-0.06256103515625
1688370092582,15084327,5705,29,-0.216064453125,-0.99615478515625,-0.06402587890625
1688370092582,15084327,5705,30,-0.214599609375,-0.99664306640625,-0.06646728515625
1688370092582,15084327,5705,31,-0.2138671875,-0.99298095703125,-0.05963134765625
1688370095118,15086906,5706,0,-0.21484375,-1.00006103515625,-0.06109619140625
1688370095118,15086906,5706,1,-0.215087890625,-0.99517822265625,-0.06036376953125
1688370095118,15086906,5706,2,-0.216064453125,-0.99591064453125,-0.05816650390625
1688370095118,15086906,5706,3,-0.21044921875,-0.99810791015625,-0.06011962890625
1688370095118,15086906,5706,4,-0.208740234375,-0.99810791015625,-0.06304931640625
1688370095118,15086906,5706,5,-0.212158203125,-0.99688720703125,-0.05694580078125
1688370095118,15086906,5706,6,-0.21533203125,-0.99420166015625,-0.05743408203125
1688370095118,15086906,5706,7,-0.210205078125,-0.99591064453125,-0.06085205078125
1688370095118,15086906,5706,8,-0.212890625,-0.99591064453125,-0.05865478515625
1688370095118,15086906,5706,9,-0.21240234375,-0.99591064453125,-0.05377197265625
1688370095118,15086906,5706,10,-0.21337890625,-0.99664306640625,-0.04815673828125
1688370095118,15086906,5706,11,-0.21728515625,-0.99542236328125,-0.05450439453125
1688370095118,15086906,5706,12,-0.214111328125,-0.99371337890625,-0.05474853515625
1688370095118,15086906,5706,13,-0.215087890625,-0.99810791015625,-0.05621337890625
1688370095118,15086906,5706,14,-0.21533203125,-0.99517822265625,-0.05279541015625
1688370095118,15086906,5706,15,-0.213623046875,-0.99542236328125,-0.05548095703125
1688370095118,15086906,5706,16,-0.214111328125,-1.00006103515625,-0.05181884765625
1688370095118,15086906,5706,17,-0.216552734375,-0.99981689453125,-0.05718994140625
1688370095118,15086906,5706,18,-0.21923828125,-0.99664306640625,-0.06622314453125
1688370095118,15086906,5706,19,-0.219482421875,-1.00177001953125,-0.08282470703125
1688370095118,15086906,5706,20,-0.191650390625,-0.98492431640625,-0.10333251953125
1688370095118,15086906,5706,21,-0.19921875,-0.98321533203125,-0.09307861328125
1688370095118,15086906,5706,22,-0.2080078125,-1.01300048828125,-0.08184814453125
1688370095118,15086906,5706,23,-0.200927734375,-0.99908447265625,-0.08966064453125
1688370095118,15086906,5706,24,-0.210205078125,-0.99664306640625,-0.08331298828125
1688370095118,15086906,5706,25,-0.2080078125,-0.99786376953125,-0.08355712890625
1688370095118,15086906,5706,26,-0.2099609375,-0.99688720703125,-0.08331298828125
1688370095118,15086906,5706,27,-0.211669921875,-0.99468994140625,-0.08380126953125
1688370095118,15086906,5706,28,-0.2119140625,-0.99371337890625,-0.07623291015625
1688370095118,15086906,5706,29,-0.21240234375,-0.99688720703125,-0.07720947265625
1688370095118,15086906,5706,30,-0.21337890625,-0.99468994140625,-0.08209228515625
1688370095118,15086906,5706,31,-0.2138671875,-0.99468994140625,-0.07745361328125
1688370097649,15089485,5707,0,-0.2138671875,-0.99591064453125,-0.07989501953125
1688370097649,15089485,5707,1,-0.215576171875,-0.99835205078125,-0.07452392578125
1688370097649,15089485,5707,2,-0.2158203125,-0.99151611328125,-0.06793212890625
1688370097649,15089485,5707,3,-0.21484375,-0.99615478515625,-0.07696533203125
1688370097649,15089485,5707,4,-0.211669921875,-0.99664306640625,-0.07208251953125
1688370097649,15089485,5707,5,-0.211181640625,-0.99542236328125,-0.07061767578125
1688370097649,15089485,5707,6,-0.212890625,-0.99835205078125,-0.07330322265625
1688370097649,15089485,5707,7,-0.2138671875,-0.99761962890625,-0.07012939453125
1688370097649,15089485,5707,8,-0.212646484375,-0.99737548828125,-0.06622314453125
1688370097649,15089485,5707,9,-0.21630859375,-0.99200439453125,-0.06597900390625
1688370097649,15089485,5707,10,-0.2109375,-1.00152587890625,-0.07476806640625
1688370097649,15089485,5707,11,-0.21044921875,-0.99786376953125,-0.07159423828125
1688370097649,15089485,5707,12,-0.210205078125,-0.99615478515625,-0.06817626953125
1688370097649,15089485,5707,13,-0.215576171875,-0.99395751953125,-0.06939697265625
1688370097649,15089485,5707,14,-0.2109375,-1.00054931640625,-0.06866455078125
1688370097649,15089485,5707,15,-0.20947265625,-0.99664306640625,-0.06646728515625
1688370097649,15089485,5707,16,-0.213134765625,-0.99664306640625,-0.06939697265625
1688370097649,15089485,5707,17,-0.21337890625,-0.99224853515625,-0.06744384765625
1688370097649,15089485,5707,18,-0.212646484375,-0.99542236328125,-0.07208251953125
1688370097649,15089485,5707,19,-0.211669921875,-1.00225830078125,-0.07232666015625
1688370097649,15089485,5707,20,-0.208984375,-0.99835205078125,-0.07330322265625
1688370097649,15089485,5707,21,-0.212158203125,-0.99151611328125,-0.06231689453125
1688370097649,15089485,5707,22,-0.2158203125,-0.99542236328125,-0.06085205078125
1688370097649,15089485,5707,23,-0.222900390625,-0.99957275390625,-0.06109619140625
1688370097649,15089485,5707,24,-0.21875,-0.99542236328125,-0.05865478515625
1688370097649,15089485,5707,25,-0.218505859375,-0.99761962890625,-0.05718994140625
1688370097649,15089485,5707,26,-0.21435546875,-0.99810791015625,-0.07183837890625
1688370097649,15089485,5707,27,-0.214599609375,-1.00640869140625,-0.07281494140625
1688370097649,15089485,5707,28,-0.2080078125,-0.99346923828125,-0.07525634765625
1688370097649,15089485,5707,29,-0.207763671875,-0.98516845703125,-0.08428955078125
1688370097649,15089485,5707,30,-0.203857421875,-0.98883056640625,-0.08013916015625
1688370097649,15089485,5707,31,-0.205322265625,-1.01251220703125,-0.07452392578125
1688370100187,15092064,5708,0,-0.205810546875,-0.99908447265625,-0.07672119140625
1688370100187,15092064,5708,1,-0.211669921875,-0.99468994140625,-0.06817626953125
1688370100187,15092064,5708,2,-0.222412109375,-0.99371337890625,-0.06402587890625
1688370100187,15092064,5708,3,-0.210205078125,-0.99786376953125,-0.06719970703125
1688370100187,15092064,5708,4,-0.20947265625,-0.99493408203125,-0.06475830078125
1688370100187,15092064,5708,5,-0.21435546875,-0.99591064453125,-0.06793212890625
1688370100187,15092064,5708,6,-0.211181640625,-0.99786376953125,-0.07598876953125
1688370100187,15092064,5708,7,-0.212646484375,-0.99224853515625,-0.06597900390625
1688370100187,15092064,5708,8,-0.21142578125,-0.99444580078125,-0.06890869140625
1688370100187,15092064,5708,9,-0.21337890625,-0.99859619140625,-0.07232666015625
1688370100187,15092064,5708,10,-0.211181640625,-0.99468994140625,-0.07501220703125
1688370100187,15092064,5708,11,-0.21435546875,-0.99542236328125,-0.07012939453125
1688370100187,15092064,5708,12,-0.214111328125,-0.99566650390625,-0.06890869140625
1688370100187,15092064,5708,13,-0.214599609375,-0.99639892578125,-0.07183837890625
1688370100187,15092064,5708,14,-0.21435546875,-0.99420166015625,-0.06671142578125
1688370100187,15092064,5708,15,-0.21728515625,-0.99615478515625,-0.06890869140625
1688370100187,15092064,5708,16,-0.21142578125,-0.99566650390625,-0.06915283203125
1688370100187,15092064,5708,17,-0.2109375,-0.99493408203125,-0.06866455078125
1688370100187,15092064,5708,18,-0.212158203125,-0.99957275390625,-0.06988525390625
1688370100187,15092064,5708,19,-0.21435546875,-0.99444580078125,-0.07208251953125
1688370100187,15092064,5708,20,-0.21484375,-0.99664306640625,-0.06793212890625
1688370100187,15092064,5708,21,-0.215087890625,-0.99444580078125,-0.06842041015625
1688370100187,15092064,5708,22,-0.21484375,-0.99615478515625,-0.06597900390625
1688370100187,15092064,5708,23,-0.214599609375,-0.99859619140625,-0.06646728515625
1688370100187,15092064,5708,24,-0.21826171875,-0.99346923828125,-0.06011962890625
1688370100187,15092064,5708,25,-0.220947265625,-0.99493408203125,-0.06475830078125
1688370100187,15092064,5708,26,-0.2099609375,-0.99591064453125,-0.06622314453125
1688370100187,15092064,5708,27,-0.2138671875,-0.99786376953125,-0.05743408203125
1688370100187,15092064,5708,28,-0.2177734375,-0.99444580078125,-0.06475830078125
1688370100187,15092064,5708,29,-0.222900390625,-0.99395751953125,-0.05743408203125
1688370100187,15092064,5708,30,-0.215087890625,-0.99713134765625,-0.05279541015625
1688370100187,15092064,5708,31,-0.211181640625,-0.99591064453125,-0.04962158203125
1688370103109,15094644,5709,0,-0.218017578125,-0.99688720703125,-0.04986572265625
1688370103109,15094644,5709,1,-0.21484375,-0.99713134765625,-0.04742431640625
1688370103109,15094644,5709,2,-0.215087890625,-0.99639892578125,-0.05035400390625
1688370103109,15094644,5709,3,-0.2119140625,-0.99688720703125,-0.05108642578125
1688370103109,15094644,5709,4,-0.21630859375,-0.99591064453125,-0.04620361328125
1688370103109,15094644,5709,5,-0.217041015625,-0.99688720703125,-0.04864501953125
1688370103109,15094644,5709,6,-0.2109375,-0.99835205078125,-0.05035400390625
1688370103109,15094644,5709,7,-0.212158203125,-0.99981689453125,-0.04913330078125
1688370103109,15094644,5709,8,-0.2138671875,-0.99224853515625,-0.04351806640625
1688370103109,15094644,5709,9,-0.221435546875,-0.99444580078125,-0.04913330078125
1688370103109,15094644,5709,10,-0.217041015625,-0.99615478515625,-0.04571533203125
1688370103109,15094644,5709,11,-0.21484375,-0.99468994140625,-0.04766845703125
1688370103109,15094644,5709,12,-0.218017578125,-0.99517822265625,-0.05010986328125
1688370103109,15094644,5709,13,-0.218017578125,-0.99542236328125,-0.04644775390625
1688370103109,15094644,5709,14,-0.225341796875,-0.99688720703125,-0.05157470703125
1688370103109,15094644,5709,15,-0.2216796875,-0.99566650390625,-0.05133056640625
1688370103109,15094644,5709,16,-0.21630859375,-0.99688720703125,-0.05841064453125
1688370103109,15094644,5709,17,-0.21630859375,-1.00616455078125,-0.06939697265625
1688370103109,15094644,5709,18,-0.21044921875,-0.99664306640625,-0.07843017578125
1688370103109,15094644,5709,19,-0.20849609375,-0.98126220703125,-0.07891845703125
1688370103109,15094644,5709,20,-0.206298828125,-0.98736572265625,-0.06842041015625
1688370103109,15094644,5709,21,-0.201904296875,-1.01007080078125,-0.07794189453125
1688370103109,15094644,5709,22,-0.205322265625,-1.00396728515625,-0.07696533203125
1688370103109,15094644,5709,23,-0.210205078125,-0.99566650390625,-0.06866455078125
1688370103109,15094644,5709,24,-0.21044921875,-0.99688720703125,-0.06768798828125
1688370103109,15094644,5709,25,-0.210693359375,-0.99298095703125,-0.07525634765625
1688370103109,15094644,5709,26,-0.209716796875,-0.99542236328125,-0.07305908203125
1688370103109,15094644,5709,27,-0.21533203125,-0.99591064453125,-0.07476806640625
1688370103109,15094644,5709,28,-0.2119140625,-0.99786376953125,-0.07647705078125
1688370103109,15094644,5709,29,-0.20849609375,-0.99737548828125,-0.07794189453125
1688370103109,15094644,5709,30,-0.211181640625,-0.99908447265625,-0.07330322265625
1688370103109,15094644,5709,31,-0.2080078125,-0.99615478515625,-0.07403564453125
1688370105449,15097223,5710,0,-0.209716796875,-0.99688720703125,-0.07379150390625
1688370105449,15097223,5710,1,-0.2041015625,-0.99908447265625,-0.07672119140625
1688370105449,15097223,5710,2,-0.20849609375,-0.99737548828125,-0.07281494140625
1688370105449,15097223,5710,3,-0.21337890625,-0.99493408203125,-0.07330322265625
1688370105449,15097223,5710,4,-0.21044921875,-0.99615478515625,-0.07745361328125
1688370105449,15097223,5710,5,-0.210205078125,-0.99786376953125,-0.07696533203125
1688370105449,15097223,5710,6,-0.210693359375,-0.99615478515625,-0.07574462890625
1688370105449,15097223,5710,7,-0.21435546875,-0.99444580078125,-0.08282470703125
1688370105449,15097223,5710,8,-0.215576171875,-0.99859619140625,-0.07110595703125
1688370105449,15097223,5710,9,-0.216796875,-0.99566650390625,-0.07208251953125
1688370105449,15097223,5710,10,-0.21728515625,-0.99713134765625,-0.07232666015625
1688370105449,15097223,5710,11,-0.2119140625,-0.99761962890625,-0.06915283203125
1688370105449,15097223,5710,12,-0.212158203125,-0.99420166015625,-0.07183837890625
1688370105449,15097223,5710,13,-0.216064453125,-0.99542236328125,-0.07061767578125
1688370105449,15097223,5710,14,-0.213134765625,-0.99786376953125,-0.06939697265625
1688370105449,15097223,5710,15,-0.214599609375,-0.99761962890625,-0.06890869140625
1688370105449,15097223,5710,16,-0.21240234375,-0.99615478515625,-0.07110595703125
1688370105449,15097223,5710,17,-0.211669921875,-0.99908447265625,-0.07159423828125
1688370105449,15097223,5710,18,-0.212890625,-0.99493408203125,-0.06768798828125
1688370105449,15097223,5710,19,-0.21337890625,-0.99395751953125,-0.06573486328125
1688370105449,15097223,5710,20,-0.218994140625,-0.99737548828125,-0.07232666015625
1688370105449,15097223,5710,21,-0.2060546875,-0.99444580078125,-0.06939697265625
1688370105449,15097223,5710,22,-0.20849609375,-1.00030517578125,-0.06573486328125
1688370105449,15097223,5710,23,-0.212646484375,-0.99566650390625,-0.05718994140625
1688370105449,15097223,5710,24,-0.213623046875,-0.99835205078125,-0.05596923828125
1688370105449,15097223,5710,25,-0.209228515625,-0.99200439453125,-0.05572509765625
1688370105449,15097223,5710,26,-0.219970703125,-0.99468994140625,-0.05328369140625
1688370105449,15097223,5710,27,-0.222412109375,-0.99591064453125,-0.05181884765625
1688370105449,15097223,5710,28,-0.214599609375,-0.99444580078125,-0.05718994140625
1688370105449,15097223,5710,29,-0.2119140625,-0.99444580078125,-0.05621337890625
1688370105449,15097223,5710,30,-0.220947265625,-0.99615478515625,-0.05377197265625
1688370105449,15097223,5710,31,-0.219482421875,-0.99761962890625,-0.04962158203125
1688370107987,15099802,5711,0,-0.215576171875,-0.99591064453125,-0.05108642578125
1688370107987,15099802,5711,1,-0.217041015625,-0.99322509765625,-0.05328369140625
1688370107987,15099802,5711,2,-0.208984375,-0.99493408203125,-0.05792236328125
1688370107987,15099802,5711,3,-0.20654296875,-1.00054931640625,-0.05718994140625
1688370107987,15099802,5711,4,-0.206787109375,-1.00469970703125,-0.06768798828125
1688370107987,15099802,5711,5,-0.203125,-1.00128173828125,-0.06866455078125
1688370107987,15099802,5711,6,-0.20556640625,-0.99810791015625,-0.06719970703125
1688370107987,15099802,5711,7,-0.20166015625,-0.99737548828125,-0.06695556640625
1688370107987,15099802,5711,8,-0.21044921875,-0.99517822265625,-0.05938720703125
1688370107987,15099802,5711,9,-0.211669921875,-0.99468994140625,-0.06109619140625
1688370107987,15099802,5711,10,-0.209228515625,-0.99761962890625,-0.05718994140625
1688370107987,15099802,5711,11,-0.21875,-0.99517822265625,-0.05865478515625
1688370107987,15099802,5711,12,-0.22021484375,-0.99884033203125,-0.05548095703125
1688370107987,15099802,5711,13,-0.22314453125,-0.99688720703125,-0.06256103515625
1688370107987,15099802,5711,14,-0.2197265625,-0.99273681640625,-0.07012939453125
1688370107987,15099802,5711,15,-0.22021484375,-0.99786376953125,-0.08233642578125
1688370107987,15099802,5711,16,-0.2080078125,-0.98785400390625,-0.09869384765625
1688370107987,15099802,5711,17,-0.205078125,-0.98614501953125,-0.08648681640625
1688370107987,15099802,5711,18,-0.19970703125,-1.00421142578125,-0.09600830078125
1688370107987,15099802,5711,19,-0.20703125,-1.00250244140625,-0.08380126953125
1688370107987,15099802,5711,20,-0.198486328125,-1.00323486328125,-0.07574462890625
1688370107987,15099802,5711,21,-0.1923828125,-0.99786376953125,-0.07794189453125
1688370107987,15099802,5711,22,-0.1962890625,-0.99737548828125,-0.08819580078125
1688370107987,15099802,5711,23,-0.20068359375,-0.99517822265625,-0.07867431640625
1688370107987,15099802,5711,24,-0.200439453125,-0.99420166015625,-0.08038330078125
1688370107987,15099802,5711,25,-0.20751953125,-0.99517822265625,-0.07379150390625
1688370107987,15099802,5711,26,-0.20703125,-0.99859619140625,-0.07598876953125
1688370107987,15099802,5711,27,-0.207763671875,-0.99664306640625,-0.07818603515625
1688370107987,15099802,5711,28,-0.205322265625,-0.99810791015625,-0.07745361328125
1688370107987,15099802,5711,29,-0.20849609375,-0.99346923828125,-0.07476806640625
1688370107987,15099802,5711,30,-0.209716796875,-0.99664306640625,-0.06939697265625
1688370107987,15099802,5711,31,-0.205810546875,-0.99932861328125,-0.07720947265625
1688370110522,15102381,5712,0,-0.205078125,-1.00030517578125,-0.08160400390625
1688370110522,15102381,5712,1,-0.206787109375,-0.99395751953125,-0.07940673828125
1688370110522,15102381,5712,2,-0.206787109375,-0.99664306640625,-0.07745361328125
1688370110522,15102381,5712,3,-0.20849609375,-0.99591064453125,-0.07501220703125
1688370110522,15102381,5712,4,-0.208984375,-0.99761962890625,-0.08087158203125
1688370110522,15102381,5712,5,-0.20458984375,-0.99908447265625,-0.08135986328125
1688370110522,15102381,5712,6,-0.208740234375,-0.99127197265625,-0.07525634765625
1688370110522,15102381,5712,7,-0.20703125,-0.99884033203125,-0.06964111328125
1688370110522,15102381,5712,8,-0.203369140625,-1.00054931640625,-0.07672119140625
1688370110522,15102381,5712,9,-0.20751953125,-0.99957275390625,-0.06597900390625
1688370110522,15102381,5712,10,-0.212646484375,-0.99688720703125,-0.06134033203125
1688370110522,15102381,5712,11,-0.2080078125,-0.99664306640625,-0.06573486328125
1688370110522,15102381,5712,12,-0.208984375,-0.99761962890625,-0.06182861328125
1688370110522,15102381,5712,13,-0.21044921875,-0.99859619140625,-0.06256103515625
1688370110522,15102381,5712,14,-0.20361328125,-0.99761962890625,-0.06329345703125
1688370110522,15102381,5712,15,-0.21630859375,-0.99542236328125,-0.06207275390625
1688370110522,15102381,5712,16,-0.218505859375,-0.99713134765625,-0.05303955078125
1688370110522,15102381,5712,17,-0.2158203125,-1.00103759765625,-0.06207275390625
1688370110522,15102381,5712,18,-0.215576171875,-0.99639892578125,-0.05987548828125
1688370110522,15102381,5712,19,-0.217041015625,-0.99591064453125,-0.06304931640625
1688370110522,15102381,5712,20,-0.219970703125,-0.99591064453125,-0.06085205078125
1688370110522,15102381,5712,21,-0.2265625,-0.99078369140625,-0.05816650390625
1688370110522,15102381,5712,22,-0.226318359375,-0.99957275390625,-0.06329345703125
1688370110522,15102381,5712,23,-0.228515625,-0.99786376953125,-0.07159423828125
1688370110522,15102381,5712,24,-0.2236328125,-0.99884033203125,-0.07672119140625
1688370110522,15102381,5712,25,-0.22900390625,-0.98516845703125,-0.05133056640625
1688370110522,15102381,5712,26,-0.2265625,-0.97857666015625,-0.04595947265625
1688370110522,15102381,5712,27,-0.21923828125,-1.00006103515625,-0.07379150390625
1688370110522,15102381,5712,28,-0.21728515625,-1.00372314453125,-0.07501220703125
1688370110522,15102381,5712,29,-0.21484375,-0.99322509765625,-0.06451416015625
1688370110522,15102381,5712,30,-0.220458984375,-0.99591064453125,-0.06158447265625
1688370110522,15102381,5712,31,-0.2177734375,-0.99566650390625,-0.06475830078125
1688370113253,15104966,5713,0,-0.21728515625,-0.99200439453125,-0.06402587890625
1688370113253,15104966,5713,1,-0.22607421875,-0.99591064453125,-0.06524658203125
1688370113253,15104966,5713,2,-0.21728515625,-0.99615478515625,-0.07159423828125
1688370113253,15104966,5713,3,-0.216064453125,-0.99591064453125,-0.07208251953125
1688370113253,15104966,5713,4,-0.2099609375,-0.99664306640625,-0.06866455078125
1688370113253,15104966,5713,5,-0.21337890625,-0.99273681640625,-0.07427978515625
1688370113253,15104966,5713,6,-0.214599609375,-0.99908447265625,-0.06817626953125
1688370113253,15104966,5713,7,-0.212646484375,-0.99444580078125,-0.07061767578125
1688370113253,15104966,5713,8,-0.212890625,-0.99420166015625,-0.07330322265625
1688370113253,15104966,5713,9,-0.215087890625,-1.00006103515625,-0.06915283203125
1688370113253,15104966,5713,10,-0.214111328125,-0.99615478515625,-0.07354736328125
1688370113253,15104966,5713,11,-0.210693359375,-0.99591064453125,-0.07965087890625
1688370113253,15104966,5713,12,-0.216552734375,-0.99493408203125,-0.07623291015625
1688370113253,15104966,5713,13,-0.213134765625,-0.99591064453125,-0.08135986328125
1688370113253,15104966,5713,14,-0.21435546875,-1.00177001953125,-0.07476806640625
1688370113253,15104966,5713,15,-0.220947265625,-0.99615478515625,-0.07550048828125
1688370113253,15104966,5713,16,-0.22021484375,-0.99761962890625,-0.07427978515625
1688370113253,15104966,5713,17,-0.22314453125,-0.99444580078125,-0.07672119140625
1688370113253,15104966,5713,18,-0.22314453125,-0.99102783203125,-0.06842041015625
1688370113253,15104966,5713,19,-0.220458984375,-0.99273681640625,-0.06890869140625
1688370113253,15104966,5713,20,-0.221923828125,-0.99664306640625,-0.07403564453125
1688370113253,15104966,5713,21,-0.223388671875,-0.99688720703125,-0.06671142578125
1688370113253,15104966,5713,22,-0.219482421875,-0.99200439453125,-0.06304931640625
1688370113253,15104966,5713,23,-0.2177734375,-0.99566650390625,-0.06793212890625
1688370113253,15104966,5713,24,-0.2197265625,-0.99932861328125,-0.06793212890625
1688370113253,15104966,5713,25,-0.21435546875,-0.99566650390625,-0.06036376953125
1688370113253,15104966,5713,26,-0.22314453125,-0.99273681640625,-0.05865478515625
1688370113253,15104966,5713,27,-0.2197265625,-0.99371337890625,-0.05694580078125
1688370113253,15104966,5713,28,-0.222412109375,-0.99493408203125,-0.05841064453125
1688370113253,15104966,5713,29,-0.2158203125,-0.99761962890625,-0.05987548828125
1688370113253,15104966,5713,30,-0.220458984375,-0.99542236328125,-0.05767822265625
1688370113253,15104966,5713,31,-0.22509765625,-0.99346923828125,-0.05963134765625
1688370115787,15107545,5714,0,-0.2197265625,-0.99395751953125,-0.05377197265625
1688370115787,15107545,5714,1,-0.224853515625,-0.99664306640625,-0.05108642578125
