receivedPhoneTimestamp,respeckTimestamp,packetSeqNum,sampleSeqNum,accelX,accelY,accelZ
1759606026546,707498716,14525,0,0.020263671875,-0.99029541015625,0.07464599609375
1759606026546,707498716,14525,1,0.01611328125,-0.99444580078125,0.06683349609375
1759606026546,707498716,14525,2,0.012939453125,-0.99884033203125,0.03387451171875
1759606026546,707498716,14525,3,0.02783203125,-0.99786376953125,0.02850341796875
1759606026546,707498716,14525,4,0.039306640625,-0.99859619140625,0.03485107421875
1759606026546,707498716,14525,5,0.03857421875,-0.99664306640625,0.00775146484375
1759606026546,707498716,14525,6,0.031982421875,-0.99737548828125,0.01556396484375
1759606026546,707498716,14525,7,0.04052734375,-0.99810791015625,0.01751708984375
1759606026546,707498716,14525,8,0.043701171875,-0.99737548828125,0.02142333984375
1759606026546,707498716,14525,9,0.047607421875,-0.99737548828125,0.02679443359375
1759606026546,707498716,14525,10,0.0458984375,-0.99591064453125,0.02386474609375
1759606026546,707498716,14525,11,0.044189453125,-0.99420166015625,0.02581787109375
1759606026546,707498716,14525,12,0.05078125,-0.99761962890625,0.02777099609375
1759606026546,707498716,14525,13,0.0478515625,-0.99493408203125,0.02825927734375
1759606026546,707498716,14525,14,0.050048828125,-0.99493408203125,0.03167724609375
1759606026546,707498716,14525,15,0.05224609375,-0.99371337890625,0.02850341796875
1759606026546,707498716,14525,16,0.05322265625,-0.99517822265625,0.03045654296875
1759606026546,707498716,14525,17,0.054443359375,-0.99566650390625,0.03265380859375
1759606026546,707498716,14525,18,0.054931640625,-0.99468994140625,0.02679443359375
1759606026546,707498716,14525,19,0.041015625,-0.99127197265625,0.05853271484375
1759606026546,707498716,14525,20,0.0517578125,-0.99249267578125,0.05999755859375
1759606026546,707498716,14525,21,0.04638671875,-0.99468994140625,0.04193115234375
1759606026546,707498716,14525,22,0.039794921875,-0.99249267578125,0.04779052734375
1759606026546,707498716,14525,23,0.06103515625,-0.99517822265625,0.04827880859375
1759606026546,707498716,14525,24,0.047119140625,-0.99810791015625,0.04901123046875
1759606026546,707498716,14525,25,0.02978515625,-0.99664306640625,0.04290771484375
1759606026546,707498716,14525,26,0.0322265625,-0.98663330078125,0.05096435546875
1759606026546,707498716,14525,27,0.01416015625,-1.00762939453125,0.06805419921875
1759606026546,707498716,14525,28,-0.002197265625,-0.98321533203125,0.07489013671875
1759606026546,707498716,14525,29,-0.02392578125,-0.99200439453125,0.06097412109375
1759606026546,707498716,14525,30,-0.025634765625,-0.99517822265625,0.06536865234375
1759606026546,707498716,14525,31,-0.037353515625,-0.99591064453125,0.05950927734375
1759606029128,707501283,14526,0,-0.05126953125,-0.99395751953125,0.04925537109375
1759606029128,707501283,14526,1,-0.0458984375,-1.00128173828125,0.05487060546875
1759606029128,707501283,14526,2,-0.041015625,-0.99664306640625,0.05999755859375
1759606029128,707501283,14526,3,-0.0390625,-0.99639892578125,0.05389404296875
1759606029128,707501283,14526,4,-0.031005859375,-0.99884033203125,0.05560302734375
1759606029128,707501283,14526,5,-0.0263671875,-0.99639892578125,0.05853271484375
1759606029128,707501283,14526,6,-0.02392578125,-0.99884033203125,0.05731201171875
1759606029128,707501283,14526,7,-0.02099609375,-0.99444580078125,0.06072998046875
1759606029128,707501283,14526,8,-0.0185546875,-0.99761962890625,0.05877685546875
1759606029128,707501283,14526,9,-0.021484375,-0.99761962890625,0.05657958984375
1759606029128,707501283,14526,10,-0.01904296875,-0.99664306640625,0.05609130859375
1759606029128,707501283,14526,11,-0.019287109375,-0.99835205078125,0.05731201171875
1759606029128,707501283,14526,12,-0.0224609375,-0.99566650390625,0.05242919921875
1759606029128,707501283,14526,13,-0.021728515625,-0.99517822265625,0.05560302734375
1759606029128,707501283,14526,14,-0.026123046875,-0.99517822265625,0.05194091796875
1759606029128,707501283,14526,15,-0.023193359375,-0.99542236328125,0.05218505859375
1759606029128,707501283,14526,16,-0.0224609375,-0.99761962890625,0.05242919921875
1759606029128,707501283,14526,17,-0.026123046875,-0.99664306640625,0.05584716796875
1759606029128,707501283,14526,18,-0.02099609375,-0.99176025390625,0.05511474609375
1759606029128,707501283,14526,19,-0.021240234375,-0.99566650390625,0.05853271484375
1759606029128,707501283,14526,20,-0.0283203125,-0.99932861328125,0.06097412109375
1759606029128,707501283,14526,21,-0.021484375,-0.99591064453125,0.05877685546875
1759606029128,707501283,14526,22,-0.02392578125,-0.99566650390625,0.07489013671875
1759606029128,707501283,14526,23,-0.031494140625,-0.99346923828125,0.07611083984375
1759606029128,707501283,14526,24,-0.025390625,-0.99713134765625,0.06292724609375
1759606029128,707501283,14526,25,-0.02294921875,-0.99713134765625,0.06683349609375
1759606029128,707501283,14526,26,-0.02001953125,-0.99542236328125,0.06683349609375
1759606029128,707501283,14526,27,-0.007080078125,-0.99176025390625,0.07000732421875
1759606029128,707501283,14526,28,-0.024169921875,-0.99981689453125,0.08685302734375
1759606029128,707501283,14526,29,-0.03271484375,-0.99005126953125,0.07562255859375
1759606029128,707501283,14526,30,-0.029541015625,-0.99688720703125,0.12103271484375
1759606029128,707501283,14526,31,-0.0029296875,-0.97515869140625,0.13665771484375
1759606031709,707503850,14527,0,-0.0146484375,-0.97174072265625,0.14129638671875
1759606031709,707503850,14527,1,-0.050048828125,-0.99151611328125,0.12298583984375
1759606031709,707503850,14527,2,-0.04638671875,-0.99078369140625,0.10369873046875
1759606031709,707503850,14527,3,-0.04443359375,-0.98175048828125,0.10711669921875
1759606031709,707503850,14527,4,-0.04150390625,-0.99395751953125,0.10614013671875
1759606031709,707503850,14527,5,-0.03564453125,-0.98858642578125,0.10150146484375
1759606031709,707503850,14527,6,-0.035400390625,-0.99005126953125,0.10736083984375
1759606031709,707503850,14527,7,-0.033203125,-0.99810791015625,0.09246826171875
1759606031709,707503850,14527,8,-0.0302734375,-0.98101806640625,0.08929443359375
1759606031709,707503850,14527,9,-0.02783203125,-0.99420166015625,0.09173583984375
1759606031709,707503850,14527,10,-0.025634765625,-0.99151611328125,0.08734130859375
1759606031709,707503850,14527,11,-0.031982421875,-0.99566650390625,0.08074951171875
1759606031709,707503850,14527,12,-0.031982421875,-0.99639892578125,0.08294677734375
1759606031709,707503850,14527,13,-0.038818359375,-0.99346923828125,0.07562255859375
1759606031709,707503850,14527,14,-0.0400390625,-0.99664306640625,0.07952880859375
1759606031709,707503850,14527,15,-0.035400390625,-0.99688720703125,0.08074951171875
1759606031709,707503850,14527,16,-0.04052734375,-0.99664306640625,0.07415771484375
1759606031709,707503850,14527,17,-0.0439453125,-0.99298095703125,0.08856201171875
1759606031709,707503850,14527,18,-0.041259765625,-0.99737548828125,0.08489990234375
1759606031709,707503850,14527,19,-0.0419921875,-0.99273681640625,0.07635498046875
1759606031709,707503850,14527,20,-0.036376953125,-0.99322509765625,0.08074951171875
1759606031709,707503850,14527,21,-0.02783203125,-0.99273681640625,0.08880615234375
1759606031709,707503850,14527,22,-0.033935546875,-0.99346923828125,0.08197021484375
1759606031709,707503850,14527,23,-0.037109375,-0.99395751953125,0.07733154296875
1759606031709,707503850,14527,24,-0.03369140625,-0.99395751953125,0.07879638671875
1759606031709,707503850,14527,25,-0.03271484375,-0.99493408203125,0.07220458984375
1759606031709,707503850,14527,26,-0.03564453125,-0.99664306640625,0.07855224609375
1759606031709,707503850,14527,27,-0.043701171875,-0.99615478515625,0.08099365234375
1759606031709,707503850,14527,28,-0.03369140625,-0.99273681640625,0.08489990234375
1759606031709,707503850,14527,29,-0.03173828125,-0.99346923828125,0.08953857421875
1759606031709,707503850,14527,30,-0.035400390625,-0.99444580078125,0.08612060546875
1759606031709,707503850,14527,31,-0.03759765625,-0.99444580078125,0.08245849609375
1759606034297,707506418,14528,0,-0.027099609375,-0.99517822265625,0.08587646484375
1759606034297,707506418,14528,1,-0.026123046875,-0.99639892578125,0.07928466796875
1759606034297,707506418,14528,2,-0.0400390625,-1.00274658203125,0.07391357421875
1759606034297,707506418,14528,3,-0.04150390625,-0.98175048828125,0.10906982421875
1759606034297,707506418,14528,4,-0.025146484375,-0.99346923828125,0.12908935546875
1759606034297,707506418,14528,5,-0.028564453125,-0.98956298828125,0.12225341796875
1759606034297,707506418,14528,6,-0.03857421875,-0.97467041015625,0.14862060546875
1759606034297,707506418,14528,7,-0.021484375,-0.97393798828125,0.17034912109375
1759606034297,707506418,14528,8,0.001953125,-0.96319580078125,0.18621826171875
1759606034297,707506418,14528,9,0.029052734375,-0.96954345703125,0.20965576171875
1759606034297,707506418,14528,10,0.034423828125,-0.96221923828125,0.21673583984375
1759606034297,707506418,14528,11,0.02392578125,-0.96173095703125,0.21624755859375
1759606034297,707506418,14528,12,0.02685546875,-0.96295166015625,0.19720458984375
1759606034297,707506418,14528,13,0.024169921875,-0.96636962890625,0.19305419921875
1759606034297,707506418,14528,14,0.023193359375,-0.97100830078125,0.18743896484375
1759606034297,707506418,14528,15,0.021728515625,-0.96612548828125,0.18377685546875
1759606034297,707506418,14528,16,0.028564453125,-0.96978759765625,0.18109130859375
1759606034297,707506418,14528,17,0.02001953125,-0.96978759765625,0.17645263671875
1759606034297,707506418,14528,18,0.01318359375,-0.97711181640625,0.17669677734375
1759606034297,707506418,14528,19,0.02001953125,-0.97052001953125,0.16278076171875
1759606034297,707506418,14528,20,0.01123046875,-0.97467041015625,0.17498779296875
1759606034297,707506418,14528,21,0.0166015625,-0.97052001953125,0.16253662109375
1759606034297,707506418,14528,22,0.009765625,-0.97491455078125,0.15399169921875
1759606034297,707506418,14528,23,-0.00390625,-0.98272705078125,0.14471435546875
1759606034297,707506418,14528,24,-0.00390625,-0.98492431640625,0.14471435546875
1759606034297,707506418,14528,25,-0.008056640625,-0.99053955078125,0.14129638671875
1759606034297,707506418,14528,26,-0.0166015625,-0.98150634765625,0.14617919921875
1759606034297,707506418,14528,27,-0.015380859375,-0.98321533203125,0.14349365234375
1759606034297,707506418,14528,28,-0.023681640625,-0.99005126953125,0.13372802734375
1759606034297,707506418,14528,29,-0.032958984375,-0.98150634765625,0.13446044921875
1759606034297,707506418,14528,30,-0.028564453125,-0.98638916015625,0.13934326171875
1759606034297,707506418,14528,31,-0.021728515625,-0.98541259765625,0.13177490234375
1759606036880,707508985,14529,0,-0.03173828125,-0.98736572265625,0.13714599609375
1759606036880,707508985,14529,1,-0.03466796875,-0.98712158203125,0.14202880859375
1759606036880,707508985,14529,2,-0.032958984375,-0.98516845703125,0.13763427734375
1759606036880,707508985,14529,3,-0.033447265625,-0.98443603515625,0.14007568359375
1759606036880,707508985,14529,4,-0.0322265625,-0.98052978515625,0.14813232421875
1759606036880,707508985,14529,5,-0.03076171875,-0.98541259765625,0.14617919921875
1759606036880,707508985,14529,6,-0.02685546875,-0.98419189453125,0.14691162109375
1759606036880,707508985,14529,7,-0.03125,-0.98126220703125,0.14788818359375
1759606036880,707508985,14529,8,-0.03515625,-0.97491455078125,0.16229248046875
1759606036880,707508985,14529,9,-0.037841796875,-0.97467041015625,0.15765380859375
1759606036880,707508985,14529,10,-0.025146484375,-0.97784423828125,0.16009521484375
1759606036880,707508985,14529,11,-0.02880859375,-0.97369384765625,0.16302490234375
1759606036880,707508985,14529,12,-0.027099609375,-0.97637939453125,0.15545654296875
1759606036880,707508985,14529,13,-0.025146484375,-0.98712158203125,0.14031982421875
1759606036880,707508985,14529,14,-0.02734375,-0.98809814453125,0.14300537109375
1759606036880,707508985,14529,15,-0.033935546875,-0.97930908203125,0.14227294921875
1759606036880,707508985,14529,16,-0.0283203125,-0.98077392578125,0.15423583984375
1759606036880,707508985,14529,17,-0.023681640625,-0.98101806640625,0.15374755859375
1759606036880,707508985,14529,18,-0.03564453125,-0.97882080078125,0.16180419921875
1759606036880,707508985,14529,19,-0.033935546875,-0.96954345703125,0.17108154296875
1759606036880,707508985,14529,20,-0.028076171875,-0.97467041015625,0.16888427734375
1759606036880,707508985,14529,21,-0.03515625,-0.97808837890625,0.15618896484375
1759606036880,707508985,14529,22,-0.031494140625,-0.97003173828125,0.16937255859375
1759606036880,707508985,14529,23,-0.0234375,-0.97930908203125,0.16204833984375
1759606036880,707508985,14529,24,-0.031494140625,-0.97418212890625,0.15618896484375
1759606036880,707508985,14529,25,-0.036865234375,-0.98541259765625,0.15521240234375
1759606036880,707508985,14529,26,-0.03759765625,-0.97784423828125,0.15277099609375
1759606036880,707508985,14529,27,-0.039794921875,-0.98077392578125,0.16278076171875
1759606036880,707508985,14529,28,-0.044189453125,-0.98004150390625,0.16180419921875
1759606036880,707508985,14529,29,-0.03515625,-0.97418212890625,0.16522216796875
1759606036880,707508985,14529,30,-0.032470703125,-0.97467041015625,0.16400146484375
1759606036880,707508985,14529,31,-0.039794921875,-0.97564697265625,0.17205810546875
1759606039464,707511552,14530,0,-0.0322265625,-0.97930908203125,0.16986083984375
1759606039464,707511552,14530,1,-0.037841796875,-0.97784423828125,0.17010498046875
1759606039464,707511552,14530,2,-0.0341796875,-0.97198486328125,0.17059326171875
1759606039464,707511552,14530,3,-0.032958984375,-0.97784423828125,0.17352294921875
1759606039464,707511552,14530,4,-0.031005859375,-0.97174072265625,0.17694091796875
1759606039464,707511552,14530,5,-0.031982421875,-0.97027587890625,0.17913818359375
1759606039464,707511552,14530,6,-0.03173828125,-0.97589111328125,0.17840576171875
1759606039464,707511552,14530,7,-0.03515625,-0.96954345703125,0.16986083984375
1759606039464,707511552,14530,8,-0.031494140625,-0.97613525390625,0.17889404296875
1759606039464,707511552,14530,9,-0.03076171875,-0.99200439453125,0.16448974609375
1759606039464,707511552,14530,10,-0.045166015625,-0.97052001953125,0.16424560546875
1759606039464,707511552,14530,11,-0.034912109375,-0.96807861328125,0.19573974609375
1759606039464,707511552,14530,12,-0.027099609375,-0.96539306640625,0.20013427734375
1759606039464,707511552,14530,13,-0.0478515625,-0.96734619140625,0.19427490234375
1759606039464,707511552,14530,14,-0.052490234375,-0.96588134765625,0.18499755859375
1759606039464,707511552,14530,15,-0.045166015625,-0.97076416015625,0.18255615234375
1759606039464,707511552,14530,16,-0.044921875,-0.96881103515625,0.19158935546875
1759606039464,707511552,14530,17,-0.02685546875,-0.96588134765625,0.18597412109375
1759606039464,707511552,14530,18,-0.035888671875,-0.97833251953125,0.18621826171875
1759606039464,707511552,14530,19,-0.02783203125,-0.97052001953125,0.17498779296875
1759606039464,707511552,14530,20,-0.052734375,-0.98272705078125,0.18157958984375
1759606039464,707511552,14530,21,-0.07421875,-0.97149658203125,0.15716552734375
1759606039464,707511552,14530,22,-0.08544921875,-0.97393798828125,0.14373779296875
1759606039464,707511552,14530,23,-0.06982421875,-0.97589111328125,0.15911865234375
1759606039464,707511552,14530,24,-0.059326171875,-0.98004150390625,0.16253662109375
1759606039464,707511552,14530,25,-0.039306640625,-0.96636962890625,0.17498779296875
1759606039464,707511552,14530,26,-0.0263671875,-0.96856689453125,0.17083740234375
1759606039464,707511552,14530,27,-0.020263671875,-0.98199462890625,0.17669677734375
1759606039464,707511552,14530,28,-0.029052734375,-0.96734619140625,0.16033935546875
1759606039464,707511552,14530,29,-0.04150390625,-0.98321533203125,0.15301513671875
1759606039464,707511552,14530,30,-0.078125,-0.97662353515625,0.15325927734375
1759606039464,707511552,14530,31,-0.076416015625,-0.97442626953125,0.17767333984375
1759606042050,707514119,14531,0,-0.0576171875,-0.97857666015625,0.18353271484375
1759606042050,707514119,14531,1,-0.052001953125,-0.97515869140625,0.14593505859375
1759606042050,707514119,14531,2,-0.0986328125,-0.99053955078125,0.15814208984375
1759606042050,707514119,14531,3,-0.0986328125,-0.97125244140625,0.15130615234375
1759606042050,707514119,14531,4,-0.09814453125,-0.97760009765625,0.15570068359375
1759606042050,707514119,14531,5,-0.099609375,-0.98028564453125,0.16082763671875
1759606042050,707514119,14531,6,-0.100830078125,-0.97149658203125,0.16790771484375
1759606042050,707514119,14531,7,-0.093017578125,-0.97760009765625,0.15521240234375
1759606042050,707514119,14531,8,-0.092041015625,-0.97833251953125,0.14349365234375
1759606042050,707514119,14531,9,-0.08984375,-0.98663330078125,0.14910888671875
1759606042050,707514119,14531,10,-0.08984375,-0.98394775390625,0.15106201171875
1759606042050,707514119,14531,11,-0.0791015625,-0.97174072265625,0.15423583984375
1759606042050,707514119,14531,12,-0.091552734375,-0.97637939453125,0.16131591796875
1759606042050,707514119,14531,13,-0.08544921875,-0.97076416015625,0.15814208984375
1759606042050,707514119,14531,14,-0.088134765625,-0.98028564453125,0.15911865234375
1759606042050,707514119,14531,15,-0.088134765625,-0.97418212890625,0.16009521484375
1759606042050,707514119,14531,16,-0.091064453125,-0.97613525390625,0.16302490234375
1759606042050,707514119,14531,17,-0.089111328125,-0.97198486328125,0.16009521484375
1759606042050,707514119,14531,18,-0.09375,-0.97393798828125,0.16229248046875
1759606042050,707514119,14531,19,-0.1015625,-0.97589111328125,0.17254638671875
1759606042050,707514119,14531,20,-0.099853515625,-0.97491455078125,0.16595458984375
1759606042050,707514119,14531,21,-0.104248046875,-0.97686767578125,0.16082763671875
1759606042050,707514119,14531,22,-0.102783203125,-0.97222900390625,0.16229248046875
1759606042050,707514119,14531,23,-0.10107421875,-0.97418212890625,0.16522216796875
1759606042050,707514119,14531,24,-0.1015625,-0.97418212890625,0.16815185546875
1759606042050,707514119,14531,25,-0.098876953125,-0.97076416015625,0.16864013671875
1759606042050,707514119,14531,26,-0.1015625,-0.97296142578125,0.16839599609375
1759606042050,707514119,14531,27,-0.09130859375,-0.97833251953125,0.15960693359375
1759606042050,707514119,14531,28,-0.095703125,-0.97491455078125,0.16864013671875
1759606042050,707514119,14531,29,-0.095947265625,-0.97027587890625,0.16888427734375
1759606042050,707514119,14531,30,-0.100830078125,-0.97808837890625,0.17010498046875
1759606042050,707514119,14531,31,-0.1083984375,-0.96832275390625,0.16595458984375
1759606044632,707516686,14532,0,-0.1181640625,-0.97467041015625,0.17401123046875
1759606044632,707516686,14532,1,-0.115234375,-0.97882080078125,0.16644287109375
1759606044632,707516686,14532,2,-0.10400390625,-0.96636962890625,0.17645263671875
1759606044632,707516686,14532,3,-0.101318359375,-0.96978759765625,0.18377685546875
1759606044632,707516686,14532,4,-0.10888671875,-0.96905517578125,0.17279052734375
1759606044632,707516686,14532,5,-0.103759765625,-0.97125244140625,0.17864990234375
1759606044632,707516686,14532,6,-0.09912109375,-0.96612548828125,0.18035888671875
1759606044632,707516686,14532,7,-0.089111328125,-0.96954345703125,0.16619873046875
1759606044632,707516686,14532,8,-0.085205078125,-0.98150634765625,0.16302490234375
1759606044632,707516686,14532,9,-0.0791015625,-0.97833251953125,0.15594482421875
1759606044632,707516686,14532,10,-0.096435546875,-0.97515869140625,0.15740966796875
1759606044632,707516686,14532,11,-0.088134765625,-0.97320556640625,0.16595458984375
1759606044632,707516686,14532,12,-0.08447265625,-0.97393798828125,0.16058349609375
1759606044632,707516686,14532,13,-0.09033203125,-0.97808837890625,0.16790771484375
1759606044632,707516686,14532,14,-0.096435546875,-0.97711181640625,0.16033935546875
1759606044632,707516686,14532,15,-0.094482421875,-0.98345947265625,0.15545654296875
1759606044632,707516686,14532,16,-0.095947265625,-0.97393798828125,0.16131591796875
1759606044632,707516686,14532,17,-0.09375,-0.97247314453125,0.16888427734375
1759606044632,707516686,14532,18,-0.090576171875,-0.97344970703125,0.16131591796875
1759606044632,707516686,14532,19,-0.093017578125,-0.97369384765625,0.16741943359375
1759606044632,707516686,14532,20,-0.09375,-0.97198486328125,0.16888427734375
1759606044632,707516686,14532,21,-0.091552734375,-0.98297119140625,0.15692138671875
1759606044632,707516686,14532,22,-0.094970703125,-0.97222900390625,0.16741943359375
1759606044632,707516686,14532,23,-0.099365234375,-0.97662353515625,0.16619873046875
1759606044632,707516686,14532,24,-0.0947265625,-0.97808837890625,0.16204833984375
1759606044632,707516686,14532,25,-0.095947265625,-0.97467041015625,0.16571044921875
1759606044632,707516686,14532,26,-0.09375,-0.97296142578125,0.16644287109375
1759606044632,707516686,14532,27,-0.09716796875,-0.97222900390625,0.16839599609375
1759606044632,707516686,14532,28,-0.09423828125,-0.97271728515625,0.16717529296875
1759606044632,707516686,14532,29,-0.095703125,-0.97662353515625,0.16790771484375
1759606044632,707516686,14532,30,-0.096923828125,-0.97174072265625,0.17083740234375
1759606044632,707516686,14532,31,-0.098388671875,-0.97442626953125,0.16693115234375
1759606047210,707519253,14533,0,-0.09619140625,-0.97076416015625,0.17108154296875
1759606047210,707519253,14533,1,-0.09619140625,-0.97100830078125,0.16668701171875
1759606047210,707519253,14533,2,-0.101318359375,-0.97540283203125,0.17352294921875
1759606047210,707519253,14533,3,-0.097900390625,-0.97296142578125,0.16693115234375
1759606047210,707519253,14533,4,-0.102783203125,-0.97247314453125,0.16839599609375
1759606047210,707519253,14533,5,-0.097900390625,-0.97467041015625,0.16595458984375
1759606047210,707519253,14533,6,-0.09423828125,-0.97613525390625,0.16595458984375
1759606047210,707519253,14533,7,-0.09912109375,-0.96881103515625,0.17376708984375
1759606047210,707519253,14533,8,-0.099365234375,-0.97369384765625,0.16741943359375
1759606047210,707519253,14533,9,-0.096923828125,-0.97515869140625,0.16644287109375
1759606047210,707519253,14533,10,-0.0986328125,-0.97149658203125,0.16375732421875
1759606047210,707519253,14533,11,-0.096435546875,-0.97857666015625,0.16473388671875
1759606047210,707519253,14533,12,-0.0947265625,-0.97613525390625,0.15985107421875
1759606047210,707519253,14533,13,-0.1005859375,-0.97271728515625,0.16571044921875
1759606047210,707519253,14533,14,-0.0947265625,-0.97247314453125,0.16668701171875
1759606047210,707519253,14533,15,-0.094482421875,-0.97344970703125,0.16253662109375
1759606047210,707519253,14533,16,-0.09765625,-0.97198486328125,0.16644287109375
1759606047210,707519253,14533,17,-0.100830078125,-0.97760009765625,0.16131591796875
1759606047210,707519253,14533,18,-0.09375,-0.97344970703125,0.16253662109375
1759606047210,707519253,14533,19,-0.095947265625,-0.97271728515625,0.16253662109375
1759606047210,707519253,14533,20,-0.095703125,-0.97515869140625,0.16058349609375
1759606047210,707519253,14533,21,-0.098388671875,-0.97222900390625,0.16326904296875
1759606047210,707519253,14533,22,-0.1005859375,-0.97491455078125,0.16058349609375
1759606047210,707519253,14533,23,-0.096435546875,-0.97369384765625,0.16082763671875
1759606047210,707519253,14533,24,-0.099365234375,-0.97100830078125,0.16326904296875
1759606047210,707519253,14533,25,-0.09814453125,-0.98052978515625,0.15521240234375
1759606047210,707519253,14533,26,-0.095703125,-0.97589111328125,0.16131591796875
1759606047210,707519253,14533,27,-0.099365234375,-0.97711181640625,0.15960693359375
1759606047210,707519253,14533,28,-0.095458984375,-0.97369384765625,0.15887451171875
1759606047210,707519253,14533,29,-0.096923828125,-0.97296142578125,0.15789794921875
1759606047210,707519253,14533,30,-0.09912109375,-0.97857666015625,0.16058349609375
1759606047210,707519253,14533,31,-0.0986328125,-0.97589111328125,0.15814208984375
1759606049602,707521820,14534,0,-0.0947265625,-0.97564697265625,0.15936279296875
1759606049602,707521820,14534,1,-0.096923828125,-0.97906494140625,0.15936279296875
1759606049602,707521820,14534,2,-0.0966796875,-0.97613525390625,0.15692138671875
1759606049602,707521820,14534,3,-0.096435546875,-0.97174072265625,0.15936279296875
1759606049602,707521820,14534,4,-0.09912109375,-0.97833251953125,0.15423583984375
1759606049602,707521820,14534,5,-0.098876953125,-0.97540283203125,0.15911865234375
1759606049602,707521820,14534,6,-0.09765625,-0.97735595703125,0.16204833984375
1759606049602,707521820,14534,7,-0.0966796875,-0.97760009765625,0.15863037109375
1759606049602,707521820,14534,8,-0.096435546875,-0.97637939453125,0.15618896484375
1759606049602,707521820,14534,9,-0.099365234375,-0.97418212890625,0.16033935546875
1759606049602,707521820,14534,10,-0.09619140625,-0.97613525390625,0.15521240234375
1759606049602,707521820,14534,11,-0.099853515625,-0.97833251953125,0.15374755859375
1759606049602,707521820,14534,12,-0.09619140625,-0.97198486328125,0.16204833984375
1759606049602,707521820,14534,13,-0.099609375,-0.97564697265625,0.15716552734375
1759606049602,707521820,14534,14,-0.09912109375,-0.97198486328125,0.15936279296875
1759606049602,707521820,14534,15,-0.093994140625,-0.97320556640625,0.15960693359375
1759606049602,707521820,14534,16,-0.098388671875,-0.97613525390625,0.15911865234375
1759606049602,707521820,14534,17,-0.101318359375,-0.97296142578125,0.15765380859375
1759606049602,707521820,14534,18,-0.100830078125,-0.97198486328125,0.16058349609375
1759606049602,707521820,14534,19,-0.1015625,-0.97662353515625,0.15667724609375
1759606049602,707521820,14534,20,-0.099365234375,-0.97784423828125,0.15594482421875
1759606049602,707521820,14534,21,-0.096923828125,-0.97222900390625,0.16424560546875
1759606049602,707521820,14534,22,-0.099609375,-0.97833251953125,0.15545654296875
1759606049602,707521820,14534,23,-0.095947265625,-0.97393798828125,0.15765380859375
1759606049602,707521820,14534,24,-0.099365234375,-0.97686767578125,0.15692138671875
1759606049602,707521820,14534,25,-0.09814453125,-0.97222900390625,0.15936279296875
1759606049602,707521820,14534,26,-0.098876953125,-0.97906494140625,0.15447998046875
1759606049602,707521820,14534,27,-0.10009765625,-0.97369384765625,0.15374755859375
1759606049602,707521820,14534,28,-0.098388671875,-0.97686767578125,0.15521240234375
1759606049602,707521820,14534,29,-0.093017578125,-0.98175048828125,0.14984130859375
1759606049602,707521820,14534,30,-0.0927734375,-0.97833251953125,0.15447998046875
1759606049602,707521820,14534,31,-0.095947265625,-0.98223876953125,0.15032958984375
1759606052187,707524387,14535,0,-0.095947265625,-0.98223876953125,0.14959716796875
1759606052187,707524387,14535,1,-0.09423828125,-0.97760009765625,0.15106201171875
1759606052187,707524387,14535,2,-0.0947265625,-0.97711181640625,0.14910888671875
1759606052187,707524387,14535,3,-0.098876953125,-0.97296142578125,0.15228271484375
1759606052187,707524387,14535,4,-0.09619140625,-0.97906494140625,0.15106201171875
1759606052187,707524387,14535,5,-0.097900390625,-0.97882080078125,0.15106201171875
1759606052187,707524387,14535,6,-0.098388671875,-0.97662353515625,0.14691162109375
1759606052187,707524387,14535,7,-0.09765625,-0.97296142578125,0.15057373046875
1759606052187,707524387,14535,8,-0.096435546875,-0.97930908203125,0.15179443359375
1759606052187,707524387,14535,9,-0.100341796875,-0.98101806640625,0.15081787109375
1759606052187,707524387,14535,10,-0.102294921875,-0.97125244140625,0.15667724609375
1759606052187,707524387,14535,11,-0.093017578125,-0.97808837890625,0.15740966796875
1759606052187,707524387,14535,12,-0.095458984375,-0.97979736328125,0.15399169921875
1759606052187,707524387,14535,13,-0.0986328125,-0.97271728515625,0.15594482421875
1759606052187,707524387,14535,14,-0.10107421875,-0.97613525390625,0.16009521484375
1759606052187,707524387,14535,15,-0.099853515625,-0.97491455078125,0.15155029296875
1759606052187,707524387,14535,16,-0.104736328125,-0.97613525390625,0.14959716796875
1759606052187,707524387,14535,17,-0.103271484375,-0.97711181640625,0.15350341796875
1759606052187,707524387,14535,18,-0.1044921875,-0.97515869140625,0.15399169921875
1759606052187,707524387,14535,19,-0.099609375,-0.97955322265625,0.15472412109375
1759606052187,707524387,14535,20,-0.100341796875,-0.97735595703125,0.15521240234375
1759606052187,707524387,14535,21,-0.11083984375,-0.97320556640625,0.16229248046875
1759606052187,707524387,14535,22,-0.098388671875,-0.97222900390625,0.16058349609375
1759606052187,707524387,14535,23,-0.095703125,-0.98443603515625,0.15692138671875
1759606052187,707524387,14535,24,-0.1005859375,-0.97418212890625,0.15423583984375
1759606052187,707524387,14535,25,-0.103759765625,-0.96929931640625,0.14642333984375
1759606052187,707524387,14535,26,-0.09716796875,-0.99737548828125,0.16351318359375
1759606052187,707524387,14535,27,-0.095458984375,-0.97442626953125,0.16033935546875
1759606052187,707524387,14535,28,-0.11279296875,-0.97393798828125,0.15155029296875
1759606052187,707524387,14535,29,-0.1162109375,-0.97027587890625,0.16082763671875
1759606052187,707524387,14535,30,-0.103271484375,-0.96783447265625,0.18060302734375
1759606052187,707524387,14535,31,-0.11181640625,-0.96636962890625,0.19451904296875
1759606054769,707526954,14536,0,-0.1025390625,-0.97222900390625,0.18255615234375
1759606054769,707526954,14536,1,-0.108642578125,-0.97027587890625,0.17449951171875
1759606054769,707526954,14536,2,-0.106201171875,-0.97369384765625,0.17132568359375
1759606054769,707526954,14536,3,-0.101806640625,-0.97247314453125,0.17425537109375
1759606054769,707526954,14536,4,-0.10791015625,-0.97320556640625,0.16912841796875
1759606054769,707526954,14536,5,-0.11083984375,-0.97735595703125,0.15863037109375
1759606054769,707526954,14536,6,-0.111572265625,-0.97540283203125,0.16448974609375
1759606054769,707526954,14536,7,-0.10498046875,-0.97271728515625,0.16375732421875
1759606054769,707526954,14536,8,-0.1142578125,-0.97735595703125,0.16229248046875
1759606054769,707526954,14536,9,-0.109130859375,-0.97613525390625,0.16815185546875
1759606054769,707526954,14536,10,-0.10302734375,-0.97174072265625,0.16497802734375
1759606054769,707526954,14536,11,-0.1103515625,-0.97833251953125,0.16424560546875
1759606054769,707526954,14536,12,-0.102783203125,-0.97442626953125,0.15399169921875
1759606054769,707526954,14536,13,-0.104248046875,-0.97882080078125,0.15521240234375
1759606054769,707526954,14536,14,-0.095947265625,-0.97711181640625,0.14739990234375
1759606054769,707526954,14536,15,-0.10205078125,-0.97979736328125,0.15032958984375
1759606054769,707526954,14536,16,-0.09375,-0.97784423828125,0.15374755859375
1759606054769,707526954,14536,17,-0.08447265625,-0.97833251953125,0.15399169921875
1759606054769,707526954,14536,18,-0.09130859375,-0.97882080078125,0.14739990234375
1759606054769,707526954,14536,19,-0.09619140625,-0.97760009765625,0.14056396484375
1759606054769,707526954,14536,20,-0.09423828125,-0.98590087890625,0.13592529296875
1759606054769,707526954,14536,21,-0.0810546875,-0.98223876953125,0.13787841796875
1759606054769,707526954,14536,22,-0.084228515625,-0.98394775390625,0.13568115234375
