receivedPhoneTimestamp,respeckTimestamp,packetSeqNum,sampleSeqNum,accelX,accelY,accelZ
1759847690504,971017160,61406,14,-0.084228515625,-1.03863525390625,-0.27935791015625
1759847690504,971017160,61406,15,-0.054443359375,-0.96466064453125,-0.31964111328125
1759847690504,971017160,61406,16,-0.052978515625,-0.93609619140625,-0.34283447265625
1759847690504,971017160,61406,17,-0.02978515625,-1.01715087890625,-0.29058837890625
1759847690504,971017160,61406,18,-0.126220703125,-0.92901611328125,-0.26959228515625
1759847690504,971017160,61406,19,-0.102294921875,-1.02325439453125,-0.29522705078125
1759847690504,971017160,61406,20,-0.07763671875,-0.94830322265625,-0.29229736328125
1759847690504,971017160,61406,21,-0.090576171875,-1.00567626953125,-0.24542236328125
1759847690504,971017160,61406,22,-0.073974609375,-0.98028564453125,-0.30645751953125
1759847690504,971017160,61406,23,-0.103759765625,-0.95611572265625,-0.31719970703125
1759847690504,971017160,61406,24,-0.095947265625,-0.97491455078125,-0.26202392578125
1759847690504,971017160,61406,25,-0.123291015625,-1.00933837890625,-0.26959228515625
1759847690504,971017160,61406,26,-0.050048828125,-0.95904541015625,-0.31353759765625
1759847690504,971017160,61406,27,-0.050048828125,-0.95709228515625,-0.32647705078125
1759847690504,971017160,61406,28,-0.070068359375,-0.97540283203125,-0.29205322265625
1759847690504,971017160,61406,29,-0.146240234375,-0.98248291015625,-0.34356689453125
1759847690504,971017160,61406,30,-0.106689453125,-0.97906494140625,-0.31036376953125
1759847690504,971017160,61406,31,-0.07666015625,-0.96124267578125,-0.32427978515625
1759847693024,971019703,61407,0,-0.059814453125,-1.00372314453125,-0.33868408203125
1759847693024,971019703,61407,1,-0.060546875,-0.88800048828125,-0.33428955078125
1759847693024,971019703,61407,2,-0.120849609375,-1.03570556640625,-0.22076416015625
1759847693024,971019703,61407,3,-0.057861328125,-0.97491455078125,-0.25494384765625
1759847693024,971019703,61407,4,-0.061767578125,-1.00201416015625,-0.28765869140625
1759847693024,971019703,61407,5,-0.032958984375,-0.93975830078125,-0.32012939453125
1759847693024,971019703,61407,6,-0.126708984375,-0.98541259765625,-0.22540283203125
1759847693024,971019703,61407,7,-0.06005859375,-0.98663330078125,-0.30133056640625
1759847693024,971019703,61407,8,-0.060302734375,-0.97711181640625,-0.30938720703125
1759847693024,971019703,61407,9,-0.072998046875,-0.96441650390625,-0.28985595703125
1759847693024,971019703,61407,10,-0.07275390625,-0.99737548828125,-0.31378173828125
1759847693024,971019703,61407,11,-0.07177734375,-0.94854736328125,-0.32525634765625
1759847693024,971019703,61407,12,-0.07177734375,-0.96368408203125,-0.31793212890625
1759847693024,971019703,61407,13,-0.0888671875,-0.98663330078125,-0.27032470703125
1759847693024,971019703,61407,14,-0.08056640625,-0.98712158203125,-0.29180908203125
1759847693024,971019703,61407,15,-0.05078125,-0.96051025390625,-0.31475830078125
1759847693024,971019703,61407,16,-0.05224609375,-0.96368408203125,-0.32916259765625
1759847693024,971019703,61407,17,-0.057861328125,-0.98223876953125,-0.29254150390625
1759847693024,971019703,61407,18,-0.024169921875,-0.96710205078125,-0.29107666015625
1759847693024,971019703,61407,19,-0.006103515625,-0.95709228515625,-0.32647705078125
1759847693024,971019703,61407,20,-0.037841796875,-0.97857666015625,-0.30841064453125
1759847693024,971019703,61407,21,-0.13916015625,-1.01934814453125,-0.39752197265625
1759847693024,971019703,61407,22,-0.128662109375,-0.93438720703125,-0.37115478515625
1759847693024,971019703,61407,23,-0.04296875,-0.91607666015625,-0.37652587890625
1759847693024,971019703,61407,24,-0.06787109375,-0.96124267578125,-0.35064697265625
1759847693024,971019703,61407,25,-0.0771484375,-0.99029541015625,-0.24786376953125
1759847693024,971019703,61407,26,-0.087646484375,-0.99761962890625,-0.25567626953125
1759847693024,971019703,61407,27,-0.016845703125,-0.95465087890625,-0.33551025390625
1759847693024,971019703,61407,28,-0.07177734375,-0.96490478515625,-0.36480712890625
1759847693024,971019703,61407,29,-0.0498046875,-0.97808837890625,-0.29742431640625
1759847693024,971019703,61407,30,-0.091796875,-0.95880126953125,-0.33892822265625
1759847693024,971019703,61407,31,-0.071044921875,-0.97198486328125,-0.34039306640625
1759847695544,971022246,61408,0,-0.08544921875,-0.97467041015625,-0.32818603515625
1759847695544,971022246,61408,1,-0.057861328125,-0.95880126953125,-0.32281494140625
1759847695544,971022246,61408,2,-0.047607421875,-0.94635009765625,-0.33306884765625
1759847695544,971022246,61408,3,-0.05419921875,-0.97027587890625,-0.41607666015625
1759847695544,971022246,61408,4,-0.113037109375,-0.98321533203125,-0.34185791015625
1759847695544,971022246,61408,5,-0.10400390625,-0.94903564453125,-0.30377197265625
1759847695544,971022246,61408,6,-0.038330078125,-0.94146728515625,-0.34844970703125
1759847695544,971022246,61408,7,-0.115478515625,-0.96270751953125,-0.32452392578125
1759847695544,971022246,61408,8,-0.049072265625,-0.97955322265625,-0.33917236328125
1759847695544,971022246,61408,9,-0.05859375,-0.96881103515625,-0.33575439453125
1759847695544,971022246,61408,10,-0.046630859375,-0.96856689453125,-0.36480712890625
1759847695544,971022246,61408,11,-0.04931640625,-0.96099853515625,-0.29180908203125
1759847695544,971022246,61408,12,-0.064453125,-0.96734619140625,-0.30426025390625
1759847695544,971022246,61408,13,-0.01953125,-0.95367431640625,-0.35577392578125
1759847695544,971022246,61408,14,-0.03662109375,-0.99835205078125,-0.31866455078125
1759847695544,971022246,61408,15,-0.06396484375,-0.93267822265625,-0.30157470703125
1759847695544,971022246,61408,16,-0.04736328125,-0.99468994140625,-0.31866455078125
1759847695544,971022246,61408,17,-0.016357421875,-0.96978759765625,-0.37091064453125
1759847695544,971022246,61408,18,-0.0322265625,-0.94171142578125,-0.33233642578125
1759847695544,971022246,61408,19,-0.02978515625,-0.96636962890625,-0.35382080078125
1759847695544,971022246,61408,20,-0.0322265625,-0.98516845703125,-0.29693603515625
1759847695544,971022246,61408,21,-0.00537109375,-0.96002197265625,-0.29669189453125
1759847695544,971022246,61408,22,0.019775390625,-0.98028564453125,-0.33209228515625
1759847695544,971022246,61408,23,-0.08544921875,-0.95147705078125,-0.34600830078125
1759847695544,971022246,61408,24,-0.11669921875,-0.98590087890625,-0.31402587890625
1759847695544,971022246,61408,25,-0.05615234375,-0.96588134765625,-0.32110595703125
1759847695544,971022246,61408,26,0.015380859375,-0.92559814453125,-0.38409423828125
1759847695544,971022246,61408,27,-0.001953125,-0.96002197265625,-0.34869384765625
1759847695544,971022246,61408,28,0.006103515625,-0.98175048828125,-0.31378173828125
1759847695544,971022246,61408,29,-0.023681640625,-0.97637939453125,-0.31109619140625
1759847695544,971022246,61408,30,0.02392578125,-0.93927001953125,-0.32989501953125
1759847695544,971022246,61408,31,-0.02734375,-0.98468017578125,-0.28228759765625
1759847698065,971024783,61409,0,0.008544921875,-0.97930908203125,-0.38214111328125
1759847698065,971024783,61409,1,-0.0166015625,-0.93194580078125,-0.28619384765625
1759847698065,971024783,61409,2,-0.058837890625,-0.99322509765625,-0.29180908203125
1759847698065,971024783,61409,3,0.00927734375,-0.97003173828125,-0.34234619140625
1759847698065,971024783,61409,4,-0.030517578125,-0.97003173828125,-0.31695556640625
1759847698065,971024783,61409,5,-0.03076171875,-0.96734619140625,-0.31109619140625
1759847698065,971024783,61409,6,-0.015380859375,-1.00665283203125,-0.29351806640625
1759847698065,971024783,61409,7,-0.01220703125,-0.95831298828125,-0.28668212890625
1759847698065,971024783,61409,8,-0.001220703125,-0.95343017578125,-0.29888916015625
1759847698065,971024783,61409,9,-0.08251953125,-1.00396728515625,-0.30621337890625
1759847698065,971024783,61409,10,-0.03857421875,-0.95025634765625,-0.30572509765625
1759847698065,971024783,61409,11,-0.061279296875,-0.94781494140625,-0.35260009765625
1759847698065,971024783,61409,12,-0.0341796875,-1.00347900390625,-0.33404541015625
1759847698065,971024783,61409,13,0.01123046875,-0.95562744140625,-0.31500244140625
1759847698065,971024783,61409,14,-0.009521484375,-1.00347900390625,-0.36798095703125
1759847698065,971024783,61409,15,-0.016845703125,-0.95245361328125,-0.25787353515625
1759847698065,971024783,61409,16,-0.059326171875,-0.99176025390625,-0.24200439453125
1759847698065,971024783,61409,17,-0.04296875,-0.93682861328125,-0.32086181640625
1759847698065,971024783,61409,18,-0.054443359375,-1.01837158203125,-0.27789306640625
1759847698065,971024783,61409,19,-0.0458984375,-0.96832275390625,-0.27032470703125
1759847698065,971024783,61409,20,-0.022216796875,-0.95758056640625,-0.30841064453125
1759847698065,971024783,61409,21,-0.045166015625,-1.00347900390625,-0.28521728515625
1759847698065,971024783,61409,22,-0.042236328125,-0.94342041015625,-0.29107666015625
1759847698065,971024783,61409,23,0.0146484375,-0.98419189453125,-0.34063720703125
1759847698065,971024783,61409,24,-0.111083984375,-0.98248291015625,-0.36505126953125
1759847698065,971024783,61409,25,-0.070068359375,-0.96539306640625,-0.35894775390625
1759847698065,971024783,61409,26,-0.098388671875,-0.94171142578125,-0.34771728515625
1759847698065,971024783,61409,27,-0.093017578125,-0.94610595703125,-0.34771728515625
1759847698065,971024783,61409,28,-0.096435546875,-0.96514892578125,-0.31500244140625
1759847698065,971024783,61409,29,-0.058837890625,-0.98101806640625,-0.33941650390625
1759847698065,971024783,61409,30,-0.033935546875,-0.97857666015625,-0.35406494140625
1759847698065,971024783,61409,31,0.0,-0.93804931640625,-0.33624267578125
1759847700585,971027326,61410,0,-0.04833984375,-0.98492431640625,-0.30035400390625
1759847700585,971027326,61410,1,-0.06982421875,-0.96978759765625,-0.28131103515625
1759847700585,971027326,61410,2,-0.01123046875,-0.97198486328125,-0.34576416015625
1759847700585,971027326,61410,3,-0.053955078125,-0.97003173828125,-0.32598876953125
1759847700585,971027326,61410,4,-0.0615234375,-0.96246337890625,-0.29815673828125
1759847700585,971027326,61410,5,-0.0361328125,-0.98492431640625,-0.32135009765625
1759847700585,971027326,61410,6,-0.0390625,-0.97125244140625,-0.29962158203125
1759847700585,971027326,61410,7,-0.06298828125,-0.96734619140625,-0.31036376953125
1759847700585,971027326,61410,8,-0.005615234375,-0.95953369140625,-0.28961181640625
1759847700585,971027326,61410,9,-0.01318359375,-0.98565673828125,-0.26544189453125
1759847700585,971027326,61410,10,-0.017578125,-0.97100830078125,-0.28692626953125
1759847700585,971027326,61410,11,-0.0556640625,-0.98931884765625,-0.30230712890625
1759847700585,971027326,61410,12,-0.103515625,-0.96173095703125,-0.34552001953125
1759847700585,971027326,61410,13,-0.0751953125,-0.97930908203125,-0.32501220703125
1759847700585,971027326,61410,14,-0.091064453125,-0.95513916015625,-0.30157470703125
1759847700585,971027326,61410,15,-0.0986328125,-0.95880126953125,-0.32208251953125
1759847700585,971027326,61410,16,-0.04052734375,-0.99542236328125,-0.29351806640625
1759847700585,971027326,61410,17,-0.024658203125,-0.96978759765625,-0.31768798828125
1759847700585,971027326,61410,18,-0.0517578125,-0.97027587890625,-0.32672119140625
1759847700585,971027326,61410,19,-0.0224609375,-0.97833251953125,-0.30157470703125
1759847700585,971027326,61410,20,-0.0556640625,-0.97393798828125,-0.29815673828125
1759847700585,971027326,61410,21,-0.0419921875,-0.96881103515625,-0.31890869140625
1759847700585,971027326,61410,22,-0.01171875,-0.96832275390625,-0.31671142578125
1759847700585,971027326,61410,23,-0.039306640625,-0.96856689453125,-0.29840087890625
1759847700585,971027326,61410,24,-0.008544921875,-0.97052001953125,-0.31793212890625
1759847700585,971027326,61410,25,-0.0341796875,-0.96368408203125,-0.30865478515625
1759847700585,971027326,61410,26,-0.03369140625,-1.02178955078125,-0.27178955078125
1759847700585,971027326,61410,27,-0.060302734375,-0.96002197265625,-0.29473876953125
1759847700585,971027326,61410,28,-0.1103515625,-0.99078369140625,-0.29888916015625
1759847700585,971027326,61410,29,-0.08056640625,-0.93023681640625,-0.28204345703125
1759847700585,971027326,61410,30,-0.068603515625,-0.98052978515625,-0.28790283203125
1759847700585,971027326,61410,31,-0.066650390625,-0.97027587890625,-0.29693603515625
1759847703105,971029869,61411,0,-0.0419921875,-0.98907470703125,-0.31134033203125
1759847703105,971029869,61411,1,-0.03466796875,-0.96685791015625,-0.33453369140625
1759847703105,971029869,61411,2,-0.035888671875,-0.97344970703125,-0.28936767578125
1759847703105,971029869,61411,3,-0.029296875,-1.01788330078125,-0.28302001953125
1759847703105,971029869,61411,4,-0.100830078125,-0.96368408203125,-0.30157470703125
1759847703105,971029869,61411,5,-0.097412109375,-0.94683837890625,-0.27325439453125
1759847703105,971029869,61411,6,-0.083984375,-0.95489501953125,-0.29058837890625
1759847703105,971029869,61411,7,-0.08740234375,-0.99542236328125,-0.33111572265625
1759847703105,971029869,61411,8,-0.0654296875,-0.99200439453125,-0.29498291015625
1759847703105,971029869,61411,9,-0.01318359375,-0.95465087890625,-0.32623291015625
1759847703105,971029869,61411,10,-0.053466796875,-0.96295166015625,-0.22955322265625
1759847703105,971029869,61411,11,-0.02294921875,-0.98834228515625,-0.29840087890625
1759847703105,971029869,61411,12,-0.0498046875,-0.98980712890625,-0.30377197265625
1759847703105,971029869,61411,13,-0.019287109375,-0.95977783203125,-0.32208251953125
1759847703105,971029869,61411,14,-0.036376953125,-0.96685791015625,-0.31475830078125
1759847703105,971029869,61411,15,-0.06103515625,-0.97467041015625,-0.33966064453125
1759847703105,971029869,61411,16,-0.02783203125,-0.98150634765625,-0.30035400390625
1759847703105,971029869,61411,17,0.003662109375,-0.95904541015625,-0.34429931640625
1759847703105,971029869,61411,18,0.00634765625,-0.97686767578125,-0.29229736328125
1759847703105,971029869,61411,19,-0.00244140625,-0.96270751953125,-0.32305908203125
1759847703105,971029869,61411,20,0.01171875,-0.97198486328125,-0.33624267578125
1759847703105,971029869,61411,21,-0.016357421875,-0.96612548828125,-0.31011962890625
1759847703105,971029869,61411,22,-0.01220703125,-0.97882080078125,-0.29840087890625
1759847703105,971029869,61411,23,-0.02294921875,-0.97686767578125,-0.29937744140625
1759847703105,971029869,61411,24,0.009033203125,-0.95977783203125,-0.31915283203125
1759847703105,971029869,61411,25,-0.01904296875,-0.97003173828125,-0.31573486328125
1759847703105,971029869,61411,26,-0.0126953125,-0.97711181640625,-0.30328369140625
1759847703105,971029869,61411,27,-0.00732421875,-0.96881103515625,-0.33331298828125
1759847703105,971029869,61411,28,-0.014404296875,-0.94659423828125,-0.35260009765625
1759847703105,971029869,61411,29,-0.06298828125,-0.95953369140625,-0.40118408203125
1759847703105,971029869,61411,30,-0.076416015625,-0.93121337890625,-0.35284423828125
1759847703105,971029869,61411,31,-0.145263671875,-1.02154541015625,-0.33453369140625
1759847705804,971032412,61412,0,-0.1201171875,-0.93927001953125,-0.31573486328125
1759847705804,971032412,61412,1,-0.08349609375,-0.97198486328125,-0.39117431640625
1759847705804,971032412,61412,2,-0.102294921875,-0.94757080078125,-0.34478759765625
1759847705804,971032412,61412,3,-0.10498046875,-0.98126220703125,-0.29669189453125
1759847705804,971032412,61412,4,-0.095458984375,-0.98687744140625,-0.27984619140625
1759847705804,971032412,61412,5,-0.089599609375,-0.97711181640625,-0.30743408203125
1759847705804,971032412,61412,6,-0.11083984375,-0.98858642578125,-0.30718994140625
1759847705804,971032412,61412,7,-0.074951171875,-0.93634033203125,-0.28594970703125
1759847705804,971032412,61412,8,-0.061767578125,-0.99298095703125,-0.25909423828125
1759847705804,971032412,61412,9,-0.069091796875,-0.98980712890625,-0.24810791015625
1759847705804,971032412,61412,10,-0.102294921875,-0.96343994140625,-0.27618408203125
1759847705804,971032412,61412,11,-0.114990234375,-0.98492431640625,-0.25787353515625
1759847705804,971032412,61412,12,-0.118408203125,-0.98590087890625,-0.26104736328125
1759847705804,971032412,61412,13,-0.131103515625,-0.99053955078125,-0.25250244140625
1759847705804,971032412,61412,14,-0.12890625,-0.98565673828125,-0.26568603515625
1759847705804,971032412,61412,15,-0.10986328125,-0.96929931640625,-0.28424072265625
1759847705804,971032412,61412,16,-0.090087890625,-0.98126220703125,-0.28253173828125
1759847705804,971032412,61412,17,-0.060791015625,-0.95196533203125,-0.32183837890625
1759847705804,971032412,61412,18,-0.063720703125,-0.97491455078125,-0.30963134765625
1759847705804,971032412,61412,19,-0.07177734375,-0.97613525390625,-0.30645751953125
1759847705804,971032412,61412,20,-0.073486328125,-0.96246337890625,-0.31939697265625
1759847705804,971032412,61412,21,-0.080810546875,-0.97027587890625,-0.31256103515625
1759847705804,971032412,61412,22,-0.082763671875,-0.97393798828125,-0.31109619140625
1759847705804,971032412,61412,23,-0.09326171875,-0.96612548828125,-0.31842041015625
1759847705804,971032412,61412,24,-0.107666015625,-0.99078369140625,-0.28472900390625
1759847705804,971032412,61412,25,-0.10498046875,-0.97930908203125,-0.33502197265625
1759847705804,971032412,61412,26,-0.11474609375,-0.98297119140625,-0.34771728515625
1759847705804,971032412,61412,27,-0.10546875,-0.88995361328125,-0.32452392578125
1759847705804,971032412,61412,28,-0.12158203125,-0.98052978515625,-0.29278564453125
1759847705804,971032412,61412,29,-0.13427734375,-0.99566650390625,-0.30865478515625
1759847705804,971032412,61412,30,-0.1083984375,-1.02008056640625,-0.31988525390625
1759847705804,971032412,61412,31,-0.094482421875,-0.94268798828125,-0.29766845703125
1759847708324,971034955,61413,0,-0.125732421875,-0.97930908203125,-0.31353759765625
1759847708324,971034955,61413,1,-0.0966796875,-0.95391845703125,-0.28424072265625
1759847708324,971034955,61413,2,-0.123291015625,-0.97442626953125,-0.29522705078125
1759847708324,971034955,61413,3,-0.1298828125,-0.97906494140625,-0.29644775390625
1759847708324,971034955,61413,4,-0.138671875,-0.96417236328125,-0.29644775390625
1759847708324,971034955,61413,5,-0.11474609375,-0.98541259765625,-0.24346923828125
1759847708324,971034955,61413,6,-0.13427734375,-0.99224853515625,-0.23101806640625
1759847708324,971034955,61413,7,-0.151123046875,-1.03033447265625,-0.18902587890625
1759847708324,971034955,61413,8,-0.130615234375,-0.99151611328125,-0.24810791015625
1759847708324,971034955,61413,9,-0.138916015625,-0.94097900390625,-0.21734619140625
1759847708324,971034955,61413,10,-0.106689453125,-0.99713134765625,-0.24371337890625
1759847708324,971034955,61413,11,-0.11181640625,-0.96173095703125,-0.25567626953125
1759847708324,971034955,61413,12,-0.122802734375,-0.98052978515625,-0.25128173828125
1759847708324,971034955,61413,13,-0.12451171875,-0.98541259765625,-0.20904541015625
1759847708324,971034955,61413,14,-0.107666015625,-1.00128173828125,-0.19976806640625
1759847708324,971034955,61413,15,-0.150390625,-0.99615478515625,-0.19390869140625
1759847708324,971034955,61413,16,-0.151611328125,-0.98785400390625,-0.20489501953125
1759847708324,971034955,61413,17,-0.134521484375,-0.99517822265625,-0.22271728515625
1759847708324,971034955,61413,18,-0.134033203125,-0.99273681640625,-0.22271728515625
1759847708324,971034955,61413,19,-0.09716796875,-0.97467041015625,-0.23175048828125
1759847708324,971034955,61413,20,-0.083251953125,-1.01104736328125,-0.23931884765625
1759847708324,971034955,61413,21,-0.07373046875,-0.97149658203125,-0.25885009765625
1759847708324,971034955,61413,22,-0.124755859375,-0.97515869140625,-0.18145751953125
1759847708324,971034955,61413,23,-0.09765625,-0.97760009765625,-0.21710205078125
1759847708324,971034955,61413,24,-0.093505859375,-0.99737548828125,-0.21588134765625
1759847708324,971034955,61413,25,-0.09814453125,-0.99151611328125,-0.22393798828125
1759847708324,971034955,61413,26,-0.091064453125,-0.99444580078125,-0.24591064453125
1759847708324,971034955,61413,27,-0.102294921875,-0.98614501953125,-0.25323486328125
1759847708324,971034955,61413,28,-0.102294921875,-0.97564697265625,-0.25543212890625
1759847708324,971034955,61413,29,-0.062255859375,-0.98297119140625,-0.23175048828125
1759847708324,971034955,61413,30,-0.045654296875,-0.99615478515625,-0.25811767578125
1759847708324,971034955,61413,31,-0.057373046875,-0.99200439453125,-0.25933837890625
1759847710846,971037498,61414,0,-0.061279296875,-0.98321533203125,-0.30889892578125
1759847710846,971037498,61414,1,-0.12060546875,-0.96636962890625,-0.24908447265625
1759847710846,971037498,61414,2,-0.12109375,-1.01422119140625,-0.29498291015625
1759847710846,971037498,61414,3,-0.078369140625,-0.91290283203125,-0.29888916015625
1759847710846,971037498,61414,4,-0.061767578125,-1.02032470703125,-0.22637939453125
1759847710846,971037498,61414,5,-0.04541015625,-0.96002197265625,-0.28302001953125
1759847710846,971037498,61414,6,-0.040771484375,-0.98101806640625,-0.32843017578125
1759847710846,971037498,61414,7,-0.081298828125,-0.95855712890625,-0.33526611328125
1759847710846,971037498,61414,8,-0.06982421875,-0.94879150390625,-0.31866455078125
1759847710846,971037498,61414,9,-0.08203125,-0.98199462890625,-0.36016845703125
1759847710846,971037498,61414,10,-0.142578125,-0.96710205078125,-0.34625244140625
1759847710846,971037498,61414,11,-0.165283203125,-0.95416259765625,-0.27618408203125
1759847710846,971037498,61414,12,-0.146240234375,-0.97467041015625,-0.27618408203125
1759847710846,971037498,61414,13,-0.107666015625,-0.98785400390625,-0.31182861328125
1759847710846,971037498,61414,14,-0.052978515625,-0.94488525390625,-0.35772705078125
1759847710846,971037498,61414,15,-0.07568359375,-0.96197509765625,-0.34844970703125
1759847710846,971037498,61414,16,-0.061767578125,-0.96856689453125,-0.33892822265625
1759847710846,971037498,61414,17,-0.065185546875,-0.96612548828125,-0.31866455078125
1759847710846,971037498,61414,18,-0.04833984375,-0.97271728515625,-0.30694580078125
1759847710846,971037498,61414,19,-0.05712890625,-0.96588134765625,-0.30474853515625
1759847710846,971037498,61414,20,-0.049560546875,-0.97296142578125,-0.31036376953125
1759847710846,971037498,61414,21,-0.0302734375,-0.96466064453125,-0.33355712890625
1759847710846,971037498,61414,22,-0.048583984375,-0.96856689453125,-0.28936767578125
1759847710846,971037498,61414,23,-0.115234375,-0.96124267578125,-0.30255126953125
1759847710846,971037498,61414,24,-0.1044921875,-0.99224853515625,-0.29425048828125
1759847710846,971037498,61414,25,-0.06689453125,-0.97271728515625,-0.29400634765625
1759847710846,971037498,61414,26,-0.06689453125,-0.96954345703125,-0.31109619140625
1759847710846,971037498,61414,27,-0.0576171875,-0.97149658203125,-0.31768798828125
1759847710846,971037498,61414,28,-0.0517578125,-0.97833251953125,-0.30572509765625
1759847710846,971037498,61414,29,-0.041748046875,-0.97955322265625,-0.32598876953125
1759847710846,971037498,61414,30,-0.053466796875,-1.01348876953125,-0.34552001953125
1759847710846,971037498,61414,31,-0.018798828125,-0.90435791015625,-0.29742431640625
1759847713364,971040041,61415,0,-0.036865234375,-1.00079345703125,-0.22369384765625
1759847713364,971040041,61415,1,0.015380859375,-0.98223876953125,-0.24713134765625
1759847713364,971040041,61415,2,0.015380859375,-0.98101806640625,-0.27447509765625
1759847713364,971040041,61415,3,-0.021728515625,-0.96197509765625,-0.26104736328125
1759847713364,971040041,61415,4,-0.02587890625,-0.99664306640625,-0.27789306640625
1759847713364,971040041,61415,5,-0.036376953125,-0.98907470703125,-0.27935791015625
1759847713364,971040041,61415,6,-0.04638671875,-0.96343994140625,-0.28302001953125
1759847713364,971040041,61415,7,-0.067626953125,-1.01104736328125,-0.29815673828125
1759847713364,971040041,61415,8,-0.03369140625,-0.95953369140625,-0.27691650390625
1759847713364,971040041,61415,9,-0.01513671875,-0.98809814453125,-0.26226806640625
1759847713364,971040041,61415,10,-0.060546875,-0.97564697265625,-0.23468017578125
1759847713364,971040041,61415,11,-0.037109375,-0.98199462890625,-0.25469970703125
1759847713364,971040041,61415,12,-0.1015625,-0.99517822265625,-0.25836181640625
1759847713364,971040041,61415,13,-0.08056640625,-0.98785400390625,-0.25177001953125
1759847713364,971040041,61415,14,-0.08203125,-0.98638916015625,-0.25054931640625
1759847713364,971040041,61415,15,-0.126953125,-0.96539306640625,-0.17315673828125
1759847713364,971040041,61415,16,-0.050048828125,-0.98443603515625,-0.36016845703125
1759847713364,971040041,61415,17,-0.07568359375,-1.01666259765625,-0.41510009765625
1759847713364,971040041,61415,18,-0.042236328125,-0.92291259765625,-0.25030517578125
1759847713364,971040041,61415,19,-0.103759765625,-1.01373291015625,-0.23516845703125
1759847713364,971040041,61415,20,-0.073974609375,-0.96368408203125,-0.21856689453125
1759847713364,971040041,61415,21,-0.086181640625,-1.02984619140625,-0.25299072265625
1759847713364,971040041,61415,22,-0.02392578125,-0.90924072265625,-0.35650634765625
1759847713364,971040041,61415,23,-0.022216796875,-1.04180908203125,-0.28936767578125
1759847713364,971040041,61415,24,-0.054931640625,-0.93487548828125,-0.22198486328125
1759847713364,971040041,61415,25,-0.003173828125,-0.99273681640625,-0.30865478515625
1759847713364,971040041,61415,26,-0.08544921875,-0.98907470703125,-0.24713134765625
1759847713364,971040041,61415,27,-0.056884765625,-0.95343017578125,-0.28521728515625
1759847713364,971040041,61415,28,-0.01513671875,-1.01544189453125,-0.38629150390625
1759847713364,971040041,61415,29,-0.028564453125,-0.94146728515625,-0.24981689453125
1759847713364,971040041,61415,30,-0.048095703125,-1.00787353515625,-0.18707275390625
1759847713364,971040041,61415,31,-0.08447265625,-0.97760009765625,-0.33843994140625
1759847715884,971042584,61416,0,-0.04638671875,-0.96563720703125,-0.32281494140625
1759847715884,971042584,61416,1,-0.090576171875,-0.96099853515625,-0.25323486328125
1759847715884,971042584,61416,2,-0.0712890625,-1.00567626953125,-0.24420166015625
1759847715884,971042584,61416,3,-0.12060546875,-0.97174072265625,-0.27911376953125
1759847715884,971042584,61416,4,-0.091796875,-0.98565673828125,-0.29742431640625
1759847715884,971042584,61416,5,-0.07421875,-0.98736572265625,-0.24176025390625
1759847715884,971042584,61416,6,-0.09033203125,-0.98687744140625,-0.34649658203125
1759847715884,971042584,61416,7,-0.03759765625,-0.87506103515625,-0.42291259765625
1759847715884,971042584,61416,8,-0.128662109375,-1.03179931640625,-0.27496337890625
1759847715884,971042584,61416,9,-0.108154296875,-0.98150634765625,-0.28253173828125
1759847715884,971042584,61416,10,-0.10498046875,-0.99005126953125,-0.31280517578125
1759847715884,971042584,61416,11,-0.02685546875,-0.91656494140625,-0.35919189453125
1759847715884,971042584,61416,12,-0.105224609375,-0.98760986328125,-0.29498291015625
1759847715884,971042584,61416,13,-0.08544921875,-0.98028564453125,-0.31695556640625
1759847715884,971042584,61416,14,-0.06982421875,-0.95562744140625,-0.34112548828125
1759847715884,971042584,61416,15,-0.060546875,-0.96099853515625,-0.33575439453125
1759847715884,971042584,61416,16,-0.09423828125,-0.96954345703125,-0.32330322265625
1759847715884,971042584,61416,17,-0.079345703125,-0.97711181640625,-0.33233642578125
1759847715884,971042584,61416,18,-0.052001953125,-0.95465087890625,-0.35137939453125
1759847715884,971042584,61416,19,-0.060302734375,-0.96417236328125,-0.32794189453125
1759847715884,971042584,61416,20,-0.066162109375,-0.97369384765625,-0.30426025390625
1759847715884,971042584,61416,21,-0.0673828125,-0.97686767578125,-0.29986572265625
1759847715884,971042584,61416,22,-0.03564453125,-0.99932861328125,-0.29547119140625
1759847715884,971042584,61416,23,-0.11767578125,-0.92877197265625,-0.34381103515625
1759847715884,971042584,61416,24,-0.111572265625,-1.04669189453125,-0.32965087890625
1759847715884,971042584,61416,25,-0.052001953125,-0.87799072265625,-0.26129150390625
1759847715884,971042584,61416,26,-0.080810546875,-1.06109619140625,-0.21514892578125
1759847715884,971042584,61416,27,-0.10302734375,-0.97076416015625,-0.19830322265625
1759847715884,971042584,61416,28,-0.054931640625,-0.96173095703125,-0.27276611328125
1759847715884,971042584,61416,29,-0.066650390625,-1.01397705078125,-0.23492431640625
1759847715884,971042584,61416,30,-0.093017578125,-0.98272705078125,-0.24639892578125
1759847715884,971042584,61416,31,-0.045166015625,-0.94976806640625,-0.27667236328125
1759847718403,971045127,61417,0,-0.1181640625,-1.04302978515625,-0.22857666015625
1759847718403,971045127,61417,1,-0.0849609375,-0.93878173828125,-0.22711181640625
1759847718403,971045127,61417,2,-0.031494140625,-1.00543212890625,-0.31475830078125
1759847718403,971045127,61417,3,-0.08203125,-0.98175048828125,-0.20562744140625
1759847718403,971045127,61417,4,-0.09228515625,-0.96099853515625,-0.29742431640625
1759847718403,971045127,61417,5,-0.0205078125,-0.98614501953125,-0.35211181640625
1759847718403,971045127,61417,6,-0.077880859375,-1.03790283203125,-0.29010009765625
1759847718403,971045127,61417,7,-0.124267578125,-0.90386962890625,-0.18951416015625
1759847718403,971045127,61417,8,-0.13720703125,-1.03985595703125,-0.20294189453125
1759847718403,971045127,61417,9,-0.066650390625,-0.92877197265625,-0.25201416015625
1759847718403,971045127,61417,10,-0.048828125,-1.01422119140625,-0.26446533203125
1759847718403,971045127,61417,11,-0.112548828125,-1.01324462890625,-0.24493408203125
1759847718403,971045127,61417,12,-0.1279296875,-0.91461181640625,-0.31695556640625
1759847718403,971045127,61417,13,-0.09130859375,-1.02276611328125,-0.32745361328125
1759847718403,971045127,61417,14,-0.075439453125,-0.96881103515625,-0.24591064453125
1759847718403,971045127,61417,15,-0.152587890625,-0.98101806640625,-0.19927978515625
1759847718403,971045127,61417,16,-0.046630859375,-0.98468017578125,-0.26763916015625
1759847718403,971045127,61417,17,-0.067626953125,-0.97613525390625,-0.29376220703125
1759847718403,971045127,61417,18,-0.113525390625,-1.00592041015625,-0.17584228515625
1759847718403,971045127,61417,19,-0.07568359375,-0.95050048828125,-0.22393798828125
1759847718403,971045127,61417,20,-0.034912109375,-1.04132080078125,-0.32598876953125
1759847718403,971045127,61417,21,-0.070068359375,-0.91094970703125,-0.25543212890625
1759847718403,971045127,61417,22,-0.078125,-1.00787353515625,-0.24786376953125
1759847718403,971045127,61417,23,-0.074462890625,-1.00177001953125,-0.28717041015625
1759847718403,971045127,61417,24,-0.0888671875,-0.97418212890625,-0.27862548828125
1759847718403,971045127,61417,25,-0.136474609375,-0.95001220703125,-0.23443603515625
1759847718403,971045127,61417,26,0.01220703125,-1.02008056640625,-0.33526611328125
1759847718403,971045127,61417,27,-0.115966796875,-0.96368408203125,-0.29058837890625
1759847718403,971045127,61417,28,-0.105224609375,-0.95806884765625,-0.25152587890625
1759847718403,971045127,61417,29,-0.075927734375,-1.00885009765625,-0.31964111328125
1759847718403,971045127,61417,30,-0.0947265625,-0.94146728515625,-0.33160400390625
1759847718403,971045127,61417,31,-0.107421875,-0.98028564453125,-0.31280517578125
1759847721105,971047670,61418,0,-0.0849609375,-0.98687744140625,-0.28863525390625
1759847721105,971047670,61418,1,-0.05908203125,-0.97784423828125,-0.30084228515625
1759847721105,971047670,61418,2,-0.062744140625,-0.97076416015625,-0.28302001953125
1759847721105,971047670,61418,3,-0.06298828125,-0.97711181640625,-0.29986572265625
