receivedPhoneTimestamp,respeckTimestamp,packetSeqNum,sampleSeqNum,accelX,accelY,accelZ
1760020278377,78052821,867,17,0.08740234375,-1.01690673828125,0.21893310546875
1760020278377,78052821,867,18,0.090087890625,-1.01837158203125,0.20697021484375
1760020278377,78052821,867,19,0.085205078125,-1.01153564453125,0.21209716796875
1760020278377,78052821,867,20,0.085693359375,-1.01397705078125,0.20379638671875
1760020278377,78052821,867,21,0.082275390625,-1.01324462890625,0.14739990234375
1760020278377,78052821,867,22,0.09814453125,-0.99688720703125,0.20257568359375
1760020278377,78052821,867,23,0.092529296875,-1.05181884765625,0.17108154296875
1760020278377,78052821,867,24,0.1142578125,-1.06842041015625,0.19158935546875
1760020278377,78052821,867,25,0.095458984375,-1.01153564453125,0.15789794921875
1760020278377,78052821,867,26,0.0966796875,-1.03131103515625,0.17572021484375
1760020278377,78052821,867,27,0.107421875,-1.03350830078125,0.16058349609375
1760020278377,78052821,867,28,0.108154296875,-1.02520751953125,0.17010498046875
1760020278377,78052821,867,29,0.095703125,-1.02960205078125,0.15838623046875
1760020278377,78052821,867,30,0.108154296875,-1.02349853515625,0.16546630859375
1760020278377,78052821,867,31,0.114990234375,-1.02886962890625,0.16351318359375
1760020281083,78055394,868,0,0.111328125,-1.02862548828125,0.15838623046875
1760020281083,78055394,868,1,0.116455078125,-1.02838134765625,0.15179443359375
1760020281083,78055394,868,2,0.109619140625,-1.03204345703125,0.14984130859375
1760020281083,78055394,868,3,0.113525390625,-1.02886962890625,0.14837646484375
1760020281083,78055394,868,4,0.1220703125,-1.02935791015625,0.15765380859375
1760020281083,78055394,868,5,0.1162109375,-1.01739501953125,0.15252685546875
1760020281083,78055394,868,6,0.118896484375,-1.02984619140625,0.15643310546875
1760020281083,78055394,868,7,0.122802734375,-1.02520751953125,0.14251708984375
1760020281083,78055394,868,8,0.124267578125,-1.02886962890625,0.14080810546875
1760020281083,78055394,868,9,0.134765625,-1.03594970703125,0.17205810546875
1760020281083,78055394,868,10,0.11328125,-1.02398681640625,0.14007568359375
1760020281083,78055394,868,11,0.12353515625,-1.03717041015625,0.14349365234375
1760020281083,78055394,868,12,0.11767578125,-1.03985595703125,0.12738037109375
1760020281083,78055394,868,13,0.1181640625,-1.01934814453125,0.14837646484375
1760020281083,78055394,868,14,0.126220703125,-1.03131103515625,0.11395263671875
1760020281083,78055394,868,15,0.12548828125,-1.03985595703125,0.12933349609375
1760020281083,78055394,868,16,0.1328125,-1.03350830078125,0.12298583984375
1760020281083,78055394,868,17,0.131591796875,-1.03326416015625,0.12908935546875
1760020281083,78055394,868,18,0.118408203125,-1.03424072265625,0.12005615234375
1760020281083,78055394,868,19,0.12158203125,-1.03839111328125,0.12591552734375
1760020281083,78055394,868,20,0.12060546875,-1.02325439453125,0.11663818359375
1760020281083,78055394,868,21,0.1181640625,-1.03985595703125,0.13885498046875
1760020281083,78055394,868,22,0.12548828125,-1.03521728515625,0.12860107421875
1760020281083,78055394,868,23,0.121826171875,-1.02349853515625,0.11517333984375
1760020281083,78055394,868,24,0.12109375,-1.03790283203125,0.12640380859375
1760020281083,78055394,868,25,0.12109375,-1.03570556640625,0.13275146484375
1760020281083,78055394,868,26,0.119384765625,-1.02984619140625,0.11956787109375
1760020281083,78055394,868,27,0.12353515625,-1.03277587890625,0.12738037109375
1760020281083,78055394,868,28,0.12060546875,-1.03570556640625,0.13592529296875
1760020281083,78055394,868,29,0.12109375,-1.02642822265625,0.12298583984375
1760020281083,78055394,868,30,0.125,-1.03497314453125,0.12884521484375
1760020281083,78055394,868,31,0.1220703125,-1.03594970703125,0.12811279296875
1760020283624,78057967,869,0,0.11962890625,-1.03594970703125,0.12982177734375
1760020283624,78057967,869,1,0.119140625,-1.03204345703125,0.12811279296875
1760020283624,78057967,869,2,0.1201171875,-1.03082275390625,0.13128662109375
1760020283624,78057967,869,3,0.117919921875,-1.03594970703125,0.12567138671875
1760020283624,78057967,869,4,0.121826171875,-1.03302001953125,0.13006591796875
1760020283624,78057967,869,5,0.119873046875,-1.03350830078125,0.12786865234375
1760020283624,78057967,869,6,0.128173828125,-1.03204345703125,0.12640380859375
1760020283624,78057967,869,7,0.122314453125,-1.02716064453125,0.12396240234375
1760020283624,78057967,869,8,0.124755859375,-1.03546142578125,0.13055419921875
1760020283624,78057967,869,9,0.12548828125,-1.02960205078125,0.13323974609375
1760020283624,78057967,869,10,0.126953125,-1.03204345703125,0.13104248046875
1760020283624,78057967,869,11,0.126220703125,-1.03057861328125,0.11810302734375
1760020283624,78057967,869,12,0.137451171875,-1.03399658203125,0.13568115234375
1760020283624,78057967,869,13,0.12890625,-1.03204345703125,0.12249755859375
1760020283624,78057967,869,14,0.129638671875,-1.03448486328125,0.12640380859375
1760020283624,78057967,869,15,0.125,-1.03277587890625,0.12469482421875
1760020283624,78057967,869,16,0.1123046875,-1.02911376953125,0.12615966796875
1760020283624,78057967,869,17,0.134521484375,-1.03155517578125,0.13641357421875
1760020283624,78057967,869,18,0.127197265625,-1.03790283203125,0.15228271484375
1760020283624,78057967,869,19,0.118408203125,-1.03399658203125,0.15667724609375
1760020283624,78057967,869,20,0.1181640625,-1.02789306640625,0.14398193359375
1760020283624,78057967,869,21,0.104736328125,-1.02447509765625,0.15155029296875
1760020283624,78057967,869,22,0.11767578125,-1.02935791015625,0.16009521484375
1760020283624,78057967,869,23,0.103759765625,-1.02178955078125,0.14715576171875
1760020283624,78057967,869,24,0.10986328125,-1.02642822265625,0.16107177734375
1760020283624,78057967,869,25,0.10986328125,-1.02374267578125,0.14495849609375
1760020283624,78057967,869,26,0.11376953125,-1.03204345703125,0.15789794921875
1760020283624,78057967,869,27,0.113037109375,-1.02642822265625,0.15350341796875
1760020283624,78057967,869,28,0.116455078125,-1.02642822265625,0.14447021484375
1760020283624,78057967,869,29,0.111572265625,-1.03057861328125,0.15423583984375
1760020283624,78057967,869,30,0.120849609375,-1.03082275390625,0.15325927734375
1760020283624,78057967,869,31,0.119384765625,-1.03131103515625,0.14349365234375
1760020286183,78060540,870,0,0.119873046875,-1.02740478515625,0.14886474609375
1760020286183,78060540,870,1,0.121826171875,-1.02935791015625,0.14862060546875
1760020286183,78060540,870,2,0.11767578125,-1.02813720703125,0.14495849609375
1760020286183,78060540,870,3,0.118408203125,-1.03204345703125,0.14886474609375
1760020286183,78060540,870,4,0.11962890625,-1.02984619140625,0.14739990234375
1760020286183,78060540,870,5,0.11669921875,-1.03057861328125,0.14447021484375
1760020286183,78060540,870,6,0.11962890625,-1.03204345703125,0.14739990234375
1760020286183,78060540,870,7,0.1181640625,-1.03179931640625,0.15057373046875
1760020286183,78060540,870,8,0.119140625,-1.02471923828125,0.14373779296875
1760020286183,78060540,870,9,0.126220703125,-1.03082275390625,0.14251708984375
1760020286183,78060540,870,10,0.12646484375,-1.03131103515625,0.14715576171875
1760020286183,78060540,870,11,0.120849609375,-1.02691650390625,0.14324951171875
1760020286183,78060540,870,12,0.12255859375,-1.02862548828125,0.15252685546875
1760020286183,78060540,870,13,0.123046875,-1.03179931640625,0.14178466796875
1760020286183,78060540,870,14,0.1142578125,-1.02740478515625,0.14276123046875
1760020286183,78060540,870,15,0.1201171875,-1.03033447265625,0.15008544921875
1760020286183,78060540,870,16,0.113525390625,-1.02716064453125,0.14300537109375
1760020286183,78060540,870,17,0.12548828125,-1.02789306640625,0.14617919921875
1760020286183,78060540,870,18,0.12158203125,-1.03009033203125,0.14739990234375
1760020286183,78060540,870,19,0.12353515625,-1.02764892578125,0.14715576171875
1760020286183,78060540,870,20,0.12646484375,-1.02593994140625,0.14837646484375
1760020286183,78060540,870,21,0.1220703125,-1.02764892578125,0.14276123046875
1760020286183,78060540,870,22,0.123046875,-1.03155517578125,0.14422607421875
1760020286183,78060540,870,23,0.124755859375,-1.03082275390625,0.14202880859375
1760020286183,78060540,870,24,0.1220703125,-1.03106689453125,0.14813232421875
1760020286183,78060540,870,25,0.126953125,-1.02252197265625,0.13519287109375
1760020286183,78060540,870,26,0.11376953125,-1.03497314453125,0.14910888671875
1760020286183,78060540,870,27,0.120361328125,-1.02886962890625,0.14593505859375
1760020286183,78060540,870,28,0.118408203125,-1.02789306640625,0.14227294921875
1760020286183,78060540,870,29,0.121826171875,-1.03302001953125,0.14300537109375
1760020286183,78060540,870,30,0.12109375,-1.02911376953125,0.14105224609375
1760020286183,78060540,870,31,0.12255859375,-1.02716064453125,0.14202880859375
1760020288729,78063113,871,0,0.123291015625,-1.02984619140625,0.14666748046875
1760020288729,78063113,871,1,0.12255859375,-1.02838134765625,0.14349365234375
1760020288729,78063113,871,2,0.11962890625,-1.02789306640625,0.14398193359375
1760020288729,78063113,871,3,0.127685546875,-1.03350830078125,0.15447998046875
1760020288729,78063113,871,4,0.128173828125,-1.03155517578125,0.16009521484375
1760020288729,78063113,871,5,0.126220703125,-1.02691650390625,0.14520263671875
1760020288729,78063113,871,6,0.125732421875,-1.02520751953125,0.17547607421875
1760020288729,78063113,871,7,0.119873046875,-1.02252197265625,0.16619873046875
1760020288729,78063113,871,8,0.119140625,-1.02447509765625,0.14324951171875
1760020288729,78063113,871,9,0.127685546875,-1.02032470703125,0.17962646484375
1760020288729,78063113,871,10,0.1240234375,-1.01666259765625,0.15032958984375
1760020288729,78063113,871,11,0.132568359375,-1.01373291015625,0.16644287109375
1760020288729,78063113,871,12,0.127685546875,-1.02984619140625,0.17132568359375
1760020288729,78063113,871,13,0.148193359375,-1.02032470703125,0.17864990234375
1760020288729,78063113,871,14,0.125732421875,-1.01397705078125,0.15618896484375
1760020288729,78063113,871,15,0.133544921875,-1.02593994140625,0.15057373046875
1760020288729,78063113,871,16,0.138671875,-1.02789306640625,0.17059326171875
1760020288729,78063113,871,17,0.1396484375,-1.02130126953125,0.15667724609375
1760020288729,78063113,871,18,0.138671875,-1.02227783203125,0.16131591796875
1760020288729,78063113,871,19,0.1435546875,-1.02520751953125,0.15643310546875
1760020288729,78063113,871,20,0.14306640625,-1.02423095703125,0.14959716796875
1760020288729,78063113,871,21,0.1435546875,-1.02423095703125,0.16033935546875
1760020288729,78063113,871,22,0.140869140625,-1.02642822265625,0.15350341796875
1760020288729,78063113,871,23,0.13916015625,-1.02154541015625,0.15570068359375
1760020288729,78063113,871,24,0.140625,-1.02301025390625,0.15911865234375
1760020288729,78063113,871,25,0.140869140625,-1.03399658203125,0.16229248046875
1760020288729,78063113,871,26,0.13671875,-1.02862548828125,0.17889404296875
1760020288729,78063113,871,27,0.13134765625,-1.02056884765625,0.16839599609375
1760020288729,78063113,871,28,0.135986328125,-1.02520751953125,0.17034912109375
1760020288729,78063113,871,29,0.132080078125,-1.01544189453125,0.19720458984375
1760020288729,78063113,871,30,0.123291015625,-1.01348876953125,0.19818115234375
1760020288729,78063113,871,31,0.130615234375,-1.01007080078125,0.18524169921875
1760020291283,78065686,872,0,0.129638671875,-1.00177001953125,0.17938232421875
1760020291283,78065686,872,1,0.132568359375,-1.01495361328125,0.21673583984375
1760020291283,78065686,872,2,0.133544921875,-1.01641845703125,0.19158935546875
1760020291283,78065686,872,3,0.137939453125,-1.01324462890625,0.19012451171875
1760020291283,78065686,872,4,0.13525390625,-1.02008056640625,0.18182373046875
1760020291283,78065686,872,5,0.12841796875,-1.01788330078125,0.18963623046875
1760020291283,78065686,872,6,0.128173828125,-1.01861572265625,0.18353271484375
1760020291283,78065686,872,7,0.130859375,-1.01568603515625,0.18109130859375
1760020291283,78065686,872,8,0.130859375,-1.01885986328125,0.19305419921875
1760020291283,78065686,872,9,0.12841796875,-1.01910400390625,0.17791748046875
1760020291283,78065686,872,10,0.1259765625,-1.01861572265625,0.18035888671875
1760020291283,78065686,872,11,0.12841796875,-1.01544189453125,0.18377685546875
1760020291283,78065686,872,12,0.128662109375,-1.02154541015625,0.17791748046875
1760020291283,78065686,872,13,0.126220703125,-1.01544189453125,0.16741943359375
1760020291283,78065686,872,14,0.1318359375,-1.02642822265625,0.17669677734375
1760020291283,78065686,872,15,0.131103515625,-1.02203369140625,0.16937255859375
1760020291283,78065686,872,16,0.126220703125,-1.02520751953125,0.16668701171875
1760020291283,78065686,872,17,0.1298828125,-1.02618408203125,0.16351318359375
1760020291283,78065686,872,18,0.1328125,-1.02642822265625,0.15936279296875
1760020291283,78065686,872,19,0.125732421875,-1.02423095703125,0.16424560546875
1760020291283,78065686,872,20,0.126708984375,-1.02447509765625,0.16229248046875
1760020291283,78065686,872,21,0.131591796875,-1.02276611328125,0.15618896484375
1760020291283,78065686,872,22,0.13525390625,-1.02642822265625,0.16180419921875
1760020291283,78065686,872,23,0.1318359375,-1.02520751953125,0.15814208984375
1760020291283,78065686,872,24,0.135009765625,-1.02716064453125,0.15863037109375
1760020291283,78065686,872,25,0.13427734375,-1.02276611328125,0.15277099609375
1760020291283,78065686,872,26,0.13623046875,-1.02545166015625,0.16180419921875
1760020291283,78065686,872,27,0.12890625,-1.02740478515625,0.15911865234375
1760020291283,78065686,872,28,0.1279296875,-1.02569580078125,0.15472412109375
1760020291283,78065686,872,29,0.128662109375,-1.02813720703125,0.15252685546875
1760020291283,78065686,872,30,0.12841796875,-1.02203369140625,0.15008544921875
1760020291283,78065686,872,31,0.12451171875,-1.02862548828125,0.15032958984375
1760020293834,78068259,873,0,0.123779296875,-1.03082275390625,0.15203857421875
1760020293834,78068259,873,1,0.123779296875,-1.02642822265625,0.14276123046875
1760020293834,78068259,873,2,0.12158203125,-1.02764892578125,0.14251708984375
1760020293834,78068259,873,3,0.1259765625,-1.02984619140625,0.14544677734375
1760020293834,78068259,873,4,0.11865234375,-1.03155517578125,0.14666748046875
1760020293834,78068259,873,5,0.123779296875,-1.02569580078125,0.14642333984375
1760020293834,78068259,873,6,0.123046875,-1.03082275390625,0.14837646484375
1760020293834,78068259,873,7,0.122314453125,-1.02276611328125,0.14691162109375
1760020293834,78068259,873,8,0.124267578125,-1.02984619140625,0.14300537109375
1760020293834,78068259,873,9,0.126953125,-1.02691650390625,0.14569091796875
1760020293834,78068259,873,10,0.125,-1.02716064453125,0.14251708984375
1760020293834,78068259,873,11,0.12646484375,-1.02886962890625,0.14154052734375
1760020293834,78068259,873,12,0.13037109375,-1.02203369140625,0.14544677734375
1760020293834,78068259,873,13,0.1298828125,-1.04595947265625,0.13958740234375
1760020293834,78068259,873,14,0.128662109375,-1.02691650390625,0.14398193359375
1760020293834,78068259,873,15,0.127197265625,-1.02276611328125,0.13421630859375
1760020293834,78068259,873,16,0.1318359375,-1.03887939453125,0.14447021484375
1760020293834,78068259,873,17,0.130615234375,-1.02740478515625,0.13641357421875
1760020293834,78068259,873,18,0.13037109375,-1.02691650390625,0.13958740234375
1760020293834,78068259,873,19,0.130126953125,-1.03277587890625,0.13714599609375
1760020293834,78068259,873,20,0.130126953125,-1.02593994140625,0.13763427734375
1760020293834,78068259,873,21,0.13232421875,-1.02960205078125,0.13641357421875
1760020293834,78068259,873,22,0.1328125,-1.03619384765625,0.15667724609375
1760020293834,78068259,873,23,0.11962890625,-1.02886962890625,0.14544677734375
1760020293834,78068259,873,24,0.128662109375,-1.02618408203125,0.14617919921875
1760020293834,78068259,873,25,0.1201171875,-1.02960205078125,0.18475341796875
1760020293834,78068259,873,26,0.124755859375,-1.02423095703125,0.13446044921875
1760020293834,78068259,873,27,0.126220703125,-1.01300048828125,0.14935302734375
1760020293834,78068259,873,28,0.134765625,-1.01812744140625,0.14300537109375
1760020293834,78068259,873,29,0.1318359375,-1.03570556640625,0.17816162109375
1760020293834,78068259,873,30,0.125,-1.01055908203125,0.14862060546875
1760020293834,78068259,873,31,0.12939453125,-1.04400634765625,0.14959716796875
1760020296532,78070833,874,0,0.12744140625,-1.02447509765625,0.14837646484375
1760020296532,78070833,874,1,0.1201171875,-1.02667236328125,0.14031982421875
1760020296532,78070833,874,2,0.1328125,-1.03619384765625,0.15179443359375
1760020296532,78070833,874,3,0.13037109375,-1.02667236328125,0.14398193359375
1760020296532,78070833,874,4,0.1298828125,-1.02813720703125,0.14837646484375
1760020296532,78070833,874,5,0.130615234375,-1.02911376953125,0.14398193359375
1760020296532,78070833,874,6,0.130126953125,-1.02984619140625,0.14056396484375
1760020296532,78070833,874,7,0.130859375,-1.02642822265625,0.14300537109375
1760020296532,78070833,874,8,0.130859375,-1.02374267578125,0.14276123046875
1760020296532,78070833,874,9,0.128662109375,-1.03106689453125,0.14178466796875
1760020296532,78070833,874,10,0.128173828125,-1.02789306640625,0.13397216796875
1760020296532,78070833,874,11,0.12841796875,-1.02691650390625,0.13983154296875
1760020296532,78070833,874,12,0.1259765625,-1.03936767578125,0.13494873046875
1760020296532,78070833,874,13,0.128662109375,-1.02789306640625,0.13348388671875
1760020296532,78070833,874,14,0.127197265625,-1.03521728515625,0.12738037109375
1760020296532,78070833,874,15,0.126708984375,-1.03228759765625,0.14300537109375
1760020296532,78070833,874,16,0.130126953125,-1.02935791015625,0.14080810546875
1760020296532,78070833,874,17,0.13037109375,-1.02716064453125,0.12469482421875
1760020296532,78070833,874,18,0.12255859375,-1.03179931640625,0.14154052734375
1760020296532,78070833,874,19,0.122802734375,-1.03106689453125,0.14324951171875
1760020296532,78070833,874,20,0.121337890625,-1.03082275390625,0.13787841796875
1760020296532,78070833,874,21,0.12890625,-1.03033447265625,0.14251708984375
1760020296532,78070833,874,22,0.128173828125,-1.03106689453125,0.14276123046875
1760020296532,78070833,874,23,0.127685546875,-1.03057861328125,0.13372802734375
1760020296532,78070833,874,24,0.130615234375,-1.03887939453125,0.15496826171875
1760020296532,78070833,874,25,0.12451171875,-1.03228759765625,0.14910888671875
1760020296532,78070833,874,26,0.12109375,-1.02764892578125,0.15740966796875
1760020296532,78070833,874,27,0.119384765625,-1.02349853515625,0.13226318359375
1760020296532,78070833,874,28,0.125244140625,-1.02471923828125,0.13812255859375
1760020296532,78070833,874,29,0.11865234375,-1.02227783203125,0.14373779296875
1760020296532,78070833,874,30,0.11669921875,-1.03082275390625,0.14544677734375
1760020296532,78070833,874,31,0.12255859375,-1.03765869140625,0.14862060546875
1760020299081,78073406,875,0,0.119140625,-1.03082275390625,0.14544677734375
1760020299081,78073406,875,1,0.115478515625,-1.02545166015625,0.13568115234375
1760020299081,78073406,875,2,0.12060546875,-1.03448486328125,0.13958740234375
1760020299081,78073406,875,3,0.121337890625,-1.03399658203125,0.13470458984375
1760020299081,78073406,875,4,0.121337890625,-1.03204345703125,0.13519287109375
1760020299081,78073406,875,5,0.119873046875,-1.02960205078125,0.14739990234375
1760020299081,78073406,875,6,0.124755859375,-1.03131103515625,0.13861083984375
1760020299081,78073406,875,7,0.124267578125,-1.03155517578125,0.13690185546875
1760020299081,78073406,875,8,0.12451171875,-1.02838134765625,0.14056396484375
1760020299081,78073406,875,9,0.126953125,-1.03765869140625,0.14178466796875
1760020299081,78073406,875,10,0.13037109375,-1.02813720703125,0.13421630859375
1760020299081,78073406,875,11,0.114013671875,-1.01739501953125,0.14227294921875
1760020299081,78073406,875,12,0.123046875,-1.03497314453125,0.14739990234375
1760020299081,78073406,875,13,0.12060546875,-1.02447509765625,0.15350341796875
1760020299081,78073406,875,14,0.11962890625,-1.02667236328125,0.13568115234375
1760020299081,78073406,875,15,0.117919921875,-1.02886962890625,0.14569091796875
1760020299081,78073406,875,16,0.12060546875,-1.03057861328125,0.14178466796875
1760020299081,78073406,875,17,0.1142578125,-1.02789306640625,0.14349365234375
1760020299081,78073406,875,18,0.11865234375,-1.02911376953125,0.14398193359375
1760020299081,78073406,875,19,0.115234375,-1.03375244140625,0.14251708984375
1760020299081,78073406,875,20,0.123046875,-1.03131103515625,0.13714599609375
1760020299081,78073406,875,21,0.12451171875,-1.03106689453125,0.13861083984375
1760020299081,78073406,875,22,0.126220703125,-1.03399658203125,0.14715576171875
1760020299081,78073406,875,23,0.12109375,-1.03155517578125,0.12738037109375
1760020299081,78073406,875,24,0.122314453125,-1.02667236328125,0.13201904296875
1760020299081,78073406,875,25,0.12158203125,-1.03399658203125,0.13153076171875
1760020299081,78073406,875,26,0.12060546875,-1.03399658203125,0.13763427734375
1760020299081,78073406,875,27,0.1240234375,-1.03375244140625,0.13494873046875
1760020299081,78073406,875,28,0.118408203125,-1.02545166015625,0.13104248046875
1760020299081,78073406,875,29,0.122802734375,-1.03131103515625,0.13641357421875
1760020299081,78073406,875,30,0.123779296875,-1.03228759765625,0.13958740234375
1760020299081,78073406,875,31,0.12744140625,-1.04547119140625,0.13494873046875
1760020301631,78075979,876,0,0.104736328125,-1.03179931640625,0.13763427734375
1760020301631,78075979,876,1,0.13427734375,-1.03643798828125,0.15521240234375
1760020301631,78075979,876,2,0.124755859375,-1.02642822265625,0.14984130859375
1760020301631,78075979,876,3,0.121337890625,-1.01495361328125,0.16766357421875
1760020301631,78075979,876,4,0.1279296875,-1.01812744140625,0.14642333984375
1760020301631,78075979,876,5,0.140625,-1.01397705078125,0.12469482421875
1760020301631,78075979,876,6,0.139404296875,-1.02178955078125,0.19671630859375
1760020301631,78075979,876,7,0.136474609375,-1.02886962890625,0.16400146484375
1760020301631,78075979,876,8,0.140380859375,-1.02130126953125,0.15960693359375
1760020301631,78075979,876,9,0.1376953125,-1.01568603515625,0.16668701171875
1760020301631,78075979,876,10,0.137939453125,-1.02667236328125,0.16278076171875
1760020301631,78075979,876,11,0.13232421875,-1.02471923828125,0.15130615234375
1760020301631,78075979,876,12,0.133544921875,-1.02569580078125,0.15130615234375
1760020301631,78075979,876,13,0.130126953125,-1.02984619140625,0.14617919921875
1760020301631,78075979,876,14,0.129638671875,-1.03106689453125,0.15301513671875
1760020301631,78075979,876,15,0.1240234375,-1.02398681640625,0.14788818359375
1760020301631,78075979,876,16,0.127197265625,-1.02813720703125,0.15496826171875
1760020301631,78075979,876,17,0.124267578125,-1.02374267578125,0.15789794921875
1760020301631,78075979,876,18,0.131103515625,-1.02154541015625,0.13958740234375
1760020301631,78075979,876,19,0.119384765625,-1.02935791015625,0.16229248046875
1760020301631,78075979,876,20,0.127197265625,-1.03570556640625,0.17742919921875
1760020301631,78075979,876,21,0.13232421875,-1.02691650390625,0.16912841796875
1760020301631,78075979,876,22,0.129638671875,-1.02447509765625,0.17767333984375
1760020301631,78075979,876,23,0.11279296875,-1.02154541015625,0.16619873046875
1760020301631,78075979,876,24,0.121337890625,-1.01690673828125,0.20037841796875
1760020301631,78075979,876,25,0.128662109375,-1.01788330078125,0.20233154296875
1760020301631,78075979,876,26,0.120849609375,-1.00787353515625,0.17913818359375
1760020301631,78075979,876,27,0.130126953125,-0.99688720703125,0.17108154296875
1760020301631,78075979,876,28,0.12109375,-1.03228759765625,0.18548583984375
1760020301631,78075979,876,29,0.123046875,-1.02496337890625,0.20794677734375
1760020301631,78075979,876,30,0.1142578125,-1.00592041015625,0.19573974609375
1760020301631,78075979,876,31,0.12255859375,-1.02691650390625,0.19085693359375
1760020304180,78078552,877,0,0.114990234375,-1.02301025390625,0.18597412109375
1760020304180,78078552,877,1,0.11474609375,-1.01788330078125,0.17987060546875
1760020304180,78078552,877,2,0.114501953125,-1.02569580078125,0.16644287109375
1760020304180,78078552,877,3,0.119873046875,-1.01373291015625,0.18133544921875
1760020304180,78078552,877,4,0.117919921875,-1.02886962890625,0.18157958984375
1760020304180,78078552,877,5,0.12109375,-1.02130126953125,0.17083740234375
1760020304180,78078552,877,6,0.12158203125,-1.02154541015625,0.17523193359375
1760020304180,78078552,877,7,0.1240234375,-1.02398681640625,0.16815185546875
1760020304180,78078552,877,8,0.126220703125,-1.01934814453125,0.15985107421875
1760020304180,78078552,877,9,0.12353515625,-1.02813720703125,0.16229248046875
1760020304180,78078552,877,10,0.1240234375,-1.02593994140625,0.16009521484375
1760020304180,78078552,877,11,0.12060546875,-1.02325439453125,0.15594482421875
1760020304180,78078552,877,12,0.123779296875,-1.03253173828125,0.15716552734375
1760020304180,78078552,877,13,0.11767578125,-1.02740478515625,0.15106201171875
1760020304180,78078552,877,14,0.122314453125,-1.02716064453125,0.14910888671875
1760020304180,78078552,877,15,0.118408203125,-1.03082275390625,0.15496826171875
1760020304180,78078552,877,16,0.11962890625,-1.02984619140625,0.14324951171875
1760020304180,78078552,877,17,0.119873046875,-1.02423095703125,0.14520263671875
1760020304180,78078552,877,18,0.123291015625,-1.03009033203125,0.14617919921875
1760020304180,78078552,877,19,0.12744140625,-1.03131103515625,0.14886474609375
1760020304180,78078552,877,20,0.1240234375,-1.02862548828125,0.13763427734375
1760020304180,78078552,877,21,0.12646484375,-1.03424072265625,0.14642333984375
1760020304180,78078552,877,22,0.12548828125,-1.03179931640625,0.13787841796875
1760020304180,78078552,877,23,0.121337890625,-1.02252197265625,0.14349365234375
1760020304180,78078552,877,24,0.126220703125,-1.02935791015625,0.15179443359375
1760020304180,78078552,877,25,0.123291015625,-1.02813720703125,0.15008544921875
1760020304180,78078552,877,26,0.12646484375,-1.02227783203125,0.13861083984375
1760020304180,78078552,877,27,0.126220703125,-1.02960205078125,0.13592529296875
1760020304180,78078552,877,28,0.12158203125,-1.03057861328125,0.14642333984375
1760020304180,78078552,877,29,0.1279296875,-1.02838134765625,0.15032958984375
1760020304180,78078552,877,30,0.125,-1.02691650390625,0.13543701171875
1760020304180,78078552,877,31,0.120849609375,-1.02471923828125,0.14593505859375
1760020306735,78081125,878,0,0.1240234375,-1.03131103515625,0.14813232421875
1760020306735,78081125,878,1,0.122314453125,-1.02984619140625,0.14422607421875
1760020306735,78081125,878,2,0.12353515625,-1.02618408203125,0.13885498046875
1760020306735,78081125,878,3,0.1220703125,-1.02813720703125,0.14276123046875
1760020306735,78081125,878,4,0.12255859375,-1.03253173828125,0.14373779296875
1760020306735,78081125,878,5,0.126953125,-1.03009033203125,0.14154052734375
1760020306735,78081125,878,6,0.125,-1.03155517578125,0.13299560546875
1760020306735,78081125,878,7,0.12890625,-1.02496337890625,0.14227294921875
1760020306735,78081125,878,8,0.12744140625,-1.03033447265625,0.14129638671875
1760020306735,78081125,878,9,0.126708984375,-1.03302001953125,0.13446044921875
1760020306735,78081125,878,10,0.12744140625,-1.02911376953125,0.13201904296875
1760020306735,78081125,878,11,0.125732421875,-1.03228759765625,0.13079833984375
1760020306735,78081125,878,12,0.130126953125,-1.02960205078125,0.15252685546875
1760020306735,78081125,878,13,0.126953125,-1.03790283203125,0.11492919921875
1760020306735,78081125,878,14,0.126220703125,-1.02935791015625,0.13348388671875
1760020306735,78081125,878,15,0.1279296875,-1.02813720703125,0.12908935546875
1760020306735,78081125,878,16,0.12890625,-1.03619384765625,0.14007568359375
1760020306735,78081125,878,17,0.12255859375,-1.02716064453125,0.13348388671875
1760020306735,78081125,878,18,0.12646484375,-1.03350830078125,0.13006591796875
1760020306735,78081125,878,19,0.12646484375,-1.03155517578125,0.13616943359375
1760020306735,78081125,878,20,0.12890625,-1.02642822265625,0.13323974609375
1760020306735,78081125,878,21,0.131103515625,-1.02935791015625,0.13397216796875
1760020306735,78081125,878,22,0.130615234375,-1.03741455078125,0.14666748046875
1760020306735,78081125,878,23,0.123779296875,-1.03961181640625,0.15447998046875
1760020306735,78081125,878,24,0.121826171875,-1.02886962890625,0.14447021484375
1760020306735,78081125,878,25,0.13720703125,-1.02447509765625,0.14617919921875
1760020306735,78081125,878,26,0.12158203125,-1.02423095703125,0.15472412109375
1760020306735,78081125,878,27,0.127197265625,-1.01397705078125,0.13665771484375
1760020306735,78081125,878,28,0.124267578125,-1.03277587890625,0.15887451171875
1760020306735,78081125,878,29,0.1494140625,-1.00982666015625,0.15252685546875
1760020306735,78081125,878,30,0.12939453125,-1.03057861328125,0.14813232421875
1760020306735,78081125,878,31,0.130615234375,-1.02593994140625,0.15789794921875
1760020309278,78083698,879,0,0.134033203125,-1.02423095703125,0.14739990234375
1760020309278,78083698,879,1,0.13818359375,-1.02667236328125,0.14544677734375
1760020309278,78083698,879,2,0.1328125,-1.02911376953125,0.14739990234375
1760020309278,78083698,879,3,0.125,-1.03082275390625,0.14105224609375
1760020309278,78083698,879,4,0.130859375,-1.02471923828125,0.14373779296875
1760020309278,78083698,879,5,0.1328125,-1.03106689453125,0.14349365234375
1760020309278,78083698,879,6,0.1298828125,-1.02935791015625,0.14495849609375
1760020309278,78083698,879,7,0.129638671875,-1.02740478515625,0.13079833984375
1760020309278,78083698,879,8,0.1318359375,-1.01788330078125,0.12762451171875
1760020309278,78083698,879,9,0.133056640625,-1.04254150390625,0.15228271484375
1760020309278,78083698,879,10,0.137451171875,-1.03863525390625,0.14227294921875
1760020309278,78083698,879,11,0.139892578125,-1.02227783203125,0.12396240234375
1760020309278,78083698,879,12,0.1318359375,-1.02789306640625,0.12786865234375
1760020309278,78083698,879,13,0.13232421875,-1.03082275390625,0.12835693359375
1760020309278,78083698,879,14,0.134521484375,-1.03057861328125,0.13812255859375
1760020309278,78083698,879,15,0.13037109375,-1.03594970703125,0.13592529296875
1760020309278,78083698,879,16,0.128662109375,-1.02471923828125,0.12762451171875
1760020309278,78083698,879,17,0.127197265625,-1.03033447265625,0.12738037109375
1760020309278,78083698,879,18,0.1318359375,-1.03155517578125,0.13006591796875
1760020309278,78083698,879,19,0.126953125,-1.03497314453125,0.13739013671875
1760020309278,78083698,879,20,0.130859375,-1.03204345703125,0.13250732421875
1760020309278,78083698,879,21,0.12890625,-1.02276611328125,0.12103271484375
1760020309278,78083698,879,22,0.128662109375,-1.03961181640625,0.13690185546875
1760020309278,78083698,879,23,0.126708984375,-1.02789306640625,0.12957763671875
1760020309278,78083698,879,24,0.126220703125,-1.03594970703125,0.12200927734375
1760020309278,78083698,879,25,0.12841796875,-1.03106689453125,0.12835693359375
1760020309278,78083698,879,26,0.126953125,-1.03887939453125,0.14617919921875
1760020309278,78083698,879,27,0.12158203125,-1.03424072265625,0.14202880859375
1760020309278,78083698,879,28,0.11767578125,-1.03009033203125,0.14715576171875
1760020309278,78083698,879,29,0.1279296875,-1.03424072265625,0.14935302734375
1760020309278,78083698,879,30,0.119873046875,-1.01959228515625,0.09075927734375
1760020309278,78083698,879,31,0.127197265625,-1.03253173828125,0.14788818359375
