receivedPhoneTimestamp,respeckTimestamp,packetSeqNum,sampleSeqNum,accelX,accelY,accelZ
1759846782082,1034571519,31682,31,0.14794921875,-1.00469970703125,0.06292724609375
1759846784635,1034574098,31683,0,0.16357421875,-1.00372314453125,0.05609130859375
1759846784635,1034574098,31683,1,0.155029296875,-0.99664306640625,0.07562255859375
1759846784635,1034574098,31683,2,0.160888671875,-0.99713134765625,0.06121826171875
1759846784635,1034574098,31683,3,0.15625,-0.99786376953125,0.04168701171875
1759846784635,1034574098,31683,4,0.14599609375,-1.00445556640625,0.03753662109375
1759846784635,1034574098,31683,5,0.154541015625,-1.01617431640625,0.04632568359375
1759846784635,1034574098,31683,6,0.16064453125,-0.99444580078125,0.02630615234375
1759846784635,1034574098,31683,7,0.184814453125,-1.00128173828125,0.03338623046875
1759846784635,1034574098,31683,8,0.187255859375,-1.00738525390625,0.03875732421875
1759846784635,1034574098,31683,9,0.1572265625,-0.99981689453125,0.02606201171875
1759846784635,1034574098,31683,10,0.1689453125,-1.00177001953125,0.02606201171875
1759846784635,1034574098,31683,11,0.169921875,-1.00714111328125,0.02020263671875
1759846784635,1034574098,31683,12,0.1826171875,-1.00054931640625,0.03045654296875
1759846784635,1034574098,31683,13,0.180419921875,-0.98565673828125,0.02972412109375
1759846784635,1034574098,31683,14,0.1826171875,-1.01202392578125,0.02874755859375
1759846784635,1034574098,31683,15,0.1728515625,-0.99566650390625,0.04144287109375
1759846784635,1034574098,31683,16,0.1865234375,-1.00177001953125,0.02264404296875
1759846784635,1034574098,31683,17,0.163330078125,-0.99957275390625,0.03338623046875
1759846784635,1034574098,31683,18,0.173095703125,-0.99957275390625,0.04583740234375
1759846784635,1034574098,31683,19,0.17919921875,-0.99224853515625,0.04290771484375
1759846784635,1034574098,31683,20,0.194091796875,-1.00689697265625,0.02850341796875
1759846784635,1034574098,31683,21,0.177734375,-0.99957275390625,0.03265380859375
1759846784635,1034574098,31683,22,0.15966796875,-0.99517822265625,0.06219482421875
1759846784635,1034574098,31683,23,0.167236328125,-1.01837158203125,0.06439208984375
1759846784635,1034574098,31683,24,0.184326171875,-0.98297119140625,0.02996826171875
1759846784635,1034574098,31683,25,0.180908203125,-1.00787353515625,0.04632568359375
1759846784635,1034574098,31683,26,0.167236328125,-0.99444580078125,0.04095458984375
1759846784635,1034574098,31683,27,0.1826171875,-0.99810791015625,0.03216552734375
1759846787186,1034576678,31684,27,0.15673828125,-1.00518798828125,0.04266357421875
1759846787186,1034576678,31684,28,0.166015625,-1.00372314453125,0.04339599609375
1759846787186,1034576678,31684,29,0.16943359375,-0.99859619140625,0.03729248046875
1759846787186,1034576678,31684,30,0.173583984375,-1.00689697265625,0.03753662109375
1759846787186,1034576678,31684,31,0.1689453125,-1.00152587890625,0.04583740234375
1759846790337,1034579251,31685,0,0.174560546875,-0.99713134765625,0.05291748046875
1759846790337,1034579251,31685,1,0.177490234375,-0.99517822265625,0.04119873046875
1759846790337,1034579251,31685,2,0.1728515625,-0.99810791015625,0.04681396484375
1759846790337,1034579251,31685,3,0.17333984375,-0.99932861328125,0.03607177734375
1759846790337,1034579251,31685,4,0.1689453125,-1.00518798828125,0.03997802734375
1759846790337,1034579251,31685,5,0.153076171875,-0.99273681640625,0.05389404296875
1759846790337,1034579251,31685,6,0.192138671875,-0.98150634765625,0.05877685546875
1759846790337,1034579251,31685,7,0.17626953125,-1.02178955078125,0.07049560546875
1759846790337,1034579251,31685,8,0.17333984375,-0.98687744140625,0.03094482421875
1759846790337,1034579251,31685,9,0.177490234375,-1.00347900390625,0.02484130859375
1759846790337,1034579251,31685,10,0.17724609375,-1.00030517578125,0.02484130859375
1759846790337,1034579251,31685,11,0.18115234375,-0.99639892578125,0.03802490234375
1759846790337,1034579251,31685,12,0.18017578125,-1.00762939453125,0.03826904296875
1759846790337,1034579251,31685,13,0.18310546875,-0.99078369140625,0.02728271484375
1759846790337,1034579251,31685,14,0.185791015625,-1.00079345703125,0.02386474609375
1759846790337,1034579251,31685,15,0.177490234375,-1.00347900390625,0.02459716796875
1759846790337,1034579251,31685,16,0.165771484375,-1.01324462890625,0.02020263671875
1759846790337,1034579251,31685,17,0.1875,-0.99786376953125,0.00604248046875
1759846790337,1034579251,31685,18,0.17431640625,-0.99127197265625,0.02728271484375
1759846790337,1034579251,31685,19,0.1904296875,-0.99957275390625,0.02923583984375
1759846790337,1034579251,31685,20,0.173583984375,-0.99761962890625,0.02191162109375
1759846790337,1034579251,31685,21,0.156982421875,-1.00860595703125,0.02069091796875
1759846790337,1034579251,31685,22,0.1787109375,-0.99981689453125,0.01239013671875
1759846790337,1034579251,31685,23,0.182373046875,-1.02032470703125,0.03582763671875
1759846790337,1034579251,31685,24,0.17822265625,-0.96124267578125,0.02923583984375
1759846790337,1034579251,31685,25,0.170654296875,-0.98614501953125,0.06268310546875
1759846790337,1034579251,31685,26,0.1826171875,-1.03814697265625,0.03216552734375
1759846790337,1034579251,31685,27,0.179443359375,-0.96954345703125,0.02020263671875
1759846790337,1034579251,31685,28,0.178466796875,-1.02276611328125,0.01654052734375
1759846790337,1034579251,31685,29,0.1728515625,-0.99444580078125,0.03363037109375
1759846790337,1034579251,31685,30,0.17138671875,-1.00177001953125,0.04974365234375
1759846790337,1034579251,31685,31,0.173583984375,-0.98760986328125,0.05926513671875
1759846792436,1034581830,31686,0,0.19140625,-1.01593017578125,0.04534912109375
1759846792436,1034581830,31686,1,0.17578125,-1.00860595703125,0.01702880859375
1759846792436,1034581830,31686,2,0.17431640625,-0.98785400390625,0.03289794921875
1759846792436,1034581830,31686,3,0.154296875,-1.00006103515625,0.06048583984375
1759846792436,1034581830,31686,4,0.16552734375,-1.00054931640625,0.05804443359375
1759846792436,1034581830,31686,5,0.1884765625,-0.99932861328125,0.04144287109375
1759846792436,1034581830,31686,6,0.171630859375,-1.00152587890625,0.03118896484375
1759846792436,1034581830,31686,7,0.165283203125,-1.00762939453125,0.02239990234375
1759846792436,1034581830,31686,8,0.160400390625,-0.99395751953125,0.05047607421875
1759846792436,1034581830,31686,9,0.18017578125,-1.00177001953125,0.04901123046875
1759846792436,1034581830,31686,10,0.17822265625,-0.98956298828125,0.03997802734375
1759846792436,1034581830,31686,11,0.16552734375,-1.00836181640625,0.03656005859375
1759846792436,1034581830,31686,12,0.16064453125,-1.00567626953125,0.02386474609375
1759846792436,1034581830,31686,13,0.167724609375,-1.00103759765625,0.03802490234375
1759846792436,1034581830,31686,14,0.1650390625,-0.99151611328125,0.06439208984375
1759846792436,1034581830,31686,15,0.169921875,-0.99737548828125,0.05291748046875
1759846792436,1034581830,31686,16,0.1708984375,-1.00250244140625,0.05926513671875
1759846792436,1034581830,31686,17,0.175048828125,-1.00274658203125,0.04852294921875
1759846792436,1034581830,31686,18,0.15478515625,-1.00421142578125,0.02093505859375
1759846792436,1034581830,31686,19,0.159423828125,-1.00762939453125,0.02923583984375
1759846792436,1034581830,31686,20,0.166259765625,-1.00396728515625,0.04388427734375
1759846792436,1034581830,31686,21,0.16748046875,-1.00201416015625,0.03948974609375
1759846792436,1034581830,31686,22,0.1708984375,-0.99932861328125,0.04315185546875
1759846792436,1034581830,31686,23,0.16796875,-1.00836181640625,0.04071044921875
1759846792436,1034581830,31686,24,0.163818359375,-1.00201416015625,0.05218505859375
1759846792436,1034581830,31686,25,0.16796875,-1.00006103515625,0.03753662109375
1759846792436,1034581830,31686,26,0.163818359375,-0.99444580078125,0.06072998046875
1759846792436,1034581830,31686,27,0.16552734375,-0.99786376953125,0.04949951171875
1759846792436,1034581830,31686,28,0.166748046875,-1.00323486328125,0.05169677734375
1759846792436,1034581830,31686,29,0.1748046875,-1.00347900390625,0.02874755859375
1759846792436,1034581830,31686,30,0.160888671875,-1.01422119140625,0.02410888671875
1759846792436,1034581830,31686,31,0.16650390625,-0.99224853515625,0.04022216796875
1759846794985,1034584409,31687,0,0.1708984375,-1.00885009765625,0.01531982421875
1759846794985,1034584409,31687,1,0.17529296875,-0.99884033203125,0.01409912109375
1759846794985,1034584409,31687,2,0.16943359375,-1.00372314453125,-0.00030517578125
1759846794985,1034584409,31687,3,0.16455078125,-1.00494384765625,0.00653076171875
1759846794985,1034584409,31687,4,0.166748046875,-1.00323486328125,0.01702880859375
1759846794985,1034584409,31687,5,0.171875,-1.00762939453125,0.02606201171875
1759846794985,1034584409,31687,6,0.16748046875,-0.99664306640625,0.01751708984375
1759846794985,1034584409,31687,7,0.1689453125,-0.99615478515625,0.02655029296875
1759846794985,1034584409,31687,8,0.172607421875,-1.00323486328125,0.02215576171875
1759846794985,1034584409,31687,9,0.164306640625,-1.01104736328125,0.02239990234375
1759846794985,1034584409,31687,10,0.17333984375,-0.99932861328125,0.01409912109375
1759846794985,1034584409,31687,11,0.157470703125,-1.00982666015625,0.01776123046875
1759846794985,1034584409,31687,12,0.172607421875,-1.00274658203125,0.03314208984375
1759846794985,1034584409,31687,13,0.17578125,-0.99591064453125,0.03778076171875
1759846794985,1034584409,31687,14,0.182861328125,-0.99981689453125,0.03753662109375
1759846794985,1034584409,31687,15,0.159912109375,-1.01324462890625,-0.00225830078125
1759846794985,1034584409,31687,16,0.174560546875,-1.00762939453125,0.02435302734375
1759846794985,1034584409,31687,17,0.183837890625,-1.00787353515625,0.02679443359375
1759846794985,1034584409,31687,18,0.170166015625,-0.99468994140625,0.04315185546875
1759846794985,1034584409,31687,19,0.148681640625,-1.00640869140625,0.02606201171875
1759846794985,1034584409,31687,20,0.1337890625,-0.99615478515625,0.05145263671875
1759846794985,1034584409,31687,21,0.15185546875,-1.01080322265625,0.05487060546875
1759846794985,1034584409,31687,22,0.1611328125,-0.99737548828125,0.04290771484375
1759846794985,1034584409,31687,23,0.14208984375,-1.01275634765625,0.05364990234375
1759846794985,1034584409,31687,24,0.156982421875,-1.00665283203125,0.03924560546875
1759846794985,1034584409,31687,25,0.142578125,-1.00909423828125,0.04608154296875
1759846794985,1034584409,31687,26,0.134765625,-1.01300048828125,0.05145263671875
1759846794985,1034584409,31687,27,0.11279296875,-0.97906494140625,0.06951904296875
1759846794985,1034584409,31687,28,0.131591796875,-1.01690673828125,0.05804443359375
1759846794985,1034584409,31687,29,0.135498046875,-1.01617431640625,0.04901123046875
1759846794985,1034584409,31687,30,0.154052734375,-0.99273681640625,0.05169677734375
1759846794985,1034584409,31687,31,0.15478515625,-1.01202392578125,0.01995849609375
1759846797535,1034586988,31688,0,0.137451171875,-1.01593017578125,0.04412841796875
1759846797535,1034586988,31688,1,0.138916015625,-1.00250244140625,0.04437255859375
1759846797535,1034586988,31688,2,0.12548828125,-1.00762939453125,0.04144287109375
1759846797535,1034586988,31688,3,0.135009765625,-1.00933837890625,0.05340576171875
1759846797535,1034586988,31688,4,0.15625,-0.99908447265625,0.05096435546875
1759846797535,1034586988,31688,5,0.148193359375,-1.01324462890625,0.04364013671875
1759846797535,1034586988,31688,6,0.1611328125,-1.00665283203125,0.03240966796875
1759846797535,1034586988,31688,7,0.15869140625,-1.00762939453125,0.03289794921875
1759846797535,1034586988,31688,8,0.149169921875,-0.99591064453125,0.05755615234375
1759846797535,1034586988,31688,9,0.1552734375,-1.00250244140625,0.05169677734375
1759846797535,1034586988,31688,10,0.1474609375,-0.99859619140625,0.05487060546875
1759846797535,1034586988,31688,11,0.155029296875,-1.00885009765625,0.02410888671875
1759846797535,1034586988,31688,12,0.13525390625,-1.00958251953125,0.03216552734375
1759846797535,1034586988,31688,13,0.136962890625,-1.01177978515625,0.02655029296875
1759846797535,1034586988,31688,14,0.14404296875,-1.01251220703125,0.02191162109375
1759846797535,1034586988,31688,15,0.15234375,-0.99542236328125,0.03265380859375
1759846797535,1034586988,31688,16,0.1396484375,-1.00640869140625,0.00799560546875
1759846797535,1034586988,31688,17,0.137939453125,-1.01129150390625,0.01483154296875
1759846797535,1034586988,31688,18,0.11962890625,-1.01446533203125,0.00457763671875
1759846797535,1034586988,31688,19,0.14453125,-1.00347900390625,0.03240966796875
1759846797535,1034586988,31688,20,0.1474609375,-1.01007080078125,0.02825927734375
1759846797535,1034586988,31688,21,0.155029296875,-0.99835205078125,0.01849365234375
1759846797535,1034586988,31688,22,0.138916015625,-1.01153564453125,0.02801513671875
1759846797535,1034586988,31688,23,0.14892578125,-1.01348876953125,0.02215576171875
1759846797535,1034586988,31688,24,0.14208984375,-1.00567626953125,0.01922607421875
1759846797535,1034586988,31688,25,0.146484375,-1.00494384765625,0.03265380859375
1759846797535,1034586988,31688,26,0.15087890625,-1.00445556640625,0.04681396484375
1759846797535,1034586988,31688,27,0.15673828125,-1.00054931640625,0.02777099609375
1759846797535,1034586988,31688,28,0.152099609375,-1.01397705078125,0.04901123046875
1759846797535,1034586988,31688,29,0.14892578125,-1.00909423828125,0.02899169921875
1759846797535,1034586988,31688,30,0.144775390625,-1.00250244140625,0.03216552734375
1759846797535,1034586988,31688,31,0.152099609375,-0.99664306640625,0.04095458984375
1759846800084,1034589567,31689,0,0.157958984375,-0.99884033203125,0.04266357421875
1759846800084,1034589567,31689,1,0.15087890625,-1.00372314453125,0.03436279296875
1759846800084,1034589567,31689,2,0.14404296875,-1.01373291015625,0.03753662109375
1759846800084,1034589567,31689,3,0.150390625,-1.00933837890625,0.03070068359375
1759846800084,1034589567,31689,4,0.152099609375,-1.00592041015625,0.03582763671875
1759846800084,1034589567,31689,5,0.151123046875,-1.00372314453125,0.04486083984375
1759846800084,1034589567,31689,6,0.157958984375,-1.00250244140625,0.04095458984375
1759846800084,1034589567,31689,7,0.15869140625,-1.00860595703125,0.04315185546875
1759846800084,1034589567,31689,8,0.153564453125,-1.00543212890625,0.02923583984375
1759846800084,1034589567,31689,9,0.1533203125,-1.00323486328125,0.03045654296875
1759846800084,1034589567,31689,10,0.15771484375,-0.99371337890625,0.04095458984375
1759846800084,1034589567,31689,11,0.162109375,-1.01129150390625,0.01702880859375
1759846800084,1034589567,31689,12,0.160400390625,-1.00762939453125,0.02874755859375
1759846800084,1034589567,31689,13,0.14599609375,-1.01251220703125,0.01580810546875
1759846800084,1034589567,31689,14,0.158935546875,-1.00933837890625,0.00823974609375
1759846800084,1034589567,31689,15,0.155517578125,-1.01422119140625,0.01092529296875
1759846800084,1034589567,31689,16,0.145751953125,-1.00616455078125,0.04119873046875
1759846800084,1034589567,31689,17,0.155517578125,-1.00079345703125,0.01043701171875
1759846800084,1034589567,31689,18,0.16650390625,-0.99859619140625,0.01629638671875
1759846800084,1034589567,31689,19,0.15087890625,-1.00665283203125,0.01849365234375
1759846800084,1034589567,31689,20,0.1533203125,-1.01397705078125,0.01312255859375
1759846800084,1034589567,31689,21,0.14599609375,-1.00225830078125,0.01263427734375
1759846800084,1034589567,31689,22,0.141357421875,-1.01251220703125,0.02777099609375
1759846800084,1034589567,31689,23,0.144287109375,-1.00567626953125,0.02532958984375
1759846800084,1034589567,31689,24,0.148681640625,-1.00250244140625,0.02410888671875
1759846800084,1034589567,31689,25,0.14990234375,-1.01251220703125,0.02020263671875
1759846800084,1034589567,31689,26,0.15869140625,-1.00396728515625,0.02459716796875
1759846800084,1034589567,31689,27,0.151611328125,-1.00958251953125,0.02581787109375
1759846800084,1034589567,31689,28,0.14794921875,-0.99957275390625,0.02020263671875
1759846800084,1034589567,31689,29,0.152587890625,-1.00787353515625,0.02972412109375
1759846800084,1034589567,31689,30,0.159912109375,-1.00177001953125,0.02435302734375
1759846800084,1034589567,31689,31,0.16259765625,-1.01031494140625,0.01751708984375
1759846802787,1034592146,31690,0,0.17333984375,-1.00347900390625,0.01824951171875
1759846802787,1034592146,31690,1,0.160400390625,-1.01177978515625,0.02947998046875
1759846802787,1034592146,31690,2,0.154541015625,-0.99053955078125,0.04583740234375
1759846802787,1034592146,31690,3,0.175048828125,-1.00982666015625,0.03973388671875
1759846802787,1034592146,31690,4,0.158203125,-0.99615478515625,0.03118896484375
1759846802787,1034592146,31690,5,0.162109375,-1.00787353515625,0.03167724609375
1759846802787,1034592146,31690,6,0.15966796875,-1.00933837890625,0.04241943359375
1759846802787,1034592146,31690,7,0.164794921875,-0.99176025390625,0.04437255859375
1759846802787,1034592146,31690,8,0.169921875,-0.99786376953125,0.04632568359375
1759846802787,1034592146,31690,9,0.165771484375,-1.00738525390625,0.02801513671875
1759846802787,1034592146,31690,10,0.1640625,-1.02398681640625,0.04241943359375
1759846802787,1034592146,31690,11,0.13134765625,-0.97613525390625,0.04974365234375
1759846802787,1034592146,31690,12,0.1484375,-1.01275634765625,0.05950927734375
1759846802787,1034592146,31690,13,0.142578125,-0.99957275390625,0.07025146484375
1759846802787,1034592146,31690,14,0.165283203125,-0.99322509765625,0.06292724609375
1759846802787,1034592146,31690,15,0.14990234375,-1.01129150390625,0.06170654296875
1759846802787,1034592146,31690,16,0.14404296875,-1.01226806640625,0.03509521484375
1759846802787,1034592146,31690,17,0.14111328125,-1.00640869140625,0.05291748046875
1759846802787,1034592146,31690,18,0.14501953125,-1.00909423828125,0.05316162109375
1759846802787,1034592146,31690,19,0.145751953125,-0.99932861328125,0.06976318359375
1759846802787,1034592146,31690,20,0.155517578125,-1.00152587890625,0.05999755859375
1759846802787,1034592146,31690,21,0.146728515625,-1.00811767578125,0.05657958984375
1759846802787,1034592146,31690,22,0.13916015625,-1.00762939453125,0.04974365234375
1759846802787,1034592146,31690,23,0.140869140625,-1.01153564453125,0.04632568359375
1759846802787,1034592146,31690,24,0.147705078125,-0.99420166015625,0.05902099609375
1759846802787,1034592146,31690,25,0.14111328125,-1.00592041015625,0.06317138671875
1759846802787,1034592146,31690,26,0.140380859375,-1.01177978515625,0.05926513671875
1759846802787,1034592146,31690,27,0.13916015625,-1.00128173828125,0.04803466796875
1759846802787,1034592146,31690,28,0.137939453125,-1.01202392578125,0.04608154296875
1759846802787,1034592146,31690,29,0.141845703125,-1.01177978515625,0.05926513671875
1759846802787,1034592146,31690,30,0.140625,-0.99688720703125,0.07073974609375
1759846802787,1034592146,31690,31,0.149169921875,-0.99884033203125,0.07391357421875
1759846805336,1034594725,31691,0,0.14501953125,-1.00421142578125,0.06024169921875
1759846805336,1034594725,31691,1,0.142333984375,-1.00885009765625,0.05242919921875
1759846805336,1034594725,31691,2,0.146484375,-1.00225830078125,0.05096435546875
1759846805336,1034594725,31691,3,0.14111328125,-1.00787353515625,0.06121826171875
1759846805336,1034594725,31691,4,0.1435546875,-1.00738525390625,0.06365966796875
1759846805336,1034594725,31691,5,0.127685546875,-1.00299072265625,0.03314208984375
1759846805336,1034594725,31691,6,0.12744140625,-1.01300048828125,0.03436279296875
1759846805336,1034594725,31691,7,0.133056640625,-1.00665283203125,0.05389404296875
1759846805336,1034594725,31691,8,0.129638671875,-1.01885986328125,0.04193115234375
1759846805336,1034594725,31691,9,0.137451171875,-0.98907470703125,0.04681396484375
1759846805336,1034594725,31691,10,0.130615234375,-1.02496337890625,0.04901123046875
1759846805336,1034594725,31691,11,0.12060546875,-0.99517822265625,0.06365966796875
1759846805336,1034594725,31691,12,0.140869140625,-0.97393798828125,0.06903076171875
1759846805336,1034594725,31691,13,0.162841796875,-1.01422119140625,0.06854248046875
1759846805336,1034594725,31691,14,0.14794921875,-1.01959228515625,0.06072998046875
1759846805336,1034594725,31691,15,0.137939453125,-1.01544189453125,0.03045654296875
1759846805336,1034594725,31691,16,0.142333984375,-0.98565673828125,0.05096435546875
1759846805336,1034594725,31691,17,0.110595703125,-1.02227783203125,0.05828857421875
1759846805336,1034594725,31691,18,0.154541015625,-1.00299072265625,0.05145263671875
1759846805336,1034594725,31691,19,0.14501953125,-1.01251220703125,0.03656005859375
1759846805336,1034594725,31691,20,0.150390625,-0.99908447265625,0.04632568359375
1759846805336,1034594725,31691,21,0.14306640625,-1.01226806640625,0.05633544921875
1759846805336,1034594725,31691,22,0.14794921875,-0.99591064453125,0.07781982421875
1759846805336,1034594725,31691,23,0.150146484375,-1.00323486328125,0.05096435546875
1759846805336,1034594725,31691,24,0.1357421875,-1.01177978515625,0.04266357421875
1759846805336,1034594725,31691,25,0.1640625,-0.99444580078125,0.04534912109375
1759846805336,1034594725,31691,26,0.149658203125,-1.01251220703125,0.03167724609375
1759846805336,1034594725,31691,27,0.125,-1.00225830078125,0.05169677734375
1759846805336,1034594725,31691,28,0.136962890625,-1.01300048828125,0.04730224609375
1759846805336,1034594725,31691,29,0.139892578125,-0.99249267578125,0.02972412109375
1759846805336,1034594725,31691,30,0.143798828125,-1.00518798828125,0.03411865234375
1759846805336,1034594725,31691,31,0.14794921875,-1.00616455078125,0.03143310546875
1759846807886,1034597305,31692,0,0.143310546875,-1.00665283203125,0.03582763671875
1759846807886,1034597305,31692,1,0.145263671875,-1.00738525390625,0.02630615234375
1759846807886,1034597305,31692,2,0.143798828125,-1.01348876953125,0.02239990234375
1759846807886,1034597305,31692,3,0.146240234375,-1.00860595703125,0.02825927734375
1759846807886,1034597305,31692,4,0.15478515625,-1.00323486328125,0.01947021484375
1759846807886,1034597305,31692,5,0.14208984375,-1.01324462890625,-6.103515625e-05
1759846807886,1034597305,31692,6,0.151611328125,-1.00323486328125,0.01312255859375
1759846807886,1034597305,31692,7,0.157470703125,-1.00885009765625,0.01800537109375
1759846807886,1034597305,31692,8,0.1787109375,-1.00323486328125,0.01678466796875
1759846807886,1034597305,31692,9,0.168212890625,-1.00006103515625,0.01971435546875
1759846807886,1034597305,31692,10,0.1669921875,-1.00640869140625,0.00628662109375
1759846807886,1034597305,31692,11,0.14990234375,-1.00372314453125,0.00701904296875
1759846807886,1034597305,31692,12,0.12939453125,-1.00738525390625,0.01141357421875
1759846807886,1034597305,31692,13,0.139404296875,-1.01251220703125,0.00018310546875
1759846807886,1034597305,31692,14,0.15869140625,-1.01251220703125,0.01849365234375
1759846807886,1034597305,31692,15,0.152587890625,-0.99713134765625,-0.00152587890625
1759846807886,1034597305,31692,16,0.152587890625,-1.00299072265625,0.01019287109375
1759846807886,1034597305,31692,17,0.155029296875,-1.01934814453125,-0.00372314453125
1759846807886,1034597305,31692,18,0.12841796875,-1.02423095703125,-0.04840087890625
1759846807886,1034597305,31692,19,0.175048828125,-0.99468994140625,-0.03790283203125
1759846807886,1034597305,31692,20,0.140380859375,-1.00518798828125,-0.05206298828125
1759846807886,1034597305,31692,21,0.154052734375,-1.01641845703125,-0.05328369140625
1759846807886,1034597305,31692,22,0.1533203125,-1.00836181640625,-0.04620361328125
1759846807886,1034597305,31692,23,0.160400390625,-1.01007080078125,-0.03887939453125
1759846807886,1034597305,31692,24,0.159912109375,-0.98687744140625,-0.02642822265625
1759846807886,1034597305,31692,25,0.162109375,-1.01959228515625,0.00823974609375
1759846807886,1034597305,31692,26,0.18310546875,-1.00299072265625,-0.00396728515625
1759846807886,1034597305,31692,27,0.10693359375,-1.01666259765625,-0.00787353515625
1759846807886,1034597305,31692,28,0.1396484375,-1.00494384765625,-0.01788330078125
1759846807886,1034597305,31692,29,0.12939453125,-0.99102783203125,-0.10137939453125
1759846807886,1034597305,31692,30,0.147216796875,-1.00494384765625,0.13226318359375
1759846807886,1034597305,31692,31,0.129150390625,-1.02569580078125,0.09539794921875
1759846810435,1034599884,31693,0,0.128173828125,-0.99688720703125,0.08465576171875
1759846810435,1034599884,31693,1,0.129638671875,-1.01617431640625,0.06878662109375
1759846810435,1034599884,31693,2,0.111572265625,-1.00982666015625,0.08221435546875
1759846810435,1034599884,31693,3,0.106689453125,-1.01324462890625,0.05926513671875
1759846810435,1034599884,31693,4,0.096435546875,-1.00128173828125,-0.02667236328125
1759846810435,1034599884,31693,5,0.048095703125,-1.02447509765625,0.04046630859375
1759846810435,1034599884,31693,6,0.08447265625,-1.01715087890625,0.08465576171875
1759846810435,1034599884,31693,7,0.070556640625,-1.01910400390625,0.11688232421875
1759846810435,1034599884,31693,8,0.081298828125,-0.98590087890625,0.09954833984375
1759846810435,1034599884,31693,9,0.078369140625,-1.02447509765625,0.09149169921875
1759846810435,1034599884,31693,10,0.087646484375,-0.99053955078125,0.10882568359375
1759846810435,1034599884,31693,11,0.076416015625,-1.00177001953125,0.11834716796875
1759846810435,1034599884,31693,12,0.077392578125,-1.01080322265625,0.12933349609375
1759846810435,1034599884,31693,13,0.086181640625,-0.98956298828125,0.15081787109375
1759846810435,1034599884,31693,14,0.07763671875,-1.02032470703125,0.05853271484375
1759846810435,1034599884,31693,15,0.100341796875,-1.00299072265625,0.10540771484375
1759846810435,1034599884,31693,16,0.09716796875,-1.00860595703125,0.10272216796875
1759846810435,1034599884,31693,17,0.10986328125,-1.00445556640625,0.11248779296875
1759846810435,1034599884,31693,18,0.095703125,-1.00494384765625,0.11810302734375
1759846810435,1034599884,31693,19,0.10400390625,-1.00616455078125,0.12005615234375
1759846810435,1034599884,31693,20,0.105224609375,-1.00030517578125,0.12908935546875
1759846810435,1034599884,31693,21,0.095947265625,-1.00250244140625,0.12591552734375
1759846810435,1034599884,31693,22,0.1005859375,-1.00079345703125,0.14349365234375
1759846810435,1034599884,31693,23,0.119384765625,-0.98809814453125,0.12933349609375
1759846810435,1034599884,31693,24,0.11865234375,-0.98638916015625,0.13763427734375
1759846810435,1034599884,31693,25,0.104736328125,-1.01177978515625,0.14031982421875
1759846810435,1034599884,31693,26,0.12744140625,-0.99151611328125,0.11614990234375
1759846810435,1034599884,31693,27,0.112060546875,-1.01934814453125,0.09710693359375
1759846810435,1034599884,31693,28,0.119873046875,-1.00372314453125,0.08758544921875
1759846810435,1034599884,31693,29,0.097900390625,-1.00128173828125,0.07928466796875
1759846810435,1034599884,31693,30,0.103515625,-1.01007080078125,0.08831787109375
1759846810435,1034599884,31693,31,0.125732421875,-1.00225830078125,0.09979248046875
1759846813137,1034602463,31694,0,0.11962890625,-1.00030517578125,0.09149169921875
1759846813137,1034602463,31694,1,0.12158203125,-0.99981689453125,0.09637451171875
1759846813137,1034602463,31694,2,0.12255859375,-1.01324462890625,0.09759521484375
1759846813137,1034602463,31694,3,0.1171875,-1.00787353515625,0.09613037109375
1759846813137,1034602463,31694,4,0.11083984375,-1.00030517578125,0.08441162109375
1759846813137,1034602463,31694,5,0.1025390625,-1.01495361328125,0.08319091796875
1759846813137,1034602463,31694,6,0.12255859375,-1.00811767578125,0.07537841796875
1759846813137,1034602463,31694,7,0.102294921875,-1.02301025390625,0.09271240234375
1759846813137,1034602463,31694,8,0.14306640625,-0.98004150390625,0.10418701171875
1759846813137,1034602463,31694,9,0.125,-0.97491455078125,0.12493896484375
1759846813137,1034602463,31694,10,0.143310546875,-1.01031494140625,0.09222412109375
1759846813137,1034602463,31694,11,0.12646484375,-1.00982666015625,0.08734130859375
1759846813137,1034602463,31694,12,0.1123046875,-1.02398681640625,0.05999755859375
1759846813137,1034602463,31694,13,0.100830078125,-1.00128173828125,0.08319091796875
1759846813137,1034602463,31694,14,0.131591796875,-1.01275634765625,0.05926513671875
1759846813137,1034602463,31694,15,0.095703125,-1.00445556640625,0.08807373046875
1759846813137,1034602463,31694,16,0.121826171875,-1.01129150390625,0.06219482421875
1759846813137,1034602463,31694,17,0.09130859375,-1.00885009765625,0.06805419921875
1759846813137,1034602463,31694,18,0.11376953125,-1.01275634765625,0.04974365234375
1759846813137,1034602463,31694,19,0.1240234375,-1.00152587890625,0.06927490234375
1759846813137,1034602463,31694,20,0.130615234375,-1.00982666015625,0.06781005859375
1759846813137,1034602463,31694,21,0.107177734375,-1.01959228515625,0.04949951171875
1759846813137,1034602463,31694,22,0.131103515625,-1.00958251953125,0.05364990234375
1759846813137,1034602463,31694,23,0.123291015625,-1.00616455078125,0.06097412109375
1759846813137,1034602463,31694,24,0.106689453125,-1.00958251953125,0.05047607421875
1759846813137,1034602463,31694,25,0.11767578125,-1.01226806640625,0.04998779296875
1759846813137,1034602463,31694,26,0.11328125,-1.01104736328125,0.04949951171875
1759846813137,1034602463,31694,27,0.11572265625,-1.00860595703125,0.04730224609375
1759846813137,1034602463,31694,28,0.114013671875,-1.01129150390625,0.06365966796875
1759846813137,1034602463,31694,29,0.11376953125,-1.01300048828125,0.05926513671875
1759846813137,1034602463,31694,30,0.115234375,-1.00909423828125,0.04705810546875
1759846813137,1034602463,31694,31,0.1142578125,-1.00592041015625,0.04461669921875
1759846815685,1034605042,31695,0,0.089111328125,-1.01324462890625,0.05975341796875
1759846815685,1034605042,31695,1,0.1044921875,-1.01788330078125,0.05731201171875
1759846815685,1034605042,31695,2,0.10302734375,-1.00787353515625,0.04656982421875
1759846815685,1034605042,31695,3,0.12255859375,-1.01788330078125,0.04705810546875
1759846815685,1034605042,31695,4,0.121337890625,-1.01275634765625,0.03924560546875
1759846815685,1034605042,31695,5,0.125732421875,-0.99688720703125,0.04364013671875
1759846815685,1034605042,31695,6,0.120849609375,-1.02471923828125,0.08074951171875
1759846815685,1034605042,31695,7,0.133544921875,-1.00103759765625,0.04608154296875
1759846815685,1034605042,31695,8,0.1328125,-1.01007080078125,0.06097412109375
1759846815685,1034605042,31695,9,0.135986328125,-1.00616455078125,0.06170654296875
1759846815685,1034605042,31695,10,0.141845703125,-1.00640869140625,0.05462646484375
1759846815685,1034605042,31695,11,0.139404296875,-1.00152587890625,0.06683349609375
1759846815685,1034605042,31695,12,0.12060546875,-1.01251220703125,0.06195068359375
1759846815685,1034605042,31695,13,0.136962890625,-1.01055908203125,0.05926513671875
