receivedPhoneTimestamp,respeckTimestamp,packetSeqNum,sampleSeqNum,accelX,accelY,accelZ
1759503474565,691074400,28460,0,0.9423828125,0.12152099609375,0.21405029296875
1759503474565,691074400,28460,1,0.941162109375,0.12274169921875,0.21380615234375
1759503474565,691074400,28460,2,0.9443359375,0.11956787109375,0.21893310546875
1759503474565,691074400,28460,3,0.940673828125,0.12005615234375,0.22161865234375
1759503474565,691074400,28460,4,0.94140625,0.11761474609375,0.22454833984375
1759503474565,691074400,28460,5,0.93212890625,0.12176513671875,0.22161865234375
1759503474565,691074400,28460,6,0.939453125,0.12347412109375,0.22088623046875
1759503474565,691074400,28460,7,0.9306640625,0.12396240234375,0.21942138671875
1759503474565,691074400,28460,8,0.94140625,0.11248779296875,0.23455810546875
1759503474565,691074400,28460,9,0.93212890625,0.11956787109375,0.22991943359375
1759503474565,691074400,28460,10,0.93115234375,0.12518310546875,0.22576904296875
1759503474565,691074400,28460,11,0.936767578125,0.12542724609375,0.22576904296875
1759503474565,691074400,28460,12,0.938720703125,0.11688232421875,0.22650146484375
1759503474565,691074400,28460,13,0.942626953125,0.11346435546875,0.23065185546875
1759503474565,691074400,28460,14,0.931396484375,0.11859130859375,0.23309326171875
1759503474565,691074400,28460,15,0.933837890625,0.11907958984375,0.23358154296875
1759503474565,691074400,28460,16,0.933837890625,0.11639404296875,0.22259521484375
1759503474565,691074400,28460,17,0.94091796875,0.11810302734375,0.22967529296875
1759503474565,691074400,28460,18,0.942138671875,0.11907958984375,0.22650146484375
1759503474565,691074400,28460,19,0.936279296875,0.12176513671875,0.22503662109375
1759503474565,691074400,28460,20,0.9365234375,0.12005615234375,0.22064208984375
1759503474565,691074400,28460,21,0.93310546875,0.12225341796875,0.22430419921875
1759503474565,691074400,28460,22,0.93896484375,0.11932373046875,0.22821044921875
1759503474565,691074400,28460,23,0.944091796875,0.11834716796875,0.22601318359375
1759503474565,691074400,28460,24,0.93115234375,0.11737060546875,0.22576904296875
1759503474565,691074400,28460,25,0.936279296875,0.11761474609375,0.22137451171875
1759503474565,691074400,28460,26,0.9482421875,0.11810302734375,0.22503662109375
1759503474565,691074400,28460,27,0.934814453125,0.12054443359375,0.22235107421875
1759503474565,691074400,28460,28,0.93603515625,0.12176513671875,0.22283935546875
1759503474565,691074400,28460,29,0.93994140625,0.12274169921875,0.21746826171875
1759503474565,691074400,28460,30,0.93994140625,0.12005615234375,0.22088623046875
1759503474565,691074400,28460,31,0.9345703125,0.12152099609375,0.22039794921875
1759503477101,691076943,28461,0,0.937744140625,0.12249755859375,0.22161865234375
1759503477101,691076943,28461,1,0.935546875,0.12078857421875,0.21893310546875
1759503477101,691076943,28461,2,0.93798828125,0.12322998046875,0.21820068359375
1759503477101,691076943,28461,3,0.943603515625,0.12249755859375,0.21844482421875
1759503477101,691076943,28461,4,0.93505859375,0.11663818359375,0.22357177734375
1759503477101,691076943,28461,5,0.94140625,0.13348388671875,0.20404052734375
1759503477101,691076943,28461,6,0.940185546875,0.11883544921875,0.21868896484375
1759503477101,691076943,28461,7,0.944580078125,0.12420654296875,0.21942138671875
1759503477101,691076943,28461,8,0.93212890625,0.12249755859375,0.21771240234375
1759503477101,691076943,28461,9,0.939453125,0.12469482421875,0.21453857421875
1759503477101,691076943,28461,10,0.93896484375,0.12298583984375,0.21331787109375
1759503477101,691076943,28461,11,0.950927734375,0.13006591796875,0.21307373046875
1759503477101,691076943,28461,12,0.9326171875,0.12347412109375,0.22039794921875
1759503477101,691076943,28461,13,0.932373046875,0.12274169921875,0.21722412109375
1759503477101,691076943,28461,14,0.939453125,0.12445068359375,0.21942138671875
1759503477101,691076943,28461,15,0.943603515625,0.12884521484375,0.21160888671875
1759503477101,691076943,28461,16,0.945556640625,0.12591552734375,0.21063232421875
1759503477101,691076943,28461,17,0.931640625,0.12738037109375,0.21527099609375
1759503477101,691076943,28461,18,0.939697265625,0.12713623046875,0.21209716796875
1759503477101,691076943,28461,19,0.94384765625,0.12786865234375,0.21112060546875
1759503477101,691076943,28461,20,0.9453125,0.12884521484375,0.21038818359375
1759503477101,691076943,28461,21,0.942138671875,0.12493896484375,0.21356201171875
1759503477101,691076943,28461,22,0.941162109375,0.12615966796875,0.21575927734375
1759503477101,691076943,28461,23,0.930908203125,0.12469482421875,0.21820068359375
1759503477101,691076943,28461,24,0.940185546875,0.12713623046875,0.21771240234375
1759503477101,691076943,28461,25,0.9599609375,0.11761474609375,0.22479248046875
1759503477101,691076943,28461,26,0.9228515625,0.13470458984375,0.21624755859375
1759503477101,691076943,28461,27,0.951416015625,0.12249755859375,0.22137451171875
1759503479635,691079486,28462,2,0.937255859375,0.12103271484375,0.23211669921875
1759503479635,691079486,28462,3,0.936767578125,0.11834716796875,0.21942138671875
1759503479635,691079486,28462,4,0.95166015625,0.10980224609375,0.24212646484375
1759503479635,691079486,28462,5,0.92431640625,0.12420654296875,0.22772216796875
1759503479635,691079486,28462,6,0.929443359375,0.11004638671875,0.22796630859375
1759503479635,691079486,28462,7,0.935546875,0.11639404296875,0.23138427734375
1759503479635,691079486,28462,8,0.931884765625,0.12103271484375,0.22674560546875
1759503479635,691079486,28462,9,0.9453125,0.12249755859375,0.22991943359375
1759503479635,691079486,28462,10,0.941162109375,0.11224365234375,0.23455810546875
1759503479635,691079486,28462,11,0.934326171875,0.12030029296875,0.22601318359375
1759503479635,691079486,28462,12,0.935791015625,0.11297607421875,0.23968505859375
1759503479635,691079486,28462,13,0.93212890625,0.11956787109375,0.23187255859375
1759503479635,691079486,28462,14,0.9326171875,0.11029052734375,0.23455810546875
1759503479635,691079486,28462,15,0.937255859375,0.12103271484375,0.23431396484375
1759503479635,691079486,28462,16,0.93310546875,0.11663818359375,0.23309326171875
1759503479635,691079486,28462,17,0.939697265625,0.11834716796875,0.23089599609375
1759503479635,691079486,28462,18,0.931640625,0.12152099609375,0.23260498046875
1759503479635,691079486,28462,19,0.93505859375,0.11492919921875,0.23626708984375
1759503479635,691079486,28462,20,0.9375,0.11102294921875,0.23895263671875
1759503479635,691079486,28462,21,0.9365234375,0.12274169921875,0.23504638671875
1759503479635,691079486,28462,22,0.934814453125,0.11956787109375,0.22845458984375
1759503479635,691079486,28462,23,0.943603515625,0.11907958984375,0.23382568359375
1759503479635,691079486,28462,24,0.93115234375,0.12005615234375,0.22918701171875
1759503479635,691079486,28462,25,0.923095703125,0.12176513671875,0.23602294921875
1759503479635,691079486,28462,26,0.93359375,0.11102294921875,0.23992919921875
1759503479635,691079486,28462,27,0.93798828125,0.11126708984375,0.24578857421875
1759503479635,691079486,28462,28,0.927734375,0.11346435546875,0.24749755859375
1759503479635,691079486,28462,29,0.9248046875,0.11639404296875,0.23797607421875
1759503479635,691079486,28462,30,0.931640625,0.11248779296875,0.24114990234375
1759503479635,691079486,28462,31,0.93701171875,0.11151123046875,0.24114990234375
1759503482171,691082029,28463,0,0.9365234375,0.11102294921875,0.24261474609375
1759503482171,691082029,28463,1,0.927490234375,0.11395263671875,0.23553466796875
1759503482171,691082029,28463,2,0.934814453125,0.11444091796875,0.23797607421875
1759503482171,691082029,28463,3,0.935546875,0.11102294921875,0.23870849609375
1759503482171,691082029,28463,4,0.934814453125,0.11761474609375,0.24041748046875
1759503482171,691082029,28463,5,0.93359375,0.11273193359375,0.23699951171875
1759503482171,691082029,28463,6,0.9404296875,0.11151123046875,0.23992919921875
1759503482171,691082029,28463,7,0.9326171875,0.12078857421875,0.23187255859375
1759503482171,691082029,28463,8,0.926513671875,0.11712646484375,0.24041748046875
1759503482171,691082029,28463,9,0.933349609375,0.11492919921875,0.24041748046875
1759503482171,691082029,28463,10,0.936279296875,0.11566162109375,0.23675537109375
1759503482171,691082029,28463,11,0.930419921875,0.11907958984375,0.23480224609375
1759503482171,691082029,28463,12,0.93310546875,0.12591552734375,0.22308349609375
1759503482171,691082029,28463,13,0.951416015625,0.13055419921875,0.22283935546875
1759503482171,691082029,28463,14,0.91748046875,0.13006591796875,0.22088623046875
1759503482171,691082029,28463,15,0.939208984375,0.13494873046875,0.22235107421875
1759503482171,691082029,28463,16,0.9345703125,0.14202880859375,0.21502685546875
1759503482171,691082029,28463,17,0.957275390625,0.13177490234375,0.21966552734375
1759503482171,691082029,28463,18,0.93408203125,0.13397216796875,0.22454833984375
1759503482171,691082029,28463,19,0.943359375,0.13641357421875,0.21258544921875
1759503482171,691082029,28463,20,0.941650390625,0.13348388671875,0.21014404296875
1759503482171,691082029,28463,21,0.9384765625,0.12054443359375,0.22430419921875
1759503482171,691082029,28463,22,0.91796875,0.12591552734375,0.23846435546875
1759503482171,691082029,28463,23,0.912109375,0.12371826171875,0.23577880859375
1759503482171,691082029,28463,24,0.944580078125,0.11004638671875,0.25238037109375
1759503482171,691082029,28463,25,0.932861328125,0.12786865234375,0.23822021484375
1759503482171,691082029,28463,26,0.925048828125,0.12249755859375,0.23895263671875
1759503482171,691082029,28463,27,0.933349609375,0.11566162109375,0.24261474609375
1759503482171,691082029,28463,28,0.933349609375,0.11932373046875,0.23822021484375
1759503482171,691082029,28463,29,0.927490234375,0.12005615234375,0.23773193359375
1759503482171,691082029,28463,30,0.928955078125,0.12200927734375,0.23773193359375
1759503482171,691082029,28463,31,0.93505859375,0.11907958984375,0.23797607421875
1759503484706,691084573,28464,0,0.9326171875,0.11444091796875,0.23748779296875
1759503484706,691084573,28464,1,0.928466796875,0.12103271484375,0.23577880859375
1759503484706,691084573,28464,2,0.935546875,0.12005615234375,0.23797607421875
1759503484706,691084573,28464,3,0.931396484375,0.11712646484375,0.23846435546875
1759503484706,691084573,28464,4,0.931640625,0.11785888671875,0.24114990234375
1759503484706,691084573,28464,5,0.930419921875,0.12030029296875,0.23870849609375
1759503484706,691084573,28464,6,0.92822265625,0.11859130859375,0.23675537109375
1759503484706,691084573,28464,7,0.935546875,0.11859130859375,0.23675537109375
1759503484706,691084573,28464,8,0.933349609375,0.11663818359375,0.23870849609375
1759503484706,691084573,28464,9,0.933837890625,0.12127685546875,0.24017333984375
1759503484706,691084573,28464,10,0.93212890625,0.11444091796875,0.23968505859375
1759503484706,691084573,28464,11,0.93017578125,0.12225341796875,0.23992919921875
1759503484706,691084573,28464,12,0.93603515625,0.12249755859375,0.23797607421875
1759503484706,691084573,28464,13,0.93408203125,0.11859130859375,0.23284912109375
1759503484706,691084573,28464,14,0.932861328125,0.11834716796875,0.23455810546875
1759503484706,691084573,28464,15,0.9365234375,0.11907958984375,0.23577880859375
1759503484706,691084573,28464,16,0.932861328125,0.11981201171875,0.23797607421875
1759503484706,691084573,28464,17,0.94189453125,0.11981201171875,0.23529052734375
1759503484706,691084573,28464,18,0.93505859375,0.12200927734375,0.23358154296875
1759503484706,691084573,28464,19,0.930908203125,0.12152099609375,0.23358154296875
1759503484706,691084573,28464,20,0.92138671875,0.12420654296875,0.23284912109375
1759503484706,691084573,28464,21,0.930908203125,0.11566162109375,0.24407958984375
1759503484706,691084573,28464,22,0.9306640625,0.11492919921875,0.24700927734375
1759503484706,691084573,28464,23,0.926025390625,0.11566162109375,0.24822998046875
1759503484706,691084573,28464,24,0.92431640625,0.12103271484375,0.23870849609375
1759503484706,691084573,28464,25,0.9345703125,0.11566162109375,0.24359130859375
1759503484706,691084573,28464,26,0.927978515625,0.11688232421875,0.23675537109375
1759503484706,691084573,28464,27,0.94482421875,0.11395263671875,0.24700927734375
1759503484706,691084573,28464,28,0.9228515625,0.12322998046875,0.23504638671875
1759503484706,691084573,28464,29,0.9306640625,0.11322021484375,0.24066162109375
1759503484706,691084573,28464,30,0.931640625,0.12274169921875,0.23553466796875
1759503484706,691084573,28464,31,0.937255859375,0.11907958984375,0.23748779296875
1759503487240,691087116,28465,0,0.93212890625,0.11541748046875,0.23944091796875
1759503487240,691087116,28465,1,0.9365234375,0.11444091796875,0.24212646484375
1759503487240,691087116,28465,2,0.933349609375,0.11566162109375,0.23822021484375
1759503487240,691087116,28465,3,0.92919921875,0.11785888671875,0.23577880859375
1759503487240,691087116,28465,4,0.93701171875,0.11712646484375,0.23724365234375
1759503487240,691087116,28465,5,0.931640625,0.12054443359375,0.23553466796875
1759503487240,691087116,28465,6,0.93310546875,0.12005615234375,0.23309326171875
1759503487240,691087116,28465,7,0.93896484375,0.11834716796875,0.23626708984375
1759503487240,691087116,28465,8,0.93359375,0.11981201171875,0.23138427734375
1759503487240,691087116,28465,9,0.93115234375,0.12152099609375,0.23089599609375
1759503487240,691087116,28465,10,0.93603515625,0.11712646484375,0.23309326171875
1759503487240,691087116,28465,11,0.9326171875,0.12225341796875,0.23138427734375
1759503487240,691087116,28465,12,0.94091796875,0.12054443359375,0.22869873046875
1759503487240,691087116,28465,13,0.9482421875,0.11834716796875,0.23114013671875
1759503487240,691087116,28465,14,0.93701171875,0.11614990234375,0.23724365234375
1759503487240,691087116,28465,15,0.93212890625,0.12884521484375,0.23406982421875
1759503487240,691087116,28465,16,0.935546875,0.11932373046875,0.23870849609375
1759503487240,691087116,28465,17,0.9384765625,0.11712646484375,0.23968505859375
1759503487240,691087116,28465,18,0.92626953125,0.11981201171875,0.24334716796875
1759503487240,691087116,28465,19,0.9208984375,0.11541748046875,0.25091552734375
1759503487240,691087116,28465,20,0.9267578125,0.11712646484375,0.25360107421875
1759503487240,691087116,28465,21,0.91943359375,0.11932373046875,0.24993896484375
1759503487240,691087116,28465,22,0.93505859375,0.11541748046875,0.25189208984375
1759503487240,691087116,28465,23,0.931884765625,0.12274169921875,0.24530029296875
1759503487240,691087116,28465,24,0.93896484375,0.12835693359375,0.22698974609375
1759503487240,691087116,28465,25,0.939697265625,0.12298583984375,0.23333740234375
1759503487240,691087116,28465,26,0.9189453125,0.13128662109375,0.22943115234375
1759503487240,691087116,28465,27,0.94140625,0.12835693359375,0.22406005859375
1759503487240,691087116,28465,28,0.93798828125,0.12493896484375,0.22576904296875
1759503487240,691087116,28465,29,0.9521484375,0.11688232421875,0.17645263671875
1759503487240,691087116,28465,30,0.95654296875,0.17669677734375,0.20965576171875
1759503487240,691087116,28465,31,0.89794921875,0.20257568359375,0.19622802734375
1759503489775,691089659,28466,0,0.97021484375,0.13641357421875,0.21990966796875
1759503489775,691089659,28466,1,0.912353515625,0.15692138671875,0.13275146484375
1759503489775,691089659,28466,2,0.984130859375,0.17816162109375,0.18914794921875
1759503489775,691089659,28466,3,0.918212890625,0.18865966796875,0.20086669921875
1759503489775,691089659,28466,4,0.8896484375,0.14373779296875,0.13616943359375
1759503489775,691089659,28466,5,1.0048828125,0.19744873046875,0.19842529296875
1759503489775,691089659,28466,6,0.923828125,0.15374755859375,0.17694091796875
1759503489775,691089659,28466,7,0.945068359375,0.16839599609375,0.12982177734375
1759503489775,691089659,28466,8,0.998779296875,0.18963623046875,0.17913818359375
1759503489775,691089659,28466,9,0.902587890625,0.13812255859375,0.17547607421875
1759503489775,691089659,28466,10,0.918212890625,0.18304443359375,0.15472412109375
1759503489775,691089659,28466,11,0.96923828125,0.17620849609375,0.18817138671875
1759503489775,691089659,28466,12,0.92919921875,0.15472412109375,0.20135498046875
1759503489775,691089659,28466,13,0.92333984375,0.16717529296875,0.16619873046875
1759503489775,691089659,28466,14,0.958984375,0.16180419921875,0.18914794921875
1759503489775,691089659,28466,15,0.9375,0.15863037109375,0.18524169921875
1759503489775,691089659,28466,16,0.97607421875,0.14422607421875,0.25238037109375
1759503489775,691089659,28466,17,0.87109375,0.18109130859375,0.14031982421875
1759503489775,691089659,28466,18,0.970458984375,0.11273193359375,0.20892333984375
1759503489775,691089659,28466,19,0.913330078125,0.18475341796875,0.17327880859375
1759503489775,691089659,28466,20,0.995361328125,0.09808349609375,0.21429443359375
1759503489775,691089659,28466,21,0.93310546875,0.14569091796875,0.19671630859375
1759503489775,691089659,28466,22,0.9443359375,0.12884521484375,0.21942138671875
1759503489775,691089659,28466,23,0.911376953125,0.13372802734375,0.21917724609375
1759503489775,691089659,28466,24,0.93603515625,0.13372802734375,0.21234130859375
1759503489775,691089659,28466,25,0.939208984375,0.14056396484375,0.20135498046875
1759503489775,691089659,28466,26,0.935302734375,0.14959716796875,0.21063232421875
1759503489775,691089659,28466,27,0.948486328125,0.14080810546875,0.20843505859375
1759503489775,691089659,28466,28,0.93017578125,0.13690185546875,0.19989013671875
1759503489775,691089659,28466,29,0.939453125,0.14471435546875,0.21868896484375
1759503489775,691089659,28466,30,0.93701171875,0.13885498046875,0.20916748046875
1759503489775,691089659,28466,31,0.933837890625,0.13934326171875,0.20623779296875
1759503492310,691092202,28467,0,0.947509765625,0.14837646484375,0.20599365234375
1759503492310,691092202,28467,1,0.92822265625,0.15985107421875,0.19818115234375
1759503492310,691092202,28467,2,0.947509765625,0.14764404296875,0.20843505859375
1759503492310,691092202,28467,3,0.940185546875,0.14569091796875,0.20526123046875
1759503492310,691092202,28467,4,0.9375,0.14959716796875,0.20770263671875
1759503492310,691092202,28467,5,0.93798828125,0.14764404296875,0.20916748046875
1759503492310,691092202,28467,6,0.940185546875,0.15228271484375,0.20062255859375
1759503492310,691092202,28467,7,0.94482421875,0.14349365234375,0.22039794921875
1759503492310,691092202,28467,8,0.9306640625,0.15618896484375,0.22088623046875
1759503492310,691092202,28467,9,0.941162109375,0.13714599609375,0.21673583984375
1759503492310,691092202,28467,10,0.929931640625,0.13641357421875,0.21331787109375
1759503492310,691092202,28467,11,0.950439453125,0.12884521484375,0.22796630859375
1759503492310,691092202,28467,12,0.91845703125,0.14495849609375,0.23040771484375
1759503492310,691092202,28467,13,0.92919921875,0.11663818359375,0.23626708984375
1759503492310,691092202,28467,14,0.92822265625,0.10638427734375,0.25311279296875
1759503492310,691092202,28467,15,0.921142578125,0.11761474609375,0.26092529296875
1759503492310,691092202,28467,16,0.924072265625,0.12615966796875,0.24847412109375
1759503492310,691092202,28467,17,0.92822265625,0.11981201171875,0.24456787109375
1759503492310,691092202,28467,18,0.936767578125,0.11517333984375,0.25262451171875
1759503492310,691092202,28467,19,0.929443359375,0.11834716796875,0.24774169921875
1759503492310,691092202,28467,20,0.92724609375,0.11859130859375,0.24481201171875
1759503492310,691092202,28467,21,0.93017578125,0.11907958984375,0.24285888671875
1759503492310,691092202,28467,22,0.929443359375,0.11688232421875,0.24969482421875
1759503492310,691092202,28467,23,0.93212890625,0.11907958984375,0.24603271484375
1759503492310,691092202,28467,24,0.92822265625,0.11859130859375,0.26165771484375
1759503492310,691092202,28467,25,0.927978515625,0.11712646484375,0.23065185546875
1759503492310,691092202,28467,26,0.927001953125,0.12200927734375,0.24725341796875
1759503492310,691092202,28467,27,0.929931640625,0.11859130859375,0.25335693359375
1759503492310,691092202,28467,28,0.923583984375,0.12518310546875,0.24603271484375
1759503492310,691092202,28467,29,0.92822265625,0.11834716796875,0.25067138671875
1759503492310,691092202,28467,30,0.920166015625,0.11981201171875,0.24285888671875
1759503492310,691092202,28467,31,0.9306640625,0.11663818359375,0.24847412109375
1759503495039,691094745,28468,0,0.93896484375,0.12811279296875,0.23358154296875
1759503495039,691094745,28468,1,0.9326171875,0.12322998046875,0.23065185546875
1759503495039,691094745,28468,2,0.936279296875,0.11273193359375,0.23919677734375
1759503495039,691094745,28468,3,0.9248046875,0.12249755859375,0.24090576171875
1759503495039,691094745,28468,4,0.927734375,0.11981201171875,0.24285888671875
1759503495039,691094745,28468,5,0.932861328125,0.12249755859375,0.23651123046875
1759503495039,691094745,28468,6,0.9365234375,0.12152099609375,0.23260498046875
1759503495039,691094745,28468,7,0.9423828125,0.12152099609375,0.23773193359375
1759503495039,691094745,28468,8,0.926025390625,0.11859130859375,0.23675537109375
1759503495039,691094745,28468,9,0.922607421875,0.12225341796875,0.23846435546875
1759503495039,691094745,28468,10,0.932861328125,0.11712646484375,0.24725341796875
1759503495039,691094745,28468,11,0.926513671875,0.12078857421875,0.24285888671875
1759503495039,691094745,28468,12,0.931884765625,0.11761474609375,0.24212646484375
1759503495039,691094745,28468,13,0.9267578125,0.12274169921875,0.23651123046875
1759503495039,691094745,28468,14,0.93310546875,0.11712646484375,0.24505615234375
1759503495039,691094745,28468,15,0.927978515625,0.12176513671875,0.24505615234375
1759503495039,691094745,28468,16,0.92626953125,0.11663818359375,0.24554443359375
1759503495039,691094745,28468,17,0.9287109375,0.12103271484375,0.24456787109375
1759503495039,691094745,28468,18,0.9306640625,0.12127685546875,0.24700927734375
1759503495039,691094745,28468,19,0.93115234375,0.12176513671875,0.24456787109375
1759503495039,691094745,28468,20,0.931396484375,0.12225341796875,0.24505615234375
1759503495039,691094745,28468,21,0.92578125,0.12640380859375,0.24432373046875
1759503495039,691094745,28468,22,0.929931640625,0.12200927734375,0.24481201171875
1759503495039,691094745,28468,23,0.931396484375,0.12420654296875,0.24114990234375
1759503495039,691094745,28468,24,0.935302734375,0.12030029296875,0.24090576171875
1759503495039,691094745,28468,25,0.934814453125,0.12860107421875,0.24481201171875
1759503495039,691094745,28468,26,0.925537109375,0.12982177734375,0.24017333984375
1759503495039,691094745,28468,27,0.920654296875,0.12615966796875,0.24822998046875
1759503495039,691094745,28468,28,0.926513671875,0.11932373046875,0.26190185546875
1759503495039,691094745,28468,29,0.931396484375,0.12249755859375,0.25726318359375
1759503495039,691094745,28468,30,0.927978515625,0.13201904296875,0.24114990234375
1759503495039,691094745,28468,31,0.930908203125,0.12957763671875,0.24432373046875
1759503497381,691097288,28469,0,0.92822265625,0.12811279296875,0.24676513671875
1759503497381,691097288,28469,1,0.925537109375,0.12542724609375,0.24871826171875
1759503497381,691097288,28469,2,0.925048828125,0.12127685546875,0.25189208984375
1759503497381,691097288,28469,3,0.917236328125,0.13128662109375,0.24407958984375
1759503497381,691097288,28469,4,0.933837890625,0.12322998046875,0.25164794921875
1759503497381,691097288,28469,5,0.9375,0.10882568359375,0.26263427734375
1759503497381,691097288,28469,6,0.91259765625,0.12054443359375,0.26678466796875
1759503497381,691097288,28469,7,0.92041015625,0.12103271484375,0.25897216796875
1759503497381,691097288,28469,8,0.93115234375,0.12078857421875,0.24456787109375
1759503497381,691097288,28469,9,0.941162109375,0.11859130859375,0.24774169921875
1759503497381,691097288,28469,10,0.92578125,0.11639404296875,0.25115966796875
1759503497381,691097288,28469,11,0.9267578125,0.11785888671875,0.25115966796875
1759503497381,691097288,28469,12,0.929443359375,0.11932373046875,0.24822998046875
1759503497381,691097288,28469,13,0.928466796875,0.12005615234375,0.24774169921875
1759503497381,691097288,28469,14,0.9365234375,0.11834716796875,0.24334716796875
1759503497381,691097288,28469,15,0.921142578125,0.11859130859375,0.24871826171875
1759503497381,691097288,28469,16,0.927978515625,0.11761474609375,0.24749755859375
1759503497381,691097288,28469,17,0.933349609375,0.12249755859375,0.24432373046875
1759503497381,691097288,28469,18,0.93115234375,0.11761474609375,0.24700927734375
1759503497381,691097288,28469,19,0.923828125,0.11859130859375,0.24652099609375
1759503497381,691097288,28469,20,0.923828125,0.12030029296875,0.25140380859375
1759503497381,691097288,28469,21,0.92919921875,0.12347412109375,0.24261474609375
1759503497381,691097288,28469,22,0.932861328125,0.12127685546875,0.24334716796875
1759503497381,691097288,28469,23,0.936279296875,0.12322998046875,0.24652099609375
1759503497381,691097288,28469,24,0.923828125,0.11907958984375,0.25067138671875
1759503497381,691097288,28469,25,0.9248046875,0.11688232421875,0.25018310546875
1759503497381,691097288,28469,26,0.92919921875,0.12322998046875,0.24945068359375
1759503497381,691097288,28469,27,0.930908203125,0.12249755859375,0.24432373046875
1759503497381,691097288,28469,28,0.92236328125,0.12542724609375,0.24652099609375
1759503497381,691097288,28469,29,0.926025390625,0.12225341796875,0.24603271484375
1759503497381,691097288,28469,30,0.929443359375,0.12322998046875,0.24505615234375
1759503497381,691097288,28469,31,0.932373046875,0.12225341796875,0.24578857421875
1759503499914,691099831,28470,0,0.928466796875,0.12347412109375,0.24432373046875
1759503499914,691099831,28470,1,0.9306640625,0.11981201171875,0.24676513671875
1759503499914,691099831,28470,2,0.927490234375,0.12371826171875,0.24261474609375
1759503499914,691099831,28470,3,0.927001953125,0.12225341796875,0.24749755859375
1759503499914,691099831,28470,4,0.9296875,0.12298583984375,0.24725341796875
1759503499914,691099831,28470,5,0.9267578125,0.12835693359375,0.24139404296875
1759503499914,691099831,28470,6,0.9326171875,0.12493896484375,0.24554443359375
1759503499914,691099831,28470,7,0.92919921875,0.12274169921875,0.24871826171875
1759503499914,691099831,28470,8,0.924072265625,0.12835693359375,0.24896240234375
1759503499914,691099831,28470,9,0.919921875,0.12396240234375,0.24920654296875
1759503499914,691099831,28470,10,0.929931640625,0.11859130859375,0.25848388671875
1759503499914,691099831,28470,11,0.92236328125,0.12127685546875,0.25360107421875
1759503499914,691099831,28470,12,0.92626953125,0.11834716796875,0.25238037109375
1759503499914,691099831,28470,13,0.92822265625,0.11859130859375,0.25091552734375
1759503499914,691099831,28470,14,0.93310546875,0.11981201171875,0.24920654296875
1759503499914,691099831,28470,15,0.937255859375,0.12005615234375,0.24871826171875
1759503499914,691099831,28470,16,0.92431640625,0.11883544921875,0.24774169921875
1759503499914,691099831,28470,17,0.91650390625,0.11199951171875,0.26678466796875
1759503499914,691099831,28470,18,0.927001953125,0.11737060546875,0.25164794921875
1759503499914,691099831,28470,19,0.93212890625,0.12200927734375,0.24481201171875
1759503499914,691099831,28470,20,0.9375,0.12005615234375,0.25775146484375
1759503499914,691099831,28470,21,0.931396484375,0.12030029296875,0.23602294921875
1759503499914,691099831,28470,22,0.91748046875,0.11273193359375,0.25823974609375
1759503499914,691099831,28470,23,0.92431640625,0.10784912109375,0.27484130859375
1759503499914,691099831,28470,24,0.9140625,0.10809326171875,0.26287841796875
1759503499914,691099831,28470,25,0.939697265625,0.11785888671875,0.24090576171875
1759503499914,691099831,28470,26,0.947021484375,0.11663818359375,0.24456787109375
1759503499914,691099831,28470,27,0.92822265625,0.11834716796875,0.24334716796875
1759503499914,691099831,28470,28,0.93408203125,0.11077880859375,0.24896240234375
1759503499914,691099831,28470,29,0.92578125,0.11346435546875,0.24603271484375
1759503499914,691099831,28470,30,0.933349609375,0.11248779296875,0.24530029296875
1759503499914,691099831,28470,31,0.93310546875,0.11859130859375,0.23992919921875
1759503502450,691102374,28471,0,0.936279296875,0.11419677734375,0.23358154296875
1759503502450,691102374,28471,1,0.938232421875,0.11639404296875,0.23968505859375
1759503502450,691102374,28471,2,0.929443359375,0.11419677734375,0.23699951171875
1759503502450,691102374,28471,3,0.93212890625,0.11224365234375,0.23651123046875
1759503502450,691102374,28471,4,0.931396484375,0.11492919921875,0.23724365234375
1759503502450,691102374,28471,5,0.938720703125,0.11688232421875,0.24017333984375
1759503502450,691102374,28471,6,0.932373046875,0.11712646484375,0.24114990234375
1759503502450,691102374,28471,7,0.930908203125,0.11468505859375,0.23577880859375
1759503502450,691102374,28471,8,0.9287109375,0.11346435546875,0.24066162109375
1759503502450,691102374,28471,9,0.932373046875,0.11712646484375,0.23724365234375
1759503502450,691102374,28471,10,0.9375,0.11785888671875,0.23504638671875
1759503502450,691102374,28471,11,0.939453125,0.11932373046875,0.22894287109375
1759503502450,691102374,28471,12,0.9375,0.12030029296875,0.23236083984375
1759503502450,691102374,28471,13,0.93212890625,0.11785888671875,0.23431396484375
1759503502450,691102374,28471,14,0.92333984375,0.11785888671875,0.23455810546875
1759503502450,691102374,28471,15,0.92919921875,0.11907958984375,0.23651123046875
1759503502450,691102374,28471,16,0.947998046875,0.12518310546875,0.23138427734375
1759503502450,691102374,28471,17,0.943603515625,0.12200927734375,0.23431396484375
1759503502450,691102374,28471,18,0.9326171875,0.12200927734375,0.22967529296875
1759503502450,691102374,28471,19,0.931396484375,0.12200927734375,0.23699951171875
1759503502450,691102374,28471,20,0.93212890625,0.12078857421875,0.23602294921875
1759503502450,691102374,28471,21,0.932373046875,0.12005615234375,0.23748779296875
1759503502450,691102374,28471,22,0.937255859375,0.12225341796875,0.23870849609375
1759503502450,691102374,28471,23,0.930908203125,0.12371826171875,0.23504638671875
1759503502450,691102374,28471,24,0.92333984375,0.12322998046875,0.24603271484375
1759503502450,691102374,28471,25,0.923583984375,0.11859130859375,0.24871826171875
1759503502450,691102374,28471,26,0.92724609375,0.10980224609375,0.26141357421875
1759503502450,691102374,28471,27,0.9306640625,0.12005615234375,0.25604248046875
