receivedPhoneTimestamp,respeckTimestamp,packetSeqNum,sampleSeqNum,accelX,accelY,accelZ
1760205500248,1408148340,19130,16,-0.509521484375,-0.27838134765625,0.76141357421875
1760205500248,1408148340,19130,17,-0.501220703125,-0.28375244140625,0.76727294921875
1760205500248,1408148340,19130,18,-0.515625,-0.28179931640625,0.76580810546875
1760205500248,1408148340,19130,19,-0.50927734375,-0.28399658203125,0.76165771484375
1760205500248,1408148340,19130,20,-0.51171875,-0.28277587890625,0.76165771484375
1760205500248,1408148340,19130,21,-0.50146484375,-0.28302001953125,0.76458740234375
1760205500248,1408148340,19130,22,-0.497802734375,-0.28350830078125,0.76434326171875
1760205500248,1408148340,19130,23,-0.495361328125,-0.29547119140625,0.76385498046875
1760205500248,1408148340,19130,24,-0.529296875,-0.28912353515625,0.75457763671875
1760205500248,1408148340,19130,25,-0.524169921875,-0.29107666015625,0.76165771484375
1760205500248,1408148340,19130,26,-0.495361328125,-0.30645751953125,0.76922607421875
1760205500248,1408148340,19130,27,-0.481689453125,-0.30450439453125,0.76483154296875
1760205500248,1408148340,19130,28,-0.49951171875,-0.31646728515625,0.75726318359375
1760205500248,1408148340,19130,29,-0.50634765625,-0.30352783203125,0.75628662109375
1760205500248,1408148340,19130,30,-0.4921875,-0.29815673828125,0.76727294921875
1760205500248,1408148340,19130,31,-0.46923828125,-0.30279541015625,0.77239990234375
1760205502768,1408150913,19131,0,-0.507080078125,-0.30889892578125,0.76580810546875
1760205502768,1408150913,19131,1,-0.489990234375,-0.28399658203125,0.75994873046875
1760205502768,1408150913,19131,2,-0.50390625,-0.31866455078125,0.76507568359375
1760205502768,1408150913,19131,3,-0.50927734375,-0.31060791015625,0.76019287109375
1760205502768,1408150913,19131,4,-0.505126953125,-0.28253173828125,0.76409912109375
1760205502768,1408150913,19131,5,-0.493408203125,-0.31744384765625,0.76092529296875
1760205502768,1408150913,19131,6,-0.4853515625,-0.29620361328125,0.76434326171875
1760205502768,1408150913,19131,7,-0.49609375,-0.30303955078125,0.77117919921875
1760205502768,1408150913,19131,8,-0.478271484375,-0.28399658203125,0.76458740234375
1760205502768,1408150913,19131,9,-0.514892578125,-0.30010986328125,0.76043701171875
1760205502768,1408150913,19131,10,-0.52099609375,-0.29913330078125,0.76385498046875
1760205502768,1408150913,19131,11,-0.4970703125,-0.29644775390625,0.76141357421875
1760205502768,1408150913,19131,12,-0.51171875,-0.30010986328125,0.75946044921875
1760205502768,1408150913,19131,13,-0.465087890625,-0.30352783203125,0.77557373046875
1760205502768,1408150913,19131,14,-0.511474609375,-0.28472900390625,0.75799560546875
1760205502768,1408150913,19131,15,-0.50732421875,-0.28692626953125,0.76019287109375
1760205502768,1408150913,19131,16,-0.5009765625,-0.29669189453125,0.76605224609375
1760205502768,1408150913,19131,17,-0.485107421875,-0.29815673828125,0.77435302734375
1760205502768,1408150913,19131,18,-0.49755859375,-0.29327392578125,0.76629638671875
1760205502768,1408150913,19131,19,-0.51806640625,-0.29376220703125,0.75946044921875
1760205502768,1408150913,19131,20,-0.51611328125,-0.28790283203125,0.75653076171875
1760205502768,1408150913,19131,21,-0.4833984375,-0.29302978515625,0.77752685546875
1760205502768,1408150913,19131,22,-0.457275390625,-0.30108642578125,0.78607177734375
1760205502768,1408150913,19131,23,-0.4912109375,-0.29986572265625,0.77752685546875
1760205502768,1408150913,19131,24,-0.498046875,-0.29498291015625,0.76922607421875
1760205502768,1408150913,19131,25,-0.5009765625,-0.30352783203125,0.76019287109375
1760205502768,1408150913,19131,26,-0.511962890625,-0.29864501953125,0.75311279296875
1760205502768,1408150913,19131,27,-0.505126953125,-0.29376220703125,0.75701904296875
1760205502768,1408150913,19131,28,-0.474853515625,-0.29376220703125,0.77484130859375
1760205502768,1408150913,19131,29,-0.474365234375,-0.30596923828125,0.77606201171875
1760205502768,1408150913,19131,30,-0.48779296875,-0.30133056640625,0.76531982421875
1760205502768,1408150913,19131,31,-0.50146484375,-0.30718994140625,0.76116943359375
1760205505478,1408153486,19132,0,-0.494384765625,-0.31134033203125,0.76605224609375
1760205505478,1408153486,19132,1,-0.494873046875,-0.30499267578125,0.76751708984375
1760205505478,1408153486,19132,2,-0.490478515625,-0.30645751953125,0.76824951171875
1760205505478,1408153486,19132,3,-0.498291015625,-0.30401611328125,0.77044677734375
1760205505478,1408153486,19132,4,-0.5009765625,-0.29937744140625,0.76239013671875
1760205505478,1408153486,19132,5,-0.49169921875,-0.30108642578125,0.77117919921875
1760205505478,1408153486,19132,6,-0.493408203125,-0.29962158203125,0.76995849609375
1760205505478,1408153486,19132,7,-0.4970703125,-0.30328369140625,0.76702880859375
1760205505478,1408153486,19132,8,-0.502685546875,-0.29278564453125,0.76043701171875
1760205505478,1408153486,19132,9,-0.501953125,-0.29205322265625,0.76409912109375
1760205505478,1408153486,19132,10,-0.500244140625,-0.29229736328125,0.76922607421875
1760205505478,1408153486,19132,11,-0.499755859375,-0.29571533203125,0.75872802734375
1760205505478,1408153486,19132,12,-0.5078125,-0.28863525390625,0.76483154296875
1760205505478,1408153486,19132,13,-0.505615234375,-0.29498291015625,0.76849365234375
1760205505478,1408153486,19132,14,-0.498779296875,-0.29498291015625,0.76531982421875
1760205505478,1408153486,19132,15,-0.496337890625,-0.29376220703125,0.76702880859375
1760205505478,1408153486,19132,16,-0.49951171875,-0.28887939453125,0.76702880859375
1760205505478,1408153486,19132,17,-0.50390625,-0.29620361328125,0.76361083984375
1760205505478,1408153486,19132,18,-0.50146484375,-0.29888916015625,0.77239990234375
1760205505478,1408153486,19132,19,-0.493896484375,-0.29425048828125,0.76995849609375
1760205505478,1408153486,19132,20,-0.49951171875,-0.28961181640625,0.76776123046875
1760205505478,1408153486,19132,21,-0.511474609375,-0.28399658203125,0.76165771484375
1760205505478,1408153486,19132,22,-0.513916015625,-0.25860595703125,0.76531982421875
1760205505478,1408153486,19132,23,-0.551513671875,-0.25640869140625,0.76116943359375
1760205505478,1408153486,19132,24,-0.53076171875,-0.24957275390625,0.75213623046875
1760205505478,1408153486,19132,25,-0.54248046875,-0.23321533203125,0.77142333984375
1760205505478,1408153486,19132,26,-0.544921875,-0.24468994140625,0.75335693359375
1760205505478,1408153486,19132,27,-0.559814453125,-0.23443603515625,0.75433349609375
1760205505478,1408153486,19132,28,-0.5498046875,-0.24273681640625,0.75457763671875
1760205505478,1408153486,19132,29,-0.5478515625,-0.24078369140625,0.76434326171875
1760205505478,1408153486,19132,30,-0.544189453125,-0.24200439453125,0.75677490234375
1760205505478,1408153486,19132,31,-0.5458984375,-0.25592041015625,0.77044677734375
1760205507998,1408156060,19133,0,-0.520751953125,-0.26641845703125,0.76556396484375
1760205507998,1408156060,19133,1,-0.51953125,-0.26275634765625,0.76019287109375
1760205507998,1408156060,19133,2,-0.512939453125,-0.27423095703125,0.76361083984375
1760205507998,1408156060,19133,3,-0.509033203125,-0.26983642578125,0.75628662109375
1760205507998,1408156060,19133,4,-0.52001953125,-0.25396728515625,0.76434326171875
1760205507998,1408156060,19133,5,-0.52978515625,-0.27374267578125,0.75506591796875
1760205507998,1408156060,19133,6,-0.52587890625,-0.26324462890625,0.75872802734375
1760205507998,1408156060,19133,7,-0.529541015625,-0.26031494140625,0.74969482421875
1760205507998,1408156060,19133,8,-0.553466796875,-0.26593017578125,0.76556396484375
1760205507998,1408156060,19133,9,-0.5263671875,-0.26275634765625,0.75726318359375
1760205507998,1408156060,19133,10,-0.52685546875,-0.26397705078125,0.76654052734375
1760205507998,1408156060,19133,11,-0.51416015625,-0.27227783203125,0.76165771484375
1760205507998,1408156060,19133,12,-0.526611328125,-0.27569580078125,0.75775146484375
1760205507998,1408156060,19133,13,-0.538818359375,-0.26470947265625,0.75823974609375
1760205507998,1408156060,19133,14,-0.53369140625,-0.26593017578125,0.75360107421875
1760205507998,1408156060,19133,15,-0.5322265625,-0.27227783203125,0.75140380859375
1760205507998,1408156060,19133,16,-0.524658203125,-0.27081298828125,0.76141357421875
1760205507998,1408156060,19133,17,-0.52734375,-0.26568603515625,0.76165771484375
1760205507998,1408156060,19133,18,-0.5302734375,-0.26422119140625,0.75823974609375
1760205507998,1408156060,19133,19,-0.529052734375,-0.27667236328125,0.76434326171875
1760205507998,1408156060,19133,20,-0.51611328125,-0.27447509765625,0.76580810546875
1760205507998,1408156060,19133,21,-0.50439453125,-0.28399658203125,0.76849365234375
1760205507998,1408156060,19133,22,-0.5009765625,-0.28668212890625,0.76873779296875
1760205507998,1408156060,19133,23,-0.508544921875,-0.28448486328125,0.76409912109375
1760205507998,1408156060,19133,24,-0.5048828125,-0.27618408203125,0.75921630859375
1760205507998,1408156060,19133,25,-0.5107421875,-0.27667236328125,0.76727294921875
1760205507998,1408156060,19133,26,-0.51123046875,-0.29010009765625,0.76263427734375
1760205507998,1408156060,19133,27,-0.5166015625,-0.28155517578125,0.75701904296875
1760205507998,1408156060,19133,28,-0.525146484375,-0.27593994140625,0.74603271484375
1760205507998,1408156060,19133,29,-0.549072265625,-0.29156494140625,0.76263427734375
1760205507998,1408156060,19133,30,-0.5244140625,-0.26397705078125,0.75067138671875
1760205507998,1408156060,19133,31,-0.53173828125,-0.27252197265625,0.75286865234375
1760205510506,1408158633,19134,0,-0.53271484375,-0.27203369140625,0.75360107421875
1760205510506,1408158633,19134,1,-0.530029296875,-0.26348876953125,0.75946044921875
1760205510506,1408158633,19134,2,-0.53271484375,-0.26983642578125,0.75750732421875
1760205510506,1408158633,19134,3,-0.53759765625,-0.26861572265625,0.75701904296875
1760205510506,1408158633,19134,4,-0.541748046875,-0.26324462890625,0.75433349609375
1760205510506,1408158633,19134,5,-0.53564453125,-0.25909423828125,0.75408935546875
1760205510506,1408158633,19134,6,-0.540771484375,-0.26446533203125,0.75604248046875
1760205510506,1408158633,19134,7,-0.535400390625,-0.26080322265625,0.75311279296875
1760205510506,1408158633,19134,8,-0.53515625,-0.25445556640625,0.75677490234375
1760205510506,1408158633,19134,9,-0.53662109375,-0.26885986328125,0.77044677734375
1760205510506,1408158633,19134,10,-0.52294921875,-0.26300048828125,0.75848388671875
1760205510506,1408158633,19134,11,-0.539794921875,-0.25689697265625,0.75555419921875
1760205510506,1408158633,19134,12,-0.526123046875,-0.26080322265625,0.76019287109375
1760205510506,1408158633,19134,13,-0.524658203125,-0.26446533203125,0.75921630859375
1760205510506,1408158633,19134,14,-0.5361328125,-0.26568603515625,0.76458740234375
1760205510506,1408158633,19134,15,-0.526123046875,-0.25811767578125,0.75799560546875
1760205510506,1408158633,19134,16,-0.534912109375,-0.26593017578125,0.75531005859375
1760205510506,1408158633,19134,17,-0.532470703125,-0.26129150390625,0.75848388671875
1760205510506,1408158633,19134,18,-0.528564453125,-0.26300048828125,0.75970458984375
1760205510506,1408158633,19134,19,-0.526611328125,-0.25592041015625,0.76116943359375
1760205510506,1408158633,19134,20,-0.52294921875,-0.25640869140625,0.76580810546875
1760205510506,1408158633,19134,21,-0.526123046875,-0.25738525390625,0.76507568359375
1760205510506,1408158633,19134,22,-0.527587890625,-0.26055908203125,0.76727294921875
1760205510506,1408158633,19134,23,-0.52587890625,-0.25372314453125,0.76580810546875
1760205510506,1408158633,19134,24,-0.52294921875,-0.25592041015625,0.76116943359375
1760205510506,1408158633,19134,25,-0.530517578125,-0.25225830078125,0.76019287109375
1760205510506,1408158633,19134,26,-0.530517578125,-0.25811767578125,0.76116943359375
1760205510506,1408158633,19134,27,-0.528076171875,-0.25616455078125,0.76605224609375
1760205510506,1408158633,19134,28,-0.528564453125,-0.26055908203125,0.76019287109375
1760205510506,1408158633,19134,29,-0.529541015625,-0.25787353515625,0.75775146484375
1760205510506,1408158633,19134,30,-0.52490234375,-0.25811767578125,0.76654052734375
1760205510506,1408158633,19134,31,-0.5322265625,-0.25567626953125,0.75823974609375
1760205513217,1408161206,19135,0,-0.54296875,-0.25250244140625,0.75775146484375
1760205513217,1408161206,19135,1,-0.513427734375,-0.26104736328125,0.76629638671875
1760205513217,1408161206,19135,2,-0.5126953125,-0.25592041015625,0.76507568359375
1760205513217,1408161206,19135,3,-0.5244140625,-0.25860595703125,0.76727294921875
1760205513217,1408161206,19135,4,-0.52197265625,-0.26324462890625,0.76409912109375
1760205513217,1408161206,19135,5,-0.503173828125,-0.26348876953125,0.77288818359375
1760205513217,1408161206,19135,6,-0.50244140625,-0.27178955078125,0.76800537109375
1760205513217,1408161206,19135,7,-0.5078125,-0.26983642578125,0.76580810546875
1760205513217,1408161206,19135,8,-0.526611328125,-0.27105712890625,0.76141357421875
1760205513217,1408161206,19135,9,-0.4951171875,-0.26080322265625,0.77581787109375
1760205513217,1408161206,19135,10,-0.531982421875,-0.26788330078125,0.76214599609375
1760205513217,1408161206,19135,11,-0.526611328125,-0.26763916015625,0.76165771484375
1760205513217,1408161206,19135,12,-0.51318359375,-0.26837158203125,0.76776123046875
1760205513217,1408161206,19135,13,-0.505126953125,-0.25616455078125,0.77166748046875
1760205513217,1408161206,19135,14,-0.518798828125,-0.28253173828125,0.77606201171875
1760205513217,1408161206,19135,15,-0.501953125,-0.29644775390625,0.76263427734375
1760205513217,1408161206,19135,16,-0.506591796875,-0.29180908203125,0.76458740234375
1760205513217,1408161206,19135,17,-0.501953125,-0.29547119140625,0.76092529296875
1760205513217,1408161206,19135,18,-0.5,-0.30059814453125,0.76605224609375
1760205513217,1408161206,19135,19,-0.49169921875,-0.29718017578125,0.76776123046875
1760205513217,1408161206,19135,20,-0.48779296875,-0.29815673828125,0.77044677734375
1760205513217,1408161206,19135,21,-0.484375,-0.30010986328125,0.77264404296875
1760205513217,1408161206,19135,22,-0.494384765625,-0.29815673828125,0.76751708984375
1760205513217,1408161206,19135,23,-0.496337890625,-0.29620361328125,0.76678466796875
1760205513217,1408161206,19135,24,-0.486328125,-0.29229736328125,0.76239013671875
1760205513217,1408161206,19135,25,-0.4931640625,-0.30474853515625,0.76483154296875
1760205513217,1408161206,19135,26,-0.49853515625,-0.30816650390625,0.76800537109375
1760205513217,1408161206,19135,27,-0.496826171875,-0.30914306640625,0.76580810546875
1760205513217,1408161206,19135,28,-0.501708984375,-0.30694580078125,0.75872802734375
1760205513217,1408161206,19135,29,-0.504638671875,-0.31280517578125,0.75921630859375
1760205513217,1408161206,19135,30,-0.49560546875,-0.30621337890625,0.76361083984375
1760205513217,1408161206,19135,31,-0.497802734375,-0.31134033203125,0.76214599609375
1760205515737,1408163779,19136,0,-0.505126953125,-0.31085205078125,0.75238037109375
1760205515737,1408163779,19136,1,-0.50439453125,-0.30841064453125,0.75946044921875
1760205515737,1408163779,19136,2,-0.49365234375,-0.30743408203125,0.75921630859375
1760205515737,1408163779,19136,3,-0.494873046875,-0.31060791015625,0.76458740234375
1760205515737,1408163779,19136,4,-0.498046875,-0.31231689453125,0.76092529296875
1760205515737,1408163779,19136,5,-0.499755859375,-0.31304931640625,0.76190185546875
1760205515737,1408163779,19136,6,-0.50390625,-0.31329345703125,0.75848388671875
1760205515737,1408163779,19136,7,-0.500732421875,-0.31109619140625,0.75799560546875
1760205515737,1408163779,19136,8,-0.503173828125,-0.31256103515625,0.75872802734375
1760205515737,1408163779,19136,9,-0.51171875,-0.30670166015625,0.76141357421875
1760205515737,1408163779,19136,10,-0.505615234375,-0.29351806640625,0.75677490234375
1760205515737,1408163779,19136,11,-0.51416015625,-0.29302978515625,0.75750732421875
1760205515737,1408163779,19136,12,-0.5107421875,-0.29693603515625,0.76019287109375
1760205515737,1408163779,19136,13,-0.51318359375,-0.28863525390625,0.75921630859375
1760205515737,1408163779,19136,14,-0.519775390625,-0.29180908203125,0.76141357421875
1760205515737,1408163779,19136,15,-0.515869140625,-0.28399658203125,0.76043701171875
1760205515737,1408163779,19136,16,-0.5205078125,-0.28009033203125,0.75726318359375
1760205515737,1408163779,19136,17,-0.519287109375,-0.27667236328125,0.76068115234375
1760205515737,1408163779,19136,18,-0.5234375,-0.27764892578125,0.75823974609375
1760205515737,1408163779,19136,19,-0.521484375,-0.26763916015625,0.75848388671875
1760205515737,1408163779,19136,20,-0.520751953125,-0.28033447265625,0.76043701171875
1760205515737,1408163779,19136,21,-0.514404296875,-0.27716064453125,0.76214599609375
1760205515737,1408163779,19136,22,-0.521728515625,-0.27862548828125,0.76458740234375
1760205515737,1408163779,19136,23,-0.518798828125,-0.27691650390625,0.76458740234375
1760205515737,1408163779,19136,24,-0.521484375,-0.27691650390625,0.76507568359375
1760205515737,1408163779,19136,25,-0.513916015625,-0.26129150390625,0.76287841796875
1760205515737,1408163779,19136,26,-0.52490234375,-0.26739501953125,0.76263427734375
1760205515737,1408163779,19136,27,-0.52685546875,-0.26031494140625,0.75775146484375
1760205515737,1408163779,19136,28,-0.525634765625,-0.26519775390625,0.76434326171875
1760205515737,1408163779,19136,29,-0.524658203125,-0.26373291015625,0.75848388671875
1760205515737,1408163779,19136,30,-0.525634765625,-0.26300048828125,0.75897216796875
1760205515737,1408163779,19136,31,-0.521240234375,-0.26007080078125,0.76214599609375
1760205518258,1408166352,19137,0,-0.521728515625,-0.27056884765625,0.76190185546875
1760205518258,1408166352,19137,1,-0.520751953125,-0.26885986328125,0.76580810546875
1760205518258,1408166352,19137,2,-0.51513671875,-0.27569580078125,0.76947021484375
1760205518258,1408166352,19137,3,-0.5205078125,-0.27349853515625,0.76776123046875
1760205518258,1408166352,19137,4,-0.512939453125,-0.26104736328125,0.77044677734375
1760205518258,1408166352,19137,5,-0.52978515625,-0.25958251953125,0.75604248046875
1760205518258,1408166352,19137,6,-0.5322265625,-0.25982666015625,0.75482177734375
1760205518258,1408166352,19137,7,-0.518798828125,-0.25396728515625,0.76922607421875
1760205518258,1408166352,19137,8,-0.5107421875,-0.25811767578125,0.76824951171875
1760205518258,1408166352,19137,9,-0.505126953125,-0.26446533203125,0.76702880859375
1760205518258,1408166352,19137,10,-0.518310546875,-0.26495361328125,0.77410888671875
1760205518258,1408166352,19137,11,-0.488525390625,-0.26007080078125,0.77362060546875
1760205518258,1408166352,19137,12,-0.551025390625,-0.26275634765625,0.75750732421875
1760205518258,1408166352,19137,13,-0.5224609375,-0.26470947265625,0.76678466796875
1760205518258,1408166352,19137,14,-0.4775390625,-0.25518798828125,0.77923583984375
1760205518258,1408166352,19137,15,-0.529296875,-0.27203369140625,0.76776123046875
1760205518258,1408166352,19137,16,-0.533203125,-0.26324462890625,0.76116943359375
1760205518258,1408166352,19137,17,-0.528564453125,-0.27496337890625,0.76165771484375
1760205518258,1408166352,19137,18,-0.51904296875,-0.26324462890625,0.77093505859375
1760205518258,1408166352,19137,19,-0.528076171875,-0.27667236328125,0.75360107421875
1760205518258,1408166352,19137,20,-0.5205078125,-0.28765869140625,0.75677490234375
1760205518258,1408166352,19137,21,-0.508056640625,-0.26007080078125,0.76043701171875
1760205518258,1408166352,19137,22,-0.504150390625,-0.24737548828125,0.76434326171875
1760205518258,1408166352,19137,23,-0.52099609375,-0.28375244140625,0.76507568359375
1760205518258,1408166352,19137,24,-0.5087890625,-0.27374267578125,0.76507568359375
1760205518258,1408166352,19137,25,-0.52294921875,-0.27178955078125,0.76141357421875
1760205518258,1408166352,19137,26,-0.5458984375,-0.26812744140625,0.75628662109375
1760205518258,1408166352,19137,27,-0.519287109375,-0.27081298828125,0.76531982421875
1760205518258,1408166352,19137,28,-0.506591796875,-0.26812744140625,0.76605224609375
1760205518258,1408166352,19137,29,-0.51416015625,-0.26715087890625,0.76580810546875
1760205518258,1408166352,19137,30,-0.514404296875,-0.27423095703125,0.76434326171875
1760205518258,1408166352,19137,31,-0.52294921875,-0.26812744140625,0.75775146484375
1760205520958,1408168925,19138,0,-0.52734375,-0.27154541015625,0.76214599609375
1760205520958,1408168925,19138,1,-0.521240234375,-0.27178955078125,0.75994873046875
1760205520958,1408168925,19138,2,-0.52001953125,-0.26666259765625,0.76092529296875
1760205520958,1408168925,19138,3,-0.5224609375,-0.27691650390625,0.76629638671875
1760205520958,1408168925,19138,4,-0.51806640625,-0.27032470703125,0.75946044921875
1760205520958,1408168925,19138,5,-0.51416015625,-0.27301025390625,0.76263427734375
1760205520958,1408168925,19138,6,-0.517822265625,-0.27154541015625,0.76556396484375
1760205520958,1408168925,19138,7,-0.521728515625,-0.27032470703125,0.76116943359375
1760205520958,1408168925,19138,8,-0.520263671875,-0.27056884765625,0.76165771484375
1760205520958,1408168925,19138,9,-0.51416015625,-0.26593017578125,0.76580810546875
1760205520958,1408168925,19138,10,-0.521240234375,-0.26885986328125,0.76507568359375
1760205520958,1408168925,19138,11,-0.52978515625,-0.25592041015625,0.75872802734375
1760205520958,1408168925,19138,12,-0.530029296875,-0.25982666015625,0.76043701171875
1760205520958,1408168925,19138,13,-0.5244140625,-0.25738525390625,0.76556396484375
1760205520958,1408168925,19138,14,-0.5263671875,-0.25860595703125,0.76312255859375
1760205520958,1408168925,19138,15,-0.528076171875,-0.26007080078125,0.76580810546875
1760205520958,1408168925,19138,16,-0.52197265625,-0.26788330078125,0.76947021484375
1760205520958,1408168925,19138,17,-0.514892578125,-0.27593994140625,0.77069091796875
1760205520958,1408168925,19138,18,-0.503173828125,-0.27618408203125,0.76507568359375
1760205520958,1408168925,19138,19,-0.50244140625,-0.27960205078125,0.76605224609375
1760205520958,1408168925,19138,20,-0.50146484375,-0.28057861328125,0.77020263671875
1760205520958,1408168925,19138,21,-0.496337890625,-0.27569580078125,0.77191162109375
1760205520958,1408168925,19138,22,-0.5009765625,-0.27349853515625,0.76849365234375
1760205520958,1408168925,19138,23,-0.49951171875,-0.27252197265625,0.76287841796875
1760205520958,1408168925,19138,24,-0.50146484375,-0.27325439453125,0.76849365234375
1760205520958,1408168925,19138,25,-0.51318359375,-0.28057861328125,0.77215576171875
1760205520958,1408168925,19138,26,-0.534423828125,-0.26324462890625,0.74725341796875
1760205520958,1408168925,19138,27,-0.52978515625,-0.26397705078125,0.75799560546875
1760205520958,1408168925,19138,28,-0.52099609375,-0.26617431640625,0.76605224609375
1760205520958,1408168925,19138,29,-0.530029296875,-0.25201416015625,0.76190185546875
1760205520958,1408168925,19138,30,-0.53564453125,-0.26031494140625,0.76312255859375
1760205520958,1408168925,19138,31,-0.5380859375,-0.25323486328125,0.75872802734375
1760205523478,1408171498,19139,0,-0.5400390625,-0.23736572265625,0.75335693359375
1760205523478,1408171498,19139,1,-0.543701171875,-0.25030517578125,0.75970458984375
1760205523478,1408171498,19139,2,-0.54052734375,-0.24346923828125,0.76068115234375
1760205523478,1408171498,19139,3,-0.541259765625,-0.24566650390625,0.75726318359375
1760205523478,1408171498,19139,4,-0.5419921875,-0.25103759765625,0.75628662109375
1760205523478,1408171498,19139,5,-0.540771484375,-0.25103759765625,0.76043701171875
1760205523478,1408171498,19139,6,-0.53564453125,-0.24688720703125,0.76165771484375
1760205523478,1408171498,19139,7,-0.53466796875,-0.25347900390625,0.76409912109375
1760205523478,1408171498,19139,8,-0.52783203125,-0.25323486328125,0.76995849609375
1760205523478,1408171498,19139,9,-0.530029296875,-0.25225830078125,0.76043701171875
1760205523478,1408171498,19139,10,-0.533447265625,-0.25177001953125,0.75750732421875
1760205523478,1408171498,19139,11,-0.536865234375,-0.25714111328125,0.76190185546875
1760205523478,1408171498,19139,12,-0.5283203125,-0.25714111328125,0.76068115234375
1760205523478,1408171498,19139,13,-0.52978515625,-0.25445556640625,0.76190185546875
1760205523478,1408171498,19139,14,-0.519775390625,-0.25079345703125,0.75994873046875
1760205523478,1408171498,19139,15,-0.5283203125,-0.26397705078125,0.76531982421875
1760205523478,1408171498,19139,16,-0.52978515625,-0.25836181640625,0.75701904296875
1760205523478,1408171498,19139,17,-0.5283203125,-0.26226806640625,0.76483154296875
1760205523478,1408171498,19139,18,-0.52294921875,-0.26226806640625,0.76190185546875
1760205523478,1408171498,19139,19,-0.521484375,-0.26275634765625,0.76263427734375
1760205523478,1408171498,19139,20,-0.52197265625,-0.26593017578125,0.76019287109375
1760205523478,1408171498,19139,21,-0.520751953125,-0.26544189453125,0.75970458984375
1760205523478,1408171498,19139,22,-0.5283203125,-0.26959228515625,0.76776123046875
1760205523478,1408171498,19139,23,-0.521484375,-0.26300048828125,0.75750732421875
1760205523478,1408171498,19139,24,-0.513427734375,-0.25177001953125,0.77020263671875
1760205523478,1408171498,19139,25,-0.51611328125,-0.26397705078125,0.76531982421875
1760205523478,1408171498,19139,26,-0.521728515625,-0.26007080078125,0.76019287109375
1760205523478,1408171498,19139,27,-0.5244140625,-0.26422119140625,0.76336669921875
1760205523478,1408171498,19139,28,-0.521240234375,-0.26153564453125,0.76263427734375
1760205523478,1408171498,19139,29,-0.525146484375,-0.26959228515625,0.77166748046875
1760205523478,1408171498,19139,30,-0.513916015625,-0.26177978515625,0.76947021484375
1760205523478,1408171498,19139,31,-0.512451171875,-0.26739501953125,0.76947021484375
1760205525998,1408174071,19140,0,-0.513916015625,-0.26934814453125,0.76654052734375
1760205525998,1408174071,19140,1,-0.50927734375,-0.26983642578125,0.77166748046875
1760205525998,1408174071,19140,2,-0.52490234375,-0.27056884765625,0.76971435546875
1760205525998,1408174071,19140,3,-0.517822265625,-0.27154541015625,0.76605224609375
1760205525998,1408174071,19140,4,-0.501220703125,-0.27447509765625,0.77093505859375
1760205525998,1408174071,19140,5,-0.5,-0.27056884765625,0.76751708984375
1760205525998,1408174071,19140,6,-0.505859375,-0.26202392578125,0.76361083984375
1760205525998,1408174071,19140,7,-0.509033203125,-0.26202392578125,0.76116943359375
1760205525998,1408174071,19140,8,-0.516357421875,-0.27569580078125,0.76092529296875
1760205525998,1408174071,19140,9,-0.52099609375,-0.27130126953125,0.76263427734375
1760205525998,1408174071,19140,10,-0.51904296875,-0.27471923828125,0.76483154296875
1760205525998,1408174071,19140,11,-0.513916015625,-0.27789306640625,0.76263427734375
1760205525998,1408174071,19140,12,-0.5087890625,-0.27349853515625,0.76409912109375
1760205525998,1408174071,19140,13,-0.517333984375,-0.27838134765625,0.76361083984375
1760205525998,1408174071,19140,14,-0.5205078125,-0.27593994140625,0.76165771484375
1760205525998,1408174071,19140,15,-0.515380859375,-0.27471923828125,0.76263427734375
1760205525998,1408174071,19140,16,-0.518310546875,-0.27593994140625,0.76678466796875
1760205525998,1408174071,19140,17,-0.515380859375,-0.27545166015625,0.76336669921875
1760205525998,1408174071,19140,18,-0.515625,-0.27374267578125,0.76141357421875
1760205525998,1408174071,19140,19,-0.513916015625,-0.27349853515625,0.76458740234375
1760205525998,1408174071,19140,20,-0.516357421875,-0.27301025390625,0.76116943359375
1760205525998,1408174071,19140,21,-0.5166015625,-0.26519775390625,0.76287841796875
1760205525998,1408174071,19140,22,-0.517578125,-0.27374267578125,0.76507568359375
1760205525998,1408174071,19140,23,-0.527587890625,-0.26080322265625,0.74993896484375
1760205525998,1408174071,19140,24,-0.53173828125,-0.26715087890625,0.75677490234375
1760205525998,1408174071,19140,25,-0.529296875,-0.25811767578125,0.75799560546875
1760205525998,1408174071,19140,26,-0.53125,-0.26470947265625,0.75872802734375
1760205525998,1408174071,19140,27,-0.528564453125,-0.26422119140625,0.76165771484375
1760205525998,1408174071,19140,28,-0.529296875,-0.26251220703125,0.75897216796875
1760205525998,1408174071,19140,29,-0.531494140625,-0.26495361328125,0.75970458984375
1760205525998,1408174071,19140,30,-0.523193359375,-0.26446533203125,0.76361083984375
1760205525998,1408174071,19140,31,-0.526611328125,-0.26739501953125,0.76751708984375
1760205528699,1408176645,19141,0,-0.52587890625,-0.26104736328125,0.76409912109375
1760205528699,1408176645,19141,1,-0.5263671875,-0.25885009765625,0.75970458984375
1760205528699,1408176645,19141,2,-0.522216796875,-0.25982666015625,0.75897216796875
1760205528699,1408176645,19141,3,-0.531005859375,-0.26544189453125,0.76458740234375
1760205528699,1408176645,19141,4,-0.523193359375,-0.26153564453125,0.76263427734375
1760205528699,1408176645,19141,5,-0.524658203125,-0.26446533203125,0.76263427734375
1760205528699,1408176645,19141,6,-0.52392578125,-0.26666259765625,0.76287841796875
1760205528699,1408176645,19141,7,-0.521484375,-0.26300048828125,0.75994873046875
1760205528699,1408176645,19141,8,-0.521240234375,-0.26202392578125,0.76092529296875
1760205528699,1408176645,19141,9,-0.5224609375,-0.26470947265625,0.76092529296875
1760205528699,1408176645,19141,10,-0.52490234375,-0.26348876953125,0.76336669921875
1760205528699,1408176645,19141,11,-0.521728515625,-0.26519775390625,0.76312255859375
1760205528699,1408176645,19141,12,-0.521240234375,-0.26300048828125,0.76092529296875
1760205528699,1408176645,19141,13,-0.52099609375,-0.26739501953125,0.76971435546875
1760205528699,1408176645,19141,14,-0.51806640625,-0.26251220703125,0.76361083984375
1760205528699,1408176645,19141,15,-0.52197265625,-0.27056884765625,0.76239013671875
1760205528699,1408176645,19141,16,-0.52685546875,-0.27301025390625,0.76947021484375
1760205528699,1408176645,19141,17,-0.51611328125,-0.26080322265625,0.76971435546875
1760205528699,1408176645,19141,18,-0.51318359375,-0.27105712890625,0.76336669921875
1760205528699,1408176645,19141,19,-0.510986328125,-0.26324462890625,0.76434326171875
1760205528699,1408176645,19141,20,-0.50830078125,-0.26275634765625,0.76507568359375
1760205528699,1408176645,19141,21,-0.505126953125,-0.26129150390625,0.75726318359375
1760205528699,1408176645,19141,22,-0.51513671875,-0.26934814453125,0.76678466796875
1760205528699,1408176645,19141,23,-0.51806640625,-0.26885986328125,0.75579833984375
1760205528699,1408176645,19141,24,-0.523193359375,-0.27081298828125,0.76702880859375
1760205528699,1408176645,19141,25,-0.517333984375,-0.27545166015625,0.76507568359375
1760205528699,1408176645,19141,26,-0.5126953125,-0.27838134765625,0.76507568359375
1760205528699,1408176645,19141,27,-0.513427734375,-0.27447509765625,0.76263427734375
1760205528699,1408176645,19141,28,-0.513671875,-0.27496337890625,0.76361083984375
1760205528699,1408176645,19141,29,-0.51611328125,-0.27447509765625,0.76019287109375
1760205528699,1408176645,19141,30,-0.5087890625,-0.27984619140625,0.76385498046875
1760205528699,1408176645,19141,31,-0.510498046875,-0.27740478515625,0.76629638671875
1760205531217,1408179218,19142,0,-0.50927734375,-0.27911376953125,0.76361083984375
1760205531217,1408179218,19142,1,-0.509033203125,-0.27886962890625,0.77020263671875
1760205531217,1408179218,19142,2,-0.50830078125,-0.28009033203125,0.76043701171875
1760205531217,1408179218,19142,3,-0.510986328125,-0.27716064453125,0.77044677734375
1760205531217,1408179218,19142,4,-0.508544921875,-0.28057861328125,0.76605224609375
1760205531217,1408179218,19142,5,-0.506103515625,-0.28179931640625,0.76995849609375
1760205531217,1408179218,19142,6,-0.50537109375,-0.27960205078125,0.76434326171875
1760205531217,1408179218,19142,7,-0.5107421875,-0.28033447265625,0.76776123046875
1760205531217,1408179218,19142,8,-0.50732421875,-0.28302001953125,0.76361083984375
1760205531217,1408179218,19142,9,-0.508544921875,-0.28448486328125,0.76751708984375
1760205531217,1408179218,19142,10,-0.505126953125,-0.28155517578125,0.76678466796875
1760205531217,1408179218,19142,11,-0.5068359375,-0.27618408203125,0.76116943359375
1760205531217,1408179218,19142,12,-0.511474609375,-0.28399658203125,0.77069091796875
1760205531217,1408179218,19142,13,-0.504638671875,-0.28179931640625,0.76043701171875
1760205531217,1408179218,19142,14,-0.507568359375,-0.28009033203125,0.76507568359375
1760205531217,1408179218,19142,15,-0.50830078125,-0.28570556640625,0.76800537109375
