receivedPhoneTimestamp,respeckTimestamp,packetSeqNum,sampleSeqNum,accelX,accelY,accelZ
1760380246503,628671163,13962,0,0.854736328125,0.18304443359375,0.34100341796875
1760380246503,628671163,13962,1,0.85791015625,0.18231201171875,0.33514404296875
1760380246503,628671163,13962,2,0.857666015625,0.18304443359375,0.34124755859375
1760380246503,628671163,13962,3,0.85546875,0.18499755859375,0.33563232421875
1760380246503,628671163,13962,4,0.852294921875,0.17987060546875,0.34197998046875
1760380246503,628671163,13962,5,0.859375,0.18621826171875,0.33123779296875
1760380246503,628671163,13962,6,0.86083984375,0.19207763671875,0.33367919921875
1760380246503,628671163,13962,7,0.856201171875,0.19329833984375,0.35223388671875
1760380246503,628671163,13962,8,0.85546875,0.17523193359375,0.34246826171875
1760380246503,628671163,13962,9,0.851806640625,0.17498779296875,0.33929443359375
1760380246503,628671163,13962,10,0.85205078125,0.19769287109375,0.32562255859375
1760380246503,628671163,13962,11,0.854736328125,0.19940185546875,0.34246826171875
1760380246503,628671163,13962,12,0.858154296875,0.18060302734375,0.34173583984375
1760380246503,628671163,13962,13,0.86279296875,0.17181396484375,0.33489990234375
1760380246503,628671163,13962,14,0.851318359375,0.17596435546875,0.35736083984375
1760380246503,628671163,13962,15,0.82958984375,0.18231201171875,0.39031982421875
1760380246503,628671163,13962,16,0.84130859375,0.18182373046875,0.36322021484375
1760380246503,628671163,13962,17,0.8623046875,0.18670654296875,0.39984130859375
1760380246503,628671163,13962,18,0.838134765625,0.16326904296875,0.29315185546875
1760380246503,628671163,13962,19,0.85693359375,0.19183349609375,0.38958740234375
1760380246503,628671163,13962,20,0.842529296875,0.15863037109375,0.37518310546875
1760380246503,628671163,13962,21,0.8310546875,0.19110107421875,0.38494873046875
1760380246503,628671163,13962,22,0.845947265625,0.17010498046875,0.40814208984375
1760380246503,628671163,13962,23,0.8076171875,0.17718505859375,0.39251708984375
1760380246503,628671163,13962,24,0.83984375,0.19036865234375,0.41424560546875
1760380246503,628671163,13962,25,0.820068359375,0.18182373046875,0.39276123046875
1760380246503,628671163,13962,26,0.83642578125,0.18255615234375,0.40667724609375
1760380246503,628671163,13962,27,0.83447265625,0.18939208984375,0.37982177734375
1760380246503,628671163,13962,28,0.81982421875,0.20379638671875,0.41082763671875
1760380246503,628671163,13962,29,0.83203125,0.17205810546875,0.39666748046875
1760380246503,628671163,13962,30,0.819580078125,0.21307373046875,0.39593505859375
1760380246503,628671163,13962,31,0.81005859375,0.18206787109375,0.43792724609375
1760380249105,628673743,13963,0,0.84228515625,0.20989990234375,0.37396240234375
1760380249105,628673743,13963,1,0.80224609375,0.18597412109375,0.42816162109375
1760380249105,628673743,13963,2,0.8623046875,0.19598388671875,0.36273193359375
1760380249105,628673743,13963,3,0.782470703125,0.21746826171875,0.43792724609375
1760380249105,628673743,13963,4,0.838134765625,0.17059326171875,0.37908935546875
1760380249105,628673743,13963,5,0.814453125,0.22186279296875,0.41156005859375
1760380249105,628673743,13963,6,0.823486328125,0.19305419921875,0.40570068359375
1760380249105,628673743,13963,7,0.831298828125,0.19940185546875,0.40545654296875
1760380249105,628673743,13963,8,0.809814453125,0.20501708984375,0.40252685546875
1760380249105,628673743,13963,9,0.81884765625,0.19573974609375,0.42620849609375
1760380249105,628673743,13963,10,0.86181640625,0.20599365234375,0.34759521484375
1760380249105,628673743,13963,11,0.796875,0.20477294921875,0.44598388671875
1760380249105,628673743,13963,12,0.798095703125,0.18524169921875,0.40325927734375
1760380249105,628673743,13963,13,0.852294921875,0.17498779296875,0.32000732421875
1760380249105,628673743,13963,14,0.873291015625,0.15814208984375,0.39935302734375
1760380249105,628673743,13963,15,0.844482421875,0.17572021484375,0.36492919921875
1760380249105,628673743,13963,16,0.799560546875,0.17205810546875,0.45111083984375
1760380249105,628673743,13963,17,0.86181640625,0.18353271484375,0.35809326171875
1760380249105,628673743,13963,18,0.8125,0.16741943359375,0.42352294921875
1760380249105,628673743,13963,19,0.836669921875,0.16619873046875,0.38226318359375
1760380249105,628673743,13963,20,0.80419921875,0.21331787109375,0.43695068359375
1760380249105,628673743,13963,21,0.835205078125,0.16815185546875,0.38128662109375
1760380249105,628673743,13963,22,0.830078125,0.19036865234375,0.40960693359375
1760380249105,628673743,13963,23,0.822998046875,0.18109130859375,0.40081787109375
1760380249105,628673743,13963,24,0.81298828125,0.20013427734375,0.41888427734375
1760380249105,628673743,13963,25,0.851318359375,0.16204833984375,0.36151123046875
1760380249105,628673743,13963,26,0.83056640625,0.21063232421875,0.39373779296875
1760380249105,628673743,13963,27,0.842041015625,0.15887451171875,0.36639404296875
1760380249105,628673743,13963,28,0.84375,0.21087646484375,0.37591552734375
1760380249105,628673743,13963,29,0.822021484375,0.17327880859375,0.39666748046875
1760380249105,628673743,13963,30,0.867919921875,0.19061279296875,0.33416748046875
1760380249105,628673743,13963,31,0.8173828125,0.19085693359375,0.40374755859375
1760380251704,628676322,13964,0,0.870849609375,0.16180419921875,0.32049560546875
1760380251704,628676322,13964,1,0.835693359375,0.19647216796875,0.37860107421875
1760380251704,628676322,13964,2,0.8759765625,0.16400146484375,0.30023193359375
1760380251704,628676322,13964,3,0.83935546875,0.18963623046875,0.37225341796875
1760380251704,628676322,13964,4,0.84130859375,0.16864013671875,0.34124755859375
1760380251704,628676322,13964,5,0.876953125,0.14959716796875,0.32122802734375
1760380251704,628676322,13964,6,0.899658203125,0.16717529296875,0.27142333984375
1760380251704,628676322,13964,7,0.89794921875,0.15716552734375,0.42425537109375
1760380251704,628676322,13964,8,0.811279296875,0.17376708984375,0.27386474609375
1760380251704,628676322,13964,9,0.84033203125,0.18060302734375,0.37078857421875
1760380251704,628676322,13964,10,0.852294921875,0.17132568359375,0.38543701171875
1760380251704,628676322,13964,11,0.833740234375,0.19232177734375,0.38519287109375
1760380251704,628676322,13964,12,0.85595703125,0.17401123046875,0.35369873046875
1760380251704,628676322,13964,13,0.83447265625,0.19818115234375,0.38836669921875
1760380251704,628676322,13964,14,0.84423828125,0.16448974609375,0.36224365234375
1760380251704,628676322,13964,15,0.84716796875,0.19329833984375,0.38275146484375
1760380251704,628676322,13964,16,0.867431640625,0.17938232421875,0.31512451171875
1760380251704,628676322,13964,17,0.827880859375,0.19476318359375,0.38714599609375
1760380251704,628676322,13964,18,0.883544921875,0.16888427734375,0.28924560546875
1760380251704,628676322,13964,19,0.8603515625,0.21160888671875,0.34857177734375
1760380251704,628676322,13964,20,0.836181640625,0.18572998046875,0.31317138671875
1760380251704,628676322,13964,21,0.851318359375,0.16058349609375,0.25262451171875
1760380251704,628676322,13964,22,0.918212890625,0.18133544921875,0.32220458984375
1760380251704,628676322,13964,23,0.887939453125,0.16033935546875,0.26458740234375
1760380251704,628676322,13964,24,0.9072265625,0.15203857421875,0.39447021484375
1760380251704,628676322,13964,25,0.830078125,0.16717529296875,0.16204833984375
1760380251704,628676322,13964,26,0.90625,0.16693115234375,0.32586669921875
1760380251704,628676322,13964,27,0.85205078125,0.15301513671875,0.29998779296875
1760380251704,628676322,13964,28,0.8916015625,0.16180419921875,0.32049560546875
1760380251704,628676322,13964,29,0.87548828125,0.17059326171875,0.26873779296875
1760380251704,628676322,13964,30,0.87255859375,0.15667724609375,0.32879638671875
1760380251704,628676322,13964,31,0.886474609375,0.17889404296875,0.25897216796875
1760380254301,628678901,13965,0,0.8623046875,0.15716552734375,0.32147216796875
1760380254301,628678901,13965,1,0.881591796875,0.17913818359375,0.29949951171875
1760380254301,628678901,13965,2,0.87744140625,0.15936279296875,0.31732177734375
1760380254301,628678901,13965,3,0.9013671875,0.16033935546875,0.24383544921875
1760380254301,628678901,13965,4,0.848388671875,0.17889404296875,0.33026123046875
1760380254301,628678901,13965,5,0.904296875,0.12615966796875,0.25823974609375
1760380254301,628678901,13965,6,0.860595703125,0.18426513671875,0.34149169921875
1760380254301,628678901,13965,7,0.8955078125,0.12127685546875,0.24945068359375
1760380254301,628678901,13965,8,0.8818359375,0.19451904296875,0.30535888671875
1760380254301,628678901,13965,9,0.865966796875,0.12200927734375,0.29168701171875
1760380254301,628678901,13965,10,0.912353515625,0.18621826171875,0.24554443359375
1760380254301,628678901,13965,11,0.850341796875,0.14764404296875,0.32684326171875
1760380254301,628678901,13965,12,0.923583984375,0.14837646484375,0.22161865234375
1760380254301,628678901,13965,13,0.85107421875,0.17620849609375,0.32098388671875
1760380254301,628678901,13965,14,0.928955078125,0.12445068359375,0.20501708984375
1760380254301,628678901,13965,15,0.856689453125,0.19549560546875,0.33782958984375
1760380254301,628678901,13965,16,0.9013671875,0.10955810546875,0.22235107421875
1760380254301,628678901,13965,17,0.88232421875,0.20623779296875,0.31170654296875
1760380254301,628678901,13965,18,0.86962890625,0.12322998046875,0.27508544921875
1760380254301,628678901,13965,19,0.92919921875,0.16497802734375,0.22039794921875
1760380254301,628678901,13965,20,0.856201171875,0.17083740234375,0.34710693359375
1760380254301,628678901,13965,21,0.8828125,0.13934326171875,0.23895263671875
1760380254301,628678901,13965,22,0.91552734375,0.14349365234375,0.22943115234375
1760380254301,628678901,13965,23,0.923583984375,0.15667724609375,0.19696044921875
1760380254301,628678901,13965,24,0.887451171875,0.14349365234375,0.29901123046875
1760380254301,628678901,13965,25,0.900390625,0.13787841796875,0.27069091796875
1760380254301,628678901,13965,26,0.896728515625,0.17474365234375,0.19403076171875
1760380254301,628678901,13965,27,0.8662109375,0.17449951171875,0.31610107421875
1760380254301,628678901,13965,28,0.900390625,0.12396240234375,0.25579833984375
1760380254301,628678901,13965,29,0.87158203125,0.18988037109375,0.27777099609375
1760380254301,628678901,13965,30,0.884765625,0.14178466796875,0.29925537109375
1760380254301,628678901,13965,31,0.904052734375,0.17962646484375,0.22454833984375
1760380256701,628681480,13966,0,0.86962890625,0.15887451171875,0.31341552734375
1760380256701,628681480,13966,1,0.905517578125,0.17083740234375,0.22430419921875
1760380256701,628681480,13966,2,0.86474609375,0.18157958984375,0.31976318359375
1760380256701,628681480,13966,3,0.928955078125,0.11639404296875,0.18157958984375
1760380256701,628681480,13966,4,0.87158203125,0.21551513671875,0.29583740234375
1760380256701,628681480,13966,5,0.88525390625,0.11859130859375,0.25701904296875
1760380256701,628681480,13966,6,0.909912109375,0.19769287109375,0.23138427734375
1760380256701,628681480,13966,7,0.865966796875,0.15838623046875,0.28948974609375
1760380256701,628681480,13966,8,0.950439453125,0.14642333984375,0.17205810546875
1760380256701,628681480,13966,9,0.848876953125,0.19232177734375,0.33782958984375
1760380256701,628681480,13966,10,0.936279296875,0.10736083984375,0.14959716796875
1760380256701,628681480,13966,11,0.8720703125,0.21649169921875,0.30438232421875
1760380256701,628681480,13966,12,0.884765625,0.11566162109375,0.21722412109375
1760380256701,628681480,13966,13,0.913818359375,0.19500732421875,0.25531005859375
1760380256701,628681480,13966,14,0.868408203125,0.13836669921875,0.25067138671875
1760380256701,628681480,13966,15,0.93701171875,0.17156982421875,0.20941162109375
1760380256701,628681480,13966,16,0.85546875,0.15911865234375,0.28607177734375
1760380256701,628681480,13966,17,0.94580078125,0.14788818359375,0.19232177734375
1760380256701,628681480,13966,18,0.87109375,0.17987060546875,0.28558349609375
1760380256701,628681480,13966,19,0.925048828125,0.12860107421875,0.16912841796875
1760380256701,628681480,13966,20,0.871337890625,0.19012451171875,0.33636474609375
1760380256701,628681480,13966,21,0.85498046875,0.14300537109375,0.24066162109375
1760380256701,628681480,13966,22,0.9384765625,0.16082763671875,0.21258544921875
1760380256701,628681480,13966,23,0.90576171875,0.12493896484375,0.23846435546875
1760380256701,628681480,13966,24,0.877685546875,0.15423583984375,0.29656982421875
1760380256701,628681480,13966,25,0.8896484375,0.15032958984375,0.29852294921875
1760380256701,628681480,13966,26,0.891357421875,0.15008544921875,0.23919677734375
1760380256701,628681480,13966,27,0.888427734375,0.11907958984375,0.31439208984375
1760380256701,628681480,13966,28,0.919189453125,0.16082763671875,0.26214599609375
1760380256701,628681480,13966,29,0.833251953125,0.18939208984375,0.26068115234375
1760380256701,628681480,13966,30,0.90087890625,0.12322998046875,0.30633544921875
1760380256701,628681480,13966,31,0.90283203125,0.15667724609375,0.22821044921875
1760380259300,628684059,13967,0,0.89453125,0.17987060546875,0.25604248046875
1760380259300,628684059,13967,1,0.88671875,0.16278076171875,0.26409912109375
1760380259300,628684059,13967,2,0.884033203125,0.16473388671875,0.28826904296875
1760380259300,628684059,13967,3,0.907470703125,0.15081787109375,0.21307373046875
1760380259300,628684059,13967,4,0.883056640625,0.18841552734375,0.28411865234375
1760380259300,628684059,13967,5,0.88427734375,0.15252685546875,0.25164794921875
1760380259300,628684059,13967,6,0.9296875,0.16473388671875,0.18255615234375
1760380259300,628684059,13967,7,0.86572265625,0.17694091796875,0.30096435546875
1760380259300,628684059,13967,8,0.931396484375,0.13348388671875,0.16619873046875
1760380259300,628684059,13967,9,0.875,0.20428466796875,0.25726318359375
1760380259300,628684059,13967,10,0.8935546875,0.14007568359375,0.25482177734375
1760380259300,628684059,13967,11,0.918212890625,0.17376708984375,0.19012451171875
1760380259300,628684059,13967,12,0.86474609375,0.17474365234375,0.28460693359375
1760380259300,628684059,13967,13,0.94580078125,0.13299560546875,0.14886474609375
1760380259300,628684059,13967,14,0.867919921875,0.19891357421875,0.28826904296875
1760380259300,628684059,13967,15,0.912353515625,0.12982177734375,0.19134521484375
1760380259300,628684059,13967,16,0.896728515625,0.20257568359375,0.24505615234375
1760380259300,628684059,13967,17,0.879638671875,0.14227294921875,0.24798583984375
1760380259300,628684059,13967,18,0.914306640625,0.17791748046875,0.20697021484375
1760380259300,628684059,13967,19,0.87744140625,0.16522216796875,0.26580810546875
1760380259300,628684059,13967,20,0.940185546875,0.14837646484375,0.16717529296875
1760380259300,628684059,13967,21,0.873291015625,0.17962646484375,0.27850341796875
1760380259300,628684059,13967,22,0.924560546875,0.15155029296875,0.17303466796875
1760380259300,628684059,13967,23,0.877685546875,0.19158935546875,0.27557373046875
1760380259300,628684059,13967,24,0.913330078125,0.13616943359375,0.17962646484375
1760380259300,628684059,13967,25,0.887451171875,0.18304443359375,0.28558349609375
1760380259300,628684059,13967,26,0.875732421875,0.15863037109375,0.24237060546875
1760380259300,628684059,13967,27,0.916259765625,0.16107177734375,0.22601318359375
1760380259300,628684059,13967,28,0.8994140625,0.14837646484375,0.20159912109375
1760380259300,628684059,13967,29,0.911865234375,0.13323974609375,0.29998779296875
1760380259300,628684059,13967,30,0.89697265625,0.16790771484375,0.19183349609375
1760380259300,628684059,13967,31,0.872314453125,0.16644287109375,0.32073974609375
1760380261901,628686638,13968,0,0.896484375,0.15350341796875,0.22918701171875
1760380261901,628686638,13968,1,0.896240234375,0.15740966796875,0.25701904296875
1760380261901,628686638,13968,2,0.90673828125,0.16522216796875,0.20404052734375
1760380261901,628686638,13968,3,0.891845703125,0.17156982421875,0.27532958984375
1760380261901,628686638,13968,4,0.916015625,0.15667724609375,0.18084716796875
1760380261901,628686638,13968,5,0.882568359375,0.18231201171875,0.27630615234375
1760380261901,628686638,13968,6,0.901611328125,0.15081787109375,0.20697021484375
1760380261901,628686638,13968,7,0.899169921875,0.17401123046875,0.21453857421875
1760380261901,628686638,13968,8,0.888427734375,0.16595458984375,0.26068115234375
1760380261901,628686638,13968,9,0.9326171875,0.15814208984375,0.16351318359375
1760380261901,628686638,13968,10,0.875,0.18084716796875,0.26751708984375
1760380261901,628686638,13968,11,0.921630859375,0.14447021484375,0.18548583984375
1760380261901,628686638,13968,12,0.883056640625,0.19354248046875,0.23431396484375
1760380261901,628686638,13968,13,0.896240234375,0.15399169921875,0.24822998046875
1760380261901,628686638,13968,14,0.915771484375,0.16717529296875,0.18597412109375
1760380261901,628686638,13968,15,0.87890625,0.17352294921875,0.26312255859375
1760380261901,628686638,13968,16,0.943359375,0.14495849609375,0.15423583984375
1760380261901,628686638,13968,17,0.865966796875,0.19232177734375,0.27850341796875
1760380261901,628686638,13968,18,0.919921875,0.14300537109375,0.18719482421875
1760380261901,628686638,13968,19,0.8896484375,0.18402099609375,0.23455810546875
1760380261901,628686638,13968,20,0.896240234375,0.16253662109375,0.23089599609375
1760380261901,628686638,13968,21,0.91015625,0.16204833984375,0.24212646484375
1760380261901,628686638,13968,22,0.875732421875,0.16790771484375,0.24432373046875
1760380261901,628686638,13968,23,0.911865234375,0.16815185546875,0.21551513671875
1760380261901,628686638,13968,24,0.91357421875,0.13616943359375,0.22479248046875
1760380261901,628686638,13968,25,0.905517578125,0.15252685546875,0.21405029296875
1760380261901,628686638,13968,26,0.884033203125,0.18060302734375,0.26751708984375
1760380261901,628686638,13968,27,0.90625,0.15985107421875,0.24163818359375
1760380261901,628686638,13968,28,0.88232421875,0.15252685546875,0.24505615234375
1760380261901,628686638,13968,29,0.906494140625,0.17010498046875,0.22430419921875
1760380261901,628686638,13968,30,0.888427734375,0.16571044921875,0.26556396484375
1760380261901,628686638,13968,31,0.90576171875,0.15765380859375,0.20672607421875
1760380264502,628689217,13969,0,0.885498046875,0.16839599609375,0.26043701171875
1760380264502,628689217,13969,1,0.902587890625,0.16058349609375,0.21258544921875
1760380264502,628689217,13969,2,0.890869140625,0.18084716796875,0.24530029296875
1760380264502,628689217,13969,3,0.89404296875,0.14886474609375,0.24798583984375
1760380264502,628689217,13969,4,0.91162109375,0.17645263671875,0.18963623046875
1760380264502,628689217,13969,5,0.87548828125,0.16766357421875,0.26824951171875
1760380264502,628689217,13969,6,0.9443359375,0.15887451171875,0.16009521484375
1760380264502,628689217,13969,7,0.87109375,0.18792724609375,0.27947998046875
1760380264502,628689217,13969,8,0.92529296875,0.13885498046875,0.16131591796875
1760380264502,628689217,13969,9,0.8798828125,0.20111083984375,0.25799560546875
1760380264502,628689217,13969,10,0.897705078125,0.13616943359375,0.24139404296875
1760380264502,628689217,13969,11,0.9140625,0.18377685546875,0.18572998046875
1760380264502,628689217,13969,12,0.86474609375,0.16741943359375,0.28411865234375
1760380264502,628689217,13969,13,0.955322265625,0.14324951171875,0.13861083984375
1760380264502,628689217,13969,14,0.86083984375,0.19451904296875,0.26898193359375
1760380264502,628689217,13969,15,0.92724609375,0.13177490234375,0.18280029296875
1760380264502,628689217,13969,16,0.895263671875,0.19720458984375,0.24432373046875
1760380264502,628689217,13969,17,0.883056640625,0.16400146484375,0.27459716796875
1760380264502,628689217,13969,18,0.878173828125,0.15570068359375,0.21282958984375
1760380264502,628689217,13969,19,0.9384765625,0.13958740234375,0.19378662109375
1760380264502,628689217,13969,20,0.90869140625,0.15032958984375,0.24383544921875
1760380264502,628689217,13969,21,0.900146484375,0.15106201171875,0.22161865234375
1760380264502,628689217,13969,22,0.884033203125,0.16815185546875,0.25433349609375
1760380264502,628689217,13969,23,0.8984375,0.16864013671875,0.25213623046875
1760380264502,628689217,13969,24,0.8994140625,0.15032958984375,0.23260498046875
1760380264502,628689217,13969,25,0.89892578125,0.17449951171875,0.22235107421875
1760380264502,628689217,13969,26,0.89306640625,0.16693115234375,0.25335693359375
1760380264502,628689217,13969,27,0.910888671875,0.15692138671875,0.18597412109375
1760380264502,628689217,13969,28,0.896728515625,0.18011474609375,0.23431396484375
1760380264502,628689217,13969,29,0.905029296875,0.15765380859375,0.20233154296875
1760380264502,628689217,13969,30,0.906005859375,0.17913818359375,0.19842529296875
1760380264502,628689217,13969,31,0.889892578125,0.17401123046875,0.22772216796875
1760380267101,628691796,13970,0,0.942138671875,0.15521240234375,0.14569091796875
1760380267101,628691796,13970,1,0.880615234375,0.18939208984375,0.23846435546875
1760380267101,628691796,13970,2,0.912841796875,0.14862060546875,0.20697021484375
1760380267101,628691796,13970,3,0.909912109375,0.18377685546875,0.17034912109375
1760380267101,628691796,13970,4,0.892822265625,0.17864990234375,0.23773193359375
1760380267101,628691796,13970,5,0.925537109375,0.15765380859375,0.18304443359375
1760380267101,628691796,13970,6,0.883056640625,0.19964599609375,0.23040771484375
1760380267101,628691796,13970,7,0.93603515625,0.13421630859375,0.16107177734375
1760380267101,628691796,13970,8,0.88525390625,0.21917724609375,0.23992919921875
1760380267101,628691796,13970,9,0.876708984375,0.14373779296875,0.26507568359375
1760380267101,628691796,13970,10,0.92724609375,0.18548583984375,0.18084716796875
1760380267101,628691796,13970,11,0.8798828125,0.17572021484375,0.25799560546875
1760380267101,628691796,13970,12,0.9169921875,0.14984130859375,0.18206787109375
1760380267101,628691796,13970,13,0.923095703125,0.16839599609375,0.21697998046875
1760380267101,628691796,13970,14,0.926513671875,0.14495849609375,0.17327880859375
1760380267101,628691796,13970,15,0.890380859375,0.14813232421875,0.23602294921875
1760380267101,628691796,13970,16,0.876220703125,0.16546630859375,0.21697998046875
1760380267101,628691796,13970,17,0.909423828125,0.18377685546875,0.23944091796875
1760380267101,628691796,13970,18,0.881103515625,0.17132568359375,0.24041748046875
1760380267101,628691796,13970,19,0.916748046875,0.13641357421875,0.23431396484375
1760380267101,628691796,13970,20,0.90478515625,0.16229248046875,0.19622802734375
1760380267101,628691796,13970,21,0.91015625,0.15960693359375,0.24554443359375
1760380267101,628691796,13970,22,0.896240234375,0.16571044921875,0.17742919921875
1760380267101,628691796,13970,23,0.896484375,0.17572021484375,0.25946044921875
1760380267101,628691796,13970,24,0.919921875,0.15155029296875,0.19158935546875
1760380267101,628691796,13970,25,0.906005859375,0.17059326171875,0.16107177734375
1760380267101,628691796,13970,26,0.892333984375,0.17889404296875,0.26580810546875
1760380267101,628691796,13970,27,0.935791015625,0.13616943359375,0.15374755859375
1760380267101,628691796,13970,28,0.87451171875,0.19866943359375,0.24090576171875
1760380267101,628691796,13970,29,0.913818359375,0.13446044921875,0.22650146484375
1760380267101,628691796,13970,30,0.911865234375,0.17791748046875,0.14642333984375
1760380267101,628691796,13970,31,0.8701171875,0.17425537109375,0.27850341796875
1760380269701,628694376,13971,0,0.947265625,0.12982177734375,0.18450927734375
1760380269701,628694376,13971,1,0.9033203125,0.18988037109375,0.14739990234375
1760380269701,628694376,13971,2,0.85986328125,0.16448974609375,0.31048583984375
1760380269701,628694376,13971,3,0.96142578125,0.12615966796875,0.14178466796875
1760380269701,628694376,13971,4,0.8955078125,0.21844482421875,0.18865966796875
1760380269701,628694376,13971,5,0.8740234375,0.14691162109375,0.26361083984375
1760380269701,628694376,13971,6,0.9697265625,0.12493896484375,0.12982177734375
1760380269701,628694376,13971,7,0.861083984375,0.21990966796875,0.21966552734375
1760380269701,628694376,13971,8,0.88623046875,0.14544677734375,0.27239990234375
1760380269701,628694376,13971,9,0.975341796875,0.12274169921875,0.10174560546875
1760380269701,628694376,13971,10,0.87158203125,0.21624755859375,0.23553466796875
1760380269701,628694376,13971,11,0.884033203125,0.13201904296875,0.23968505859375
1760380269701,628694376,13971,12,0.8984375,0.16668701171875,0.21624755859375
1760380269701,628694376,13971,13,0.955078125,0.16986083984375,0.11541748046875
1760380269701,628694376,13971,14,0.946044921875,0.14031982421875,0.19525146484375
1760380269701,628694376,13971,15,0.886962890625,0.15228271484375,0.11614990234375
1760380269701,628694376,13971,16,0.9150390625,0.18304443359375,0.24652099609375
1760380269701,628694376,13971,17,0.892578125,0.13323974609375,0.19036865234375
1760380269701,628694376,13971,18,0.9140625,0.16839599609375,0.22991943359375
1760380269701,628694376,13971,19,0.911865234375,0.15374755859375,0.16180419921875
1760380269701,628694376,13971,20,0.909912109375,0.16009521484375,0.23187255859375
1760380269701,628694376,13971,21,0.927734375,0.13787841796875,0.15399169921875
1760380269701,628694376,13971,22,0.894287109375,0.18719482421875,0.21429443359375
1760380269701,628694376,13971,23,0.89599609375,0.15179443359375,0.24139404296875
1760380269701,628694376,13971,24,0.953857421875,0.12689208984375,0.12103271484375
1760380269701,628694376,13971,25,0.883056640625,0.21307373046875,0.19793701171875
1760380269701,628694376,13971,26,0.896484375,0.12664794921875,0.28192138671875
1760380269701,628694376,13971,27,0.9296875,0.14471435546875,0.13592529296875
1760380269701,628694376,13971,28,0.89453125,0.19647216796875,0.18988037109375
1760380269701,628694376,13971,29,0.938232421875,0.13323974609375,0.19525146484375
1760380269701,628694376,13971,30,0.893798828125,0.16595458984375,0.20233154296875
1760380269701,628694376,13971,31,0.90673828125,0.15472412109375,0.15106201171875
1760380272303,628696955,13972,0,0.914794921875,0.16522216796875,0.26116943359375
1760380272303,628696955,13972,1,0.882568359375,0.16400146484375,0.20037841796875
1760380272303,628696955,13972,2,0.951171875,0.14373779296875,0.11810302734375
1760380272303,628696955,13972,3,0.903564453125,0.18206787109375,0.19134521484375
1760380272303,628696955,13972,4,0.8896484375,0.13299560546875,0.15765380859375
1760380272303,628696955,13972,5,0.92724609375,0.17816162109375,0.20648193359375
1760380272303,628696955,13972,6,0.9375,0.13470458984375,0.19598388671875
1760380272303,628696955,13972,7,0.931884765625,0.14324951171875,0.07318115234375
1760380272303,628696955,13972,8,0.872802734375,0.20184326171875,0.28680419921875
1760380272303,628696955,13972,9,0.908203125,0.13226318359375,0.18621826171875
1760380272303,628696955,13972,10,0.911865234375,0.17132568359375,0.20330810546875
1760380272303,628696955,13972,11,0.9072265625,0.15325927734375,0.15740966796875
1760380272303,628696955,13972,12,0.899658203125,0.16668701171875,0.25189208984375
1760380272303,628696955,13972,13,0.9306640625,0.14031982421875,0.12615966796875
1760380272303,628696955,13972,14,0.900146484375,0.19525146484375,0.22259521484375
1760380272303,628696955,13972,15,0.903076171875,0.13690185546875,0.22088623046875
1760380272303,628696955,13972,16,0.94189453125,0.15667724609375,0.08587646484375
1760380272303,628696955,13972,17,0.865966796875,0.19036865234375,0.26800537109375
1760380272303,628696955,13972,18,0.936279296875,0.11810302734375,0.19134521484375
1760380272303,628696955,13972,19,0.908203125,0.19476318359375,0.14495849609375
1760380272303,628696955,13972,20,0.89794921875,0.16693115234375,0.25042724609375
1760380272303,628696955,13972,21,0.95751953125,0.12030029296875,0.10052490234375
1760380272303,628696955,13972,22,0.867919921875,0.20770263671875,0.25067138671875
1760380272303,628696955,13972,23,0.9296875,0.12567138671875,0.21697998046875
1760380272303,628696955,13972,24,0.912353515625,0.17938232421875,0.12518310546875
1760380272303,628696955,13972,25,0.867919921875,0.16644287109375,0.27288818359375
1760380272303,628696955,13972,26,0.9501953125,0.13275146484375,0.18060302734375
1760380272303,628696955,13972,27,0.894775390625,0.19622802734375,0.14300537109375
1760380272303,628696955,13972,28,0.91943359375,0.14031982421875,0.17742919921875
1760380272303,628696955,13972,29,0.90869140625,0.17254638671875,0.23919677734375
1760380272303,628696955,13972,30,0.885009765625,0.17205810546875,0.23602294921875
1760380272303,628696955,13972,31,0.869873046875,0.16180419921875,0.20721435546875
1760380274903,628699534,13973,0,0.947509765625,0.15130615234375,0.20599365234375
1760380274903,628699534,13973,1,0.94091796875,0.12933349609375,0.20550537109375
1760380274903,628699534,13973,2,0.889892578125,0.17181396484375,0.16766357421875
1760380274903,628699534,13973,3,0.891845703125,0.16619873046875,0.29095458984375
1760380274903,628699534,13973,4,0.893310546875,0.15692138671875,0.21966552734375
1760380274903,628699534,13973,5,0.91162109375,0.17425537109375,0.22601318359375
1760380274903,628699534,13973,6,0.894287109375,0.16107177734375,0.19964599609375
1760380274903,628699534,13973,7,0.910888671875,0.17132568359375,0.24530029296875
1760380274903,628699534,13973,8,0.916748046875,0.16033935546875,0.14300537109375
1760380274903,628699534,13973,9,0.895263671875,0.17767333984375,0.25018310546875
1760380274903,628699534,13973,10,0.916015625,0.15301513671875,0.16693115234375
1760380274903,628699534,13973,11,0.89208984375,0.18035888671875,0.23040771484375
1760380274903,628699534,13973,12,0.888671875,0.16571044921875,0.23455810546875
1760380274903,628699534,13973,13,0.90283203125,0.16351318359375,0.23089599609375
1760380274903,628699534,13973,14,0.926025390625,0.16815185546875,0.20233154296875
1760380274903,628699534,13973,15,0.9287109375,0.13397216796875,0.22283935546875
1760380274903,628699534,13973,16,0.888427734375,0.13909912109375,0.18841552734375
1760380274903,628699534,13973,17,0.87158203125,0.18621826171875,0.26580810546875
1760380274903,628699534,13973,18,0.8974609375,0.17816162109375,0.27313232421875
1760380274903,628699534,13973,19,0.87890625,0.15545654296875,0.22113037109375
1760380274903,628699534,13973,20,0.9345703125,0.15057373046875,0.17352294921875
1760380274903,628699534,13973,21,0.90234375,0.16546630859375,0.18304443359375
1760380274903,628699534,13973,22,0.914306640625,0.16619873046875,0.19696044921875
