receivedPhoneTimestamp,respeckTimestamp,packetSeqNum,sampleSeqNum,accelX,accelY,accelZ
1759659434113,790587458,4308,0,-0.0517578125,-0.99395751953125,0.08221435546875
1759659434113,790587458,4308,1,-0.05029296875,-0.99224853515625,0.08587646484375
1759659434113,790587458,4308,2,-0.052490234375,-0.99517822265625,0.08099365234375
1759659434113,790587458,4308,3,-0.0556640625,-0.99957275390625,0.08880615234375
1759659434113,790587458,4308,4,-0.052490234375,-0.99542236328125,0.09393310546875
1759659434113,790587458,4308,5,-0.059326171875,-0.99346923828125,0.09295654296875
1759659434113,790587458,4308,6,-0.055908203125,-0.99639892578125,0.08905029296875
1759659434113,790587458,4308,7,-0.05419921875,-0.99639892578125,0.09320068359375
1759659434113,790587458,4308,8,-0.053955078125,-0.99591064453125,0.09100341796875
1759659434113,790587458,4308,9,-0.0576171875,-0.99591064453125,0.09417724609375
1759659434113,790587458,4308,10,-0.06201171875,-0.99761962890625,0.09051513671875
1759659434113,790587458,4308,11,-0.058837890625,-0.99346923828125,0.09246826171875
1759659434113,790587458,4308,12,-0.06396484375,-1.00030517578125,0.08880615234375
1759659434113,790587458,4308,13,-0.062255859375,-0.99761962890625,0.08880615234375
1759659434113,790587458,4308,14,-0.064453125,-0.97442626953125,0.07318115234375
1759659434113,790587458,4308,15,-0.092041015625,-0.94268798828125,0.10833740234375
1759659434113,790587458,4308,16,-0.02880859375,-1.04254150390625,0.04534912109375
1759659434113,790587458,4308,17,-0.065673828125,-1.00958251953125,0.11834716796875
1759659434113,790587458,4308,18,-0.0478515625,-0.98760986328125,0.09686279296875
1759659434113,790587458,4308,19,-0.06640625,-0.97369384765625,0.12420654296875
1759659434113,790587458,4308,20,-0.03955078125,-1.00665283203125,0.12396240234375
1759659434113,790587458,4308,21,-0.06494140625,-0.98834228515625,0.15228271484375
1759659434113,790587458,4308,22,-0.0078125,-1.00762939453125,0.01336669921875
1759659434113,790587458,4308,23,-0.141357421875,-1.02593994140625,0.11077880859375
1759659434113,790587458,4308,24,-0.111328125,-0.96246337890625,-0.01422119140625
1759659434113,790587458,4308,25,-0.04443359375,-0.97808837890625,-0.03961181640625
1759659434113,790587458,4308,26,-0.06396484375,-1.05963134765625,0.10565185546875
1759659434113,790587458,4308,27,-0.06396484375,-0.97418212890625,0.08392333984375
1759659434113,790587458,4308,28,-0.077880859375,-0.99078369140625,0.15057373046875
1759659434113,790587458,4308,29,-0.05908203125,-0.99298095703125,0.08172607421875
1759659434113,790587458,4308,30,-0.089599609375,-1.00103759765625,0.17254638671875
1759659434113,790587458,4308,31,-0.045166015625,-0.97149658203125,0.09954833984375
1759659436647,790590013,4309,0,-0.037109375,-0.98638916015625,0.12640380859375
1759659436647,790590013,4309,1,-0.072265625,-0.98785400390625,0.14447021484375
1759659436647,790590013,4309,2,-0.043212890625,-0.98541259765625,0.08831787109375
1759659436647,790590013,4309,3,-0.050537109375,-1.00030517578125,0.11029052734375
1759659436647,790590013,4309,4,-0.03076171875,-0.98663330078125,0.07781982421875
1759659436647,790590013,4309,5,-0.0654296875,-1.00128173828125,0.07415771484375
1759659436647,790590013,4309,6,-0.03564453125,-1.00396728515625,0.00311279296875
1759659436647,790590013,4309,7,-0.1259765625,-1.00543212890625,0.00433349609375
1759659436647,790590013,4309,8,-0.085693359375,-0.98345947265625,0.09686279296875
1759659436647,790590013,4309,9,0.0205078125,-1.01983642578125,-0.10894775390625
1759659436647,790590013,4309,10,-0.037353515625,-1.03936767578125,0.09588623046875
1759659436647,790590013,4309,11,-0.0322265625,-0.96563720703125,0.04534912109375
1759659436647,790590013,4309,12,-0.037353515625,-1.00396728515625,0.11248779296875
1759659436647,790590013,4309,13,-0.022705078125,-0.99273681640625,0.05120849609375
1759659436647,790590013,4309,14,-0.048828125,-1.01007080078125,0.11322021484375
1759659436647,790590013,4309,15,-0.021240234375,-0.98126220703125,0.05853271484375
1759659436647,790590013,4309,16,-0.0185546875,-1.00714111328125,0.07366943359375
1759659436647,790590013,4309,17,-0.02783203125,-0.98956298828125,0.05682373046875
1759659436647,790590013,4309,18,-0.031494140625,-1.00079345703125,0.05023193359375
1759659436647,790590013,4309,19,-0.05029296875,-1.01885986328125,0.07611083984375
1759659436647,790590013,4309,20,-0.03369140625,-1.00201416015625,0.00872802734375
1759659436647,790590013,4309,21,-0.034423828125,-0.99859619140625,0.01947021484375
1759659436647,790590013,4309,22,-0.0712890625,-1.00640869140625,0.00018310546875
1759659436647,790590013,4309,23,-0.083740234375,-0.97027587890625,0.07440185546875
1759659436647,790590013,4309,24,0.003662109375,-1.03863525390625,-0.07745361328125
1759659436647,790590013,4309,25,-0.052734375,-1.02545166015625,0.11785888671875
1759659436647,790590013,4309,26,-0.045166015625,-0.97637939453125,0.06658935546875
1759659436647,790590013,4309,27,-0.05224609375,-0.98638916015625,0.12640380859375
1759659436647,790590013,4309,28,-0.042724609375,-1.00152587890625,0.08636474609375
1759659436647,790590013,4309,29,-0.05712890625,-0.99981689453125,0.12640380859375
1759659436647,790590013,4309,30,-0.03466796875,-0.98052978515625,0.08514404296875
1759659436647,790590013,4309,31,-0.053955078125,-1.01690673828125,0.10833740234375
1759659439183,790592568,4310,0,-0.037841796875,-0.98321533203125,0.08074951171875
1759659439183,790592568,4310,1,-0.031494140625,-0.99176025390625,0.07244873046875
1759659439183,790592568,4310,2,-0.042724609375,-1.00567626953125,0.08319091796875
1759659439183,790592568,4310,3,-0.01806640625,-0.99932861328125,0.03558349609375
1759659439183,790592568,4310,4,-0.03662109375,-1.00787353515625,0.03192138671875
1759659439183,790592568,4310,5,-0.096923828125,-1.00421142578125,0.02313232421875
1759659439183,790592568,4310,6,-0.0771484375,-0.98736572265625,-0.00836181640625
1759659439183,790592568,4310,7,-0.02587890625,-1.00518798828125,0.00531005859375
1759659439183,790592568,4310,8,-0.0458984375,-1.02081298828125,0.08270263671875
1759659439183,790592568,4310,9,-0.032958984375,-0.98419189453125,0.07659912109375
1759659439183,790592568,4310,10,-0.0478515625,-0.99786376953125,0.14129638671875
1759659439183,790592568,4310,11,-0.03515625,-0.98443603515625,0.09564208984375
1759659439183,790592568,4310,12,-0.049072265625,-1.00518798828125,0.14715576171875
1759659439183,790592568,4310,13,-0.030029296875,-0.97662353515625,0.09515380859375
1759659439183,790592568,4310,14,-0.03857421875,-1.00250244140625,0.11077880859375
1759659439183,790592568,4310,15,-0.050048828125,-0.99420166015625,0.12298583984375
1759659439183,790592568,4310,16,-0.0205078125,-0.98687744140625,0.08587646484375
1759659439183,790592568,4310,17,-0.0517578125,-1.00445556640625,0.13909912109375
1759659439183,790592568,4310,18,-0.021728515625,-0.98345947265625,0.08392333984375
1759659439183,790592568,4310,19,-0.02294921875,-1.00225830078125,0.09515380859375
1759659439183,790592568,4310,20,-0.03076171875,-0.97760009765625,0.08978271484375
1759659439183,790592568,4310,21,-0.071044921875,-0.99713134765625,0.12664794921875
1759659439183,790592568,4310,22,-0.02685546875,-1.00396728515625,0.07269287109375
1759659439183,790592568,4310,23,-0.02197265625,-0.99444580078125,0.06390380859375
1759659439183,790592568,4310,24,-0.068359375,-1.00616455078125,0.06854248046875
1759659439183,790592568,4310,25,-0.05322265625,-0.98492431640625,-0.01763916015625
1759659439183,790592568,4310,26,-0.06005859375,-1.00445556640625,0.03314208984375
1759659439183,790592568,4310,27,-0.052978515625,-1.00567626953125,0.10394287109375
1759659439183,790592568,4310,28,-0.017822265625,-0.99517822265625,0.07073974609375
1759659439183,790592568,4310,29,-0.032470703125,-1.00323486328125,0.12811279296875
1759659439183,790592568,4310,30,-0.031494140625,-0.98272705078125,0.08856201171875
1759659439183,790592568,4310,31,-0.037353515625,-1.00421142578125,0.12176513671875
1759659441714,790595123,4311,0,-0.0244140625,-0.98760986328125,0.08197021484375
1759659441714,790595123,4311,1,-0.029541015625,-0.99761962890625,0.11199951171875
1759659441714,790595123,4311,2,-0.03369140625,-0.99468994140625,0.10345458984375
1759659441714,790595123,4311,3,-0.021484375,-0.98834228515625,0.07342529296875
1759659441714,790595123,4311,4,-0.0283203125,-1.00347900390625,0.09735107421875
1759659441714,790595123,4311,5,-0.059326171875,-1.00567626953125,0.08367919921875
1759659441714,790595123,4311,6,-0.046630859375,-0.98858642578125,0.04071044921875
1759659441714,790595123,4311,7,-0.0634765625,-0.99664306640625,0.03778076171875
1759659441714,790595123,4311,8,-0.03857421875,-1.00738525390625,0.01092529296875
1759659441714,790595123,4311,9,-0.044189453125,-0.99932861328125,0.07391357421875
1759659441714,790595123,4311,10,-0.04052734375,-0.99761962890625,0.12811279296875
1759659441714,790595123,4311,11,-0.027587890625,-0.99517822265625,0.09320068359375
1759659441714,790595123,4311,12,-0.0625,-0.99224853515625,0.15716552734375
1759659441714,790595123,4311,13,-0.01708984375,-0.98175048828125,0.10394287109375
1759659441714,790595123,4311,14,-0.051513671875,-1.00640869140625,0.15667724609375
1759659441714,790595123,4311,15,-0.01708984375,-0.97369384765625,0.11224365234375
1759659441714,790595123,4311,16,-0.03564453125,-1.00201416015625,0.14080810546875
1759659441714,790595123,4311,17,-0.029296875,-0.97515869140625,0.10906982421875
1759659441714,790595123,4311,18,-0.044189453125,-1.00103759765625,0.11492919921875
1759659441714,790595123,4311,19,-0.04150390625,-0.98663330078125,0.11761474609375
1759659441714,790595123,4311,20,-0.033447265625,-0.98883056640625,0.08929443359375
1759659441714,790595123,4311,21,-0.03857421875,-1.01763916015625,0.07928466796875
1759659441714,790595123,4311,22,-0.056396484375,-0.99176025390625,0.07855224609375
1759659441714,790595123,4311,23,-0.069580078125,-0.98028564453125,0.05291748046875
1759659441714,790595123,4311,24,-0.06689453125,-1.00201416015625,0.07708740234375
1759659441714,790595123,4311,25,-0.026611328125,-1.02496337890625,-0.00299072265625
1759659441714,790595123,4311,26,-0.052001953125,-0.99029541015625,0.11346435546875
1759659441714,790595123,4311,27,-0.0390625,-0.98834228515625,0.09564208984375
1759659441714,790595123,4311,28,-0.05419921875,-1.00177001953125,0.13812255859375
1759659441714,790595123,4311,29,-0.032958984375,-0.97930908203125,0.08636474609375
1759659441714,790595123,4311,30,-0.046875,-1.00787353515625,0.11810302734375
1759659441714,790595123,4311,31,-0.037109375,-0.98565673828125,0.08563232421875
1759659444252,790597678,4312,0,-0.051513671875,-0.99615478515625,0.11859130859375
1759659444252,790597678,4312,1,-0.027587890625,-0.98834228515625,0.09393310546875
1759659444252,790597678,4312,2,-0.033203125,-0.99200439453125,0.09710693359375
1759659444252,790597678,4312,3,-0.04296875,-1.00103759765625,0.10369873046875
1759659444252,790597678,4312,4,-0.03662109375,-0.98614501953125,0.07196044921875
1759659444252,790597678,4312,5,-0.048828125,-1.00592041015625,0.09515380859375
1759659444252,790597678,4312,6,-0.036865234375,-0.98541259765625,0.06292724609375
1759659444252,790597678,4312,7,-0.04443359375,-1.01275634765625,0.08221435546875
1759659444252,790597678,4312,8,-0.037109375,-0.98956298828125,0.06756591796875
1759659444252,790597678,4312,9,-0.023193359375,-1.00396728515625,0.04925537109375
1759659444252,790597678,4312,10,-0.046630859375,-1.01177978515625,0.02142333984375
1759659444252,790597678,4312,11,-0.0478515625,-1.00225830078125,0.01556396484375
1759659444252,790597678,4312,12,-0.08203125,-0.99566650390625,0.00506591796875
1759659444252,790597678,4312,13,-0.084228515625,-0.98345947265625,0.07952880859375
1759659444252,790597678,4312,14,-0.002685546875,-1.00689697265625,-0.00372314453125
1759659444252,790597678,4312,15,-0.0400390625,-1.00006103515625,0.07757568359375
1759659444252,790597678,4312,16,-0.0703125,-0.98980712890625,0.13616943359375
1759659444252,790597678,4312,17,-0.047607421875,-0.98028564453125,0.10809326171875
1759659444252,790597678,4312,18,-0.050048828125,-1.00323486328125,0.13128662109375
1759659444252,790597678,4312,19,-0.0537109375,-0.98443603515625,0.12567138671875
1759659444252,790597678,4312,20,-0.0380859375,-0.99176025390625,0.12396240234375
1759659444252,790597678,4312,21,-0.04638671875,-0.98834228515625,0.13616943359375
1759659444252,790597678,4312,22,-0.031982421875,-0.99444580078125,0.11102294921875
1759659444252,790597678,4312,23,-0.02001953125,-0.99420166015625,0.07684326171875
1759659444252,790597678,4312,24,-0.055419921875,-1.00640869140625,0.07318115234375
1759659444252,790597678,4312,25,-0.07763671875,-1.00006103515625,0.07391357421875
1759659444252,790597678,4312,26,-0.0439453125,-0.98443603515625,0.03778076171875
1759659444252,790597678,4312,27,-0.045166015625,-1.00885009765625,0.02532958984375
1759659444252,790597678,4312,28,-0.050048828125,-1.00811767578125,0.07122802734375
1759659444252,790597678,4312,29,-0.04443359375,-0.97882080078125,0.10516357421875
1759659444252,790597678,4312,30,-0.04443359375,-0.99859619140625,0.12738037109375
1759659444252,790597678,4312,31,-0.042236328125,-0.99346923828125,0.10980224609375
1759659446787,790600234,4313,0,-0.0439453125,-0.98956298828125,0.11883544921875
1759659446787,790600234,4313,1,-0.040771484375,-0.99200439453125,0.12542724609375
1759659446787,790600234,4313,2,-0.032470703125,-0.99273681640625,0.11395263671875
1759659446787,790600234,4313,3,-0.043212890625,-0.98248291015625,0.12982177734375
1759659446787,790600234,4313,4,-0.044921875,-0.99615478515625,0.13250732421875
1759659446787,790600234,4313,5,-0.04248046875,-0.98907470703125,0.12933349609375
1759659446787,790600234,4313,6,-0.044189453125,-0.98834228515625,0.13104248046875
1759659446787,790600234,4313,7,-0.03955078125,-0.98468017578125,0.12860107421875
1759659446787,790600234,4313,8,-0.035400390625,-0.99273681640625,0.14202880859375
1759659446787,790600234,4313,9,-0.031982421875,-0.98492431640625,0.12054443359375
1759659446787,790600234,4313,10,-0.0302734375,-0.99395751953125,0.11688232421875
1759659446787,790600234,4313,11,-0.014404296875,-1.00006103515625,0.06097412109375
1759659446787,790600234,4313,12,-0.074462890625,-1.01422119140625,0.07830810546875
1759659446787,790600234,4313,13,-0.058837890625,-0.98760986328125,0.02728271484375
1759659446787,790600234,4313,14,-0.053466796875,-0.99151611328125,0.04241943359375
1759659446787,790600234,4313,15,-0.02490234375,-1.02935791015625,0.01849365234375
1759659446787,790600234,4313,16,-0.04833984375,-0.97760009765625,0.09588623046875
1759659446787,790600234,4313,17,-0.04443359375,-0.99761962890625,0.12615966796875
1759659446787,790600234,4313,18,-0.037353515625,-0.98663330078125,0.12738037109375
1759659446787,790600234,4313,19,-0.04345703125,-0.98614501953125,0.14031982421875
1759659446787,790600234,4313,20,-0.042724609375,-0.98614501953125,0.13812255859375
1759659446787,790600234,4313,21,-0.041259765625,-0.98760986328125,0.14569091796875
1759659446787,790600234,4313,22,-0.0341796875,-0.98101806640625,0.13470458984375
1759659446787,790600234,4313,23,-0.034912109375,-0.99322509765625,0.14886474609375
1759659446787,790600234,4313,24,-0.035888671875,-0.98345947265625,0.13885498046875
1759659446787,790600234,4313,25,-0.032958984375,-0.98590087890625,0.14642333984375
1759659446787,790600234,4313,26,-0.0322265625,-0.98150634765625,0.14642333984375
1759659446787,790600234,4313,27,-0.03173828125,-0.99029541015625,0.14300537109375
1759659446787,790600234,4313,28,-0.02734375,-0.98883056640625,0.13616943359375
1759659446787,790600234,4313,29,-0.02294921875,-0.99102783203125,0.12078857421875
1759659446787,790600234,4313,30,-0.0244140625,-0.99859619140625,0.09393310546875
1759659446787,790600234,4313,31,-0.031005859375,-0.99810791015625,0.07391357421875
1759659449322,790602789,4314,0,-0.05078125,-0.99859619140625,0.08343505859375
1759659449322,790602789,4314,1,-0.041259765625,-0.99005126953125,0.05755615234375
1759659449322,790602789,4314,2,-0.055419921875,-0.99884033203125,0.03924560546875
1759659449322,790602789,4314,3,-0.019287109375,-1.00787353515625,0.08514404296875
1759659449322,790602789,4314,4,-0.029052734375,-0.98468017578125,0.09588623046875
1759659449322,790602789,4314,5,-0.0244140625,-0.99737548828125,0.13397216796875
1759659449322,790602789,4314,6,-0.030029296875,-0.98150634765625,0.11981201171875
1759659449322,790602789,4314,7,-0.02880859375,-0.99078369140625,0.14300537109375
1759659449322,790602789,4314,8,-0.021484375,-0.99713134765625,0.12493896484375
1759659449322,790602789,4314,9,-0.02294921875,-0.99029541015625,0.12982177734375
1759659449322,790602789,4314,10,-0.02978515625,-0.97564697265625,0.12762451171875
1759659449322,790602789,4314,11,-0.0283203125,-0.99664306640625,0.15545654296875
1759659449322,790602789,4314,12,-0.0234375,-0.98345947265625,0.13348388671875
1759659449322,790602789,4314,13,-0.02587890625,-0.98687744140625,0.14227294921875
1759659449322,790602789,4314,14,-0.02001953125,-0.98614501953125,0.13494873046875
1759659449322,790602789,4314,15,-0.013671875,-0.98931884765625,0.11883544921875
1759659449322,790602789,4314,16,-0.030517578125,-0.99542236328125,0.13397216796875
1759659449322,790602789,4314,17,-0.001708984375,-0.98712158203125,0.07757568359375
1759659449322,790602789,4314,18,-0.04052734375,-1.00982666015625,0.10687255859375
1759659449322,790602789,4314,19,-0.047607421875,-0.99395751953125,0.07366943359375
1759659449322,790602789,4314,20,-0.0439453125,-0.99664306640625,0.06585693359375
1759659449322,790602789,4314,21,-0.043701171875,-0.99493408203125,0.05804443359375
1759659449322,790602789,4314,22,-0.02294921875,-1.00250244140625,0.09637451171875
1759659449322,790602789,4314,23,-0.0166015625,-0.98736572265625,0.09051513671875
1759659449322,790602789,4314,24,-0.033935546875,-0.99957275390625,0.16375732421875
1759659449322,790602789,4314,25,-0.021240234375,-0.97979736328125,0.10809326171875
1759659449322,790602789,4314,26,-0.03173828125,-0.99591064453125,0.16522216796875
1759659449322,790602789,4314,27,-0.0234375,-0.98760986328125,0.12127685546875
1759659449322,790602789,4314,28,-0.020751953125,-0.99005126953125,0.14984130859375
1759659449322,790602789,4314,29,-0.0224609375,-0.97564697265625,0.12982177734375
1759659449322,790602789,4314,30,-0.0439453125,-1.00177001953125,0.15740966796875
1759659449322,790602789,4314,31,-0.031005859375,-0.97955322265625,0.12030029296875
1759659451857,790605344,4315,0,-0.04443359375,-0.99298095703125,0.12762451171875
1759659451857,790605344,4315,1,-0.0302734375,-0.98834228515625,0.12371826171875
1759659451857,790605344,4315,2,-0.01904296875,-0.99371337890625,0.12298583984375
1759659451857,790605344,4315,3,-0.02587890625,-0.98760986328125,0.11004638671875
1759659451857,790605344,4315,4,-0.033935546875,-0.99688720703125,0.12127685546875
1759659451857,790605344,4315,5,-0.0302734375,-0.99127197265625,0.07049560546875
1759659451857,790605344,4315,6,-0.04052734375,-1.00469970703125,0.06683349609375
1759659451857,790605344,4315,7,-0.06005859375,-1.00738525390625,0.06439208984375
1759659451857,790605344,4315,8,-0.055419921875,-0.99493408203125,0.06829833984375
1759659451857,790605344,4315,9,-0.045166015625,-0.97808837890625,0.05950927734375
1759659451857,790605344,4315,10,-0.037109375,-1.01763916015625,0.10223388671875
1759659451857,790605344,4315,11,-0.04541015625,-0.97418212890625,0.13519287109375
1759659451857,790605344,4315,12,-0.043701171875,-0.99932861328125,0.14398193359375
1759659451857,790605344,4315,13,-0.044921875,-0.97906494140625,0.13665771484375
1759659451857,790605344,4315,14,-0.03759765625,-0.99566650390625,0.12152099609375
1759659451857,790605344,4315,15,-0.042724609375,-0.98638916015625,0.12835693359375
1759659451857,790605344,4315,16,-0.03369140625,-0.98956298828125,0.13128662109375
1759659451857,790605344,4315,17,-0.028564453125,-0.99346923828125,0.13275146484375
1759659451857,790605344,4315,18,-0.031494140625,-0.98785400390625,0.11907958984375
1759659451857,790605344,4315,19,-0.041259765625,-0.99444580078125,0.13739013671875
1759659451857,790605344,4315,20,-0.03125,-0.98468017578125,0.11297607421875
1759659451857,790605344,4315,21,-0.040771484375,-0.99810791015625,0.12567138671875
1759659451857,790605344,4315,22,-0.031494140625,-0.98614501953125,0.11370849609375
1759659451857,790605344,4315,23,-0.035888671875,-0.99688720703125,0.11419677734375
1759659451857,790605344,4315,24,-0.028564453125,-0.99566650390625,0.10760498046875
1759659451857,790605344,4315,25,-0.051025390625,-0.99639892578125,0.10296630859375
1759659451857,790605344,4315,26,-0.0546875,-0.99688720703125,0.06048583984375
1759659451857,790605344,4315,27,-0.07080078125,-0.99468994140625,0.05633544921875
1759659451857,790605344,4315,28,-0.08056640625,-0.99322509765625,0.12176513671875
1759659451857,790605344,4315,29,-0.0390625,-1.01593017578125,0.02288818359375
1759659451857,790605344,4315,30,-0.0439453125,-0.97515869140625,0.12664794921875
1759659451857,790605344,4315,31,-0.05908203125,-0.99493408203125,0.12298583984375
1759659454587,790607899,4316,0,-0.05810546875,-0.97979736328125,0.13519287109375
1759659454587,790607899,4316,1,-0.046875,-1.00201416015625,0.11419677734375
1759659454587,790607899,4316,2,-0.059326171875,-0.98883056640625,0.12518310546875
1759659454587,790607899,4316,3,-0.04833984375,-0.98858642578125,0.12786865234375
1759659454587,790607899,4316,4,-0.03564453125,-0.98760986328125,0.11688232421875
1759659454587,790607899,4316,5,-0.040771484375,-0.99420166015625,0.12615966796875
1759659454587,790607899,4316,6,-0.0439453125,-0.98223876953125,0.14300537109375
1759659454587,790607899,4316,7,-0.042236328125,-0.99200439453125,0.13250732421875
1759659454587,790607899,4316,8,-0.047119140625,-0.98931884765625,0.12860107421875
1759659454587,790607899,4316,9,-0.035888671875,-0.99102783203125,0.11102294921875
1759659454587,790607899,4316,10,-0.05029296875,-0.99615478515625,0.10321044921875
1759659454587,790607899,4316,11,-0.043701171875,-1.00250244140625,0.09588623046875
1759659454587,790607899,4316,12,-0.0625,-0.99859619140625,0.08367919921875
1759659454587,790607899,4316,13,-0.06201171875,-0.99517822265625,0.05145263671875
1759659454587,790607899,4316,14,-0.071044921875,-1.00030517578125,0.03924560546875
1759659454587,790607899,4316,15,-0.105224609375,-0.98931884765625,0.11761474609375
1759659454587,790607899,4316,16,-0.03759765625,-0.99737548828125,0.06048583984375
1759659454587,790607899,4316,17,-0.062255859375,-1.00836181640625,0.12640380859375
1759659454587,790607899,4316,18,-0.067626953125,-0.96661376953125,0.14202880859375
1759659454587,790607899,4316,19,-0.060302734375,-0.98956298828125,0.16351318359375
1759659454587,790607899,4316,20,-0.05810546875,-0.98248291015625,0.13470458984375
1759659454587,790607899,4316,21,-0.068603515625,-0.99176025390625,0.15179443359375
1759659454587,790607899,4316,22,-0.054931640625,-0.98004150390625,0.13006591796875
1759659454587,790607899,4316,23,-0.049560546875,-0.99542236328125,0.13836669921875
1759659454587,790607899,4316,24,-0.05712890625,-0.98687744140625,0.12786865234375
1759659454587,790607899,4316,25,-0.049072265625,-0.99102783203125,0.12615966796875
1759659454587,790607899,4316,26,-0.05126953125,-0.99298095703125,0.13201904296875
1759659454587,790607899,4316,27,-0.044189453125,-0.98492431640625,0.09979248046875
1759659454587,790607899,4316,28,-0.0546875,-0.99908447265625,0.13201904296875
1759659454587,790607899,4316,29,-0.03662109375,-0.99444580078125,0.09490966796875
1759659454587,790607899,4316,30,-0.069580078125,-1.00128173828125,0.07830810546875
1759659454587,790607899,4316,31,-0.061279296875,-1.00787353515625,0.06072998046875
1759659457121,790610454,4317,0,-0.09521484375,-0.98858642578125,0.04022216796875
1759659457121,790610454,4317,1,-0.0810546875,-0.97589111328125,0.08319091796875
1759659457121,790610454,4317,2,-0.056640625,-1.02447509765625,0.04486083984375
1759659457121,790610454,4317,3,-0.060791015625,-0.98248291015625,0.08074951171875
1759659457121,790610454,4317,4,-0.0712890625,-1.00250244140625,0.13787841796875
1759659457121,790610454,4317,5,-0.068115234375,-0.98175048828125,0.13494873046875
1759659457121,790610454,4317,6,-0.05712890625,-0.99517822265625,0.14031982421875
1759659457121,790610454,4317,7,-0.06689453125,-0.98126220703125,0.13861083984375
1759659457121,790610454,4317,8,-0.05517578125,-0.98590087890625,0.12445068359375
1759659457121,790610454,4317,9,-0.0654296875,-0.99591064453125,0.15863037109375
1759659457121,790610454,4317,10,-0.05078125,-0.97100830078125,0.10418701171875
1759659457121,790610454,4317,11,-0.0673828125,-1.00469970703125,0.12738037109375
1759659457121,790610454,4317,12,-0.031982421875,-0.99859619140625,0.11004638671875
1759659457121,790610454,4317,13,-0.058349609375,-0.98394775390625,0.11663818359375
1759659457121,790610454,4317,14,-0.049560546875,-0.99761962890625,0.10955810546875
1759659457121,790610454,4317,15,-0.036376953125,-0.99078369140625,0.08660888671875
1759659457121,790610454,4317,16,-0.062255859375,-0.99542236328125,0.11883544921875
1759659457121,790610454,4317,17,-0.038818359375,-0.99151611328125,0.07489013671875
1759659457121,790610454,4317,18,-0.05908203125,-1.01177978515625,0.07171630859375
1759659457121,790610454,4317,19,-0.078369140625,-0.97564697265625,0.08367919921875
1759659457121,790610454,4317,20,-0.072021484375,-0.99468994140625,0.10418701171875
1759659457121,790610454,4317,21,-0.04443359375,-1.00079345703125,0.03924560546875
1759659457121,790610454,4317,22,-0.070068359375,-1.00689697265625,0.12200927734375
1759659457121,790610454,4317,23,-0.064453125,-0.96881103515625,0.07269287109375
1759659457121,790610454,4317,24,-0.07958984375,-1.01446533203125,0.11932373046875
1759659457121,790610454,4317,25,-0.049072265625,-0.99322509765625,0.08392333984375
1759659457121,790610454,4317,26,-0.06689453125,-0.99102783203125,0.09564208984375
1759659457121,790610454,4317,27,-0.053466796875,-1.00836181640625,0.07977294921875
1759659457121,790610454,4317,28,-0.074951171875,-0.99078369140625,0.10247802734375
1759659457121,790610454,4317,29,-0.051513671875,-0.98345947265625,0.07952880859375
1759659457121,790610454,4317,30,-0.0576171875,-1.01031494140625,0.08953857421875
1759659457121,790610454,4317,31,-0.06396484375,-0.98345947265625,0.07440185546875
1759659459657,790613009,4318,0,-0.055419921875,-1.00518798828125,0.08807373046875
1759659459657,790613009,4318,1,-0.0546875,-0.99517822265625,0.07562255859375
1759659459657,790613009,4318,2,-0.053955078125,-1.00469970703125,0.05853271484375
1759659459657,790613009,4318,3,-0.06591796875,-1.00982666015625,0.03973388671875
1759659459657,790613009,4318,4,-0.075439453125,-0.99322509765625,0.04241943359375
1759659459657,790613009,4318,5,-0.097900390625,-0.97589111328125,0.09075927734375
1759659459657,790613009,4318,6,-0.05078125,-1.03741455078125,0.03289794921875
1759659459657,790613009,4318,7,-0.066650390625,-0.96856689453125,0.09759521484375
1759659459657,790613009,4318,8,-0.06494140625,-0.99859619140625,0.13055419921875
1759659459657,790613009,4318,9,-0.065673828125,-0.98468017578125,0.10809326171875
1759659459657,790613009,4318,10,-0.05810546875,-0.99981689453125,0.11810302734375
1759659459657,790613009,4318,11,-0.068603515625,-0.98785400390625,0.11492919921875
1759659459657,790613009,4318,12,-0.056640625,-0.99737548828125,0.09173583984375
1759659459657,790613009,4318,13,-0.06689453125,-0.99688720703125,0.10638427734375
1759659459657,790613009,4318,14,-0.058837890625,-0.98736572265625,0.08074951171875
1759659459657,790613009,4318,15,-0.060302734375,-1.00982666015625,0.10003662109375
1759659459657,790613009,4318,16,-0.057861328125,-0.98687744140625,0.07147216796875
1759659459657,790613009,4318,17,-0.05517578125,-1.00592041015625,0.07855224609375
1759659459657,790613009,4318,18,-0.06640625,-0.99444580078125,0.06561279296875
1759659459657,790613009,4318,19,-0.06103515625,-0.99835205078125,0.04608154296875
1759659459657,790613009,4318,20,-0.06298828125,-1.02227783203125,0.06805419921875
1759659459657,790613009,4318,21,-0.0537109375,-0.99029541015625,0.02825927734375
1759659459657,790613009,4318,22,-0.055419921875,-1.01104736328125,0.05218505859375
1759659459657,790613009,4318,23,-0.07080078125,-1.01031494140625,0.00946044921875
1759659459657,790613009,4318,24,-0.08251953125,-0.99200439453125,0.02337646484375
1759659459657,790613009,4318,25,-0.10498046875,-0.97076416015625,0.08172607421875
1759659459657,790613009,4318,26,-0.03662109375,-1.03643798828125,0.00970458984375
1759659459657,790613009,4318,27,-0.072998046875,-0.97882080078125,0.07977294921875
1759659459657,790613009,4318,28,-0.08056640625,-1.00079345703125,0.10247802734375
1759659459657,790613009,4318,29,-0.072998046875,-0.98980712890625,0.09881591796875
1759659459657,790613009,4318,30,-0.067626953125,-0.99639892578125,0.09686279296875
1759659459657,790613009,4318,31,-0.072265625,-0.98907470703125,0.11395263671875
1759659462192,790615564,4319,0,-0.060791015625,-0.99273681640625,0.10760498046875
1759659462192,790615564,4319,1,-0.0673828125,-0.99591064453125,0.11688232421875
1759659462192,790615564,4319,2,-0.05712890625,-0.98638916015625,0.08538818359375
1759659462192,790615564,4319,3,-0.065673828125,-0.99713134765625,0.11297607421875
1759659462192,790615564,4319,4,-0.052734375,-0.99298095703125,0.08441162109375
1759659462192,790615564,4319,5,-0.064453125,-0.99859619140625,0.11419677734375
1759659462192,790615564,4319,6,-0.046630859375,-0.98492431640625,0.06878662109375
1759659462192,790615564,4319,7,-0.054931640625,-1.00787353515625,0.08148193359375
1759659462192,790615564,4319,8,-0.05126953125,-0.98907470703125,0.06072998046875
1759659462192,790615564,4319,9,-0.076171875,-1.01519775390625,0.05511474609375
1759659462192,790615564,4319,10,-0.074462890625,-0.99127197265625,0.04803466796875
1759659462192,790615564,4319,11,-0.077392578125,-1.00347900390625,0.01751708984375
1759659462192,790615564,4319,12,-0.07421875,-0.98907470703125,0.06170654296875
1759659462192,790615564,4319,13,-0.078369140625,-0.99591064453125,0.05145263671875
1759659462192,790615564,4319,14,-0.059326171875,-0.99957275390625,0.08392333984375
1759659462192,790615564,4319,15,-0.06787109375,-0.98614501953125,0.09979248046875
1759659462192,790615564,4319,16,-0.0634765625,-1.00274658203125,0.13006591796875
1759659462192,790615564,4319,17,-0.05517578125,-0.98199462890625,0.09442138671875
1759659462192,790615564,4319,18,-0.058349609375,-1.00518798828125,0.13104248046875
1759659462192,790615564,4319,19,-0.059814453125,-0.98077392578125,0.09759521484375
1759659462192,790615564,4319,20,-0.055908203125,-1.00372314453125,0.09588623046875
1759659462192,790615564,4319,21,-0.054931640625,-0.98638916015625,0.10516357421875
1759659462192,790615564,4319,22,-0.04443359375,-0.99224853515625,0.08221435546875
1759659462192,790615564,4319,23,-0.060791015625,-1.00665283203125,0.09661865234375
1759659462192,790615564,4319,24,-0.045654296875,-0.98468017578125,0.05633544921875
1759659462192,790615564,4319,25,-0.0556640625,-1.00714111328125,0.08441162109375
1759659462192,790615564,4319,26,-0.064208984375,-0.98760986328125,0.06121826171875
1759659462192,790615564,4319,27,-0.053955078125,-1.00640869140625,0.05023193359375
1759659462192,790615564,4319,28,-0.065185546875,-0.99737548828125,0.05145263671875
1759659462192,790615564,4319,29,-0.0546875,-1.00714111328125,0.02362060546875
1759659462192,790615564,4319,30,-0.078125,-1.00347900390625,0.01409912109375
1759659462192,790615564,4319,31,-0.09716796875,-0.98345947265625,0.03118896484375
1759659464724,790618119,4320,0,-0.117919921875,-1.00836181640625,0.04754638671875
1759659464724,790618119,4320,1,-0.059326171875,-1.01446533203125,-0.00469970703125
1759659464724,790618119,4320,2,-0.09228515625,-0.98297119140625,0.08465576171875
1759659464724,790618119,4320,3,-0.088134765625,-0.99761962890625,0.09124755859375
1759659464724,790618119,4320,4,-0.0654296875,-1.00128173828125,0.08343505859375
1759659464724,790618119,4320,5,-0.084228515625,-0.98541259765625,0.09002685546875
1759659464724,790618119,4320,6,-0.081298828125,-1.00030517578125,0.10296630859375
1759659464724,790618119,4320,7,-0.066162109375,-0.99322509765625,0.07928466796875
1759659464724,790618119,4320,8,-0.0751953125,-1.00030517578125,0.09979248046875
1759659464724,790618119,4320,9,-0.076171875,-0.98858642578125,0.08856201171875
1759659464724,790618119,4320,10,-0.07568359375,-1.00128173828125,0.10150146484375
