receivedPhoneTimestamp,respeckTimestamp,packetSeqNum,sampleSeqNum,accelX,accelY,accelZ
1759689812693,877131576,23508,0,-0.029052734375,-0.97222900390625,-0.03497314453125
1759689812693,877131576,23508,1,-0.001953125,-0.97882080078125,-0.02813720703125
1759689812693,877131576,23508,2,-0.032958984375,-1.04302978515625,-0.01617431640625
1759689812693,877131576,23508,3,-0.01171875,-0.97442626953125,-0.03790283203125
1759689812693,877131576,23508,4,0.00830078125,-1.03619384765625,-0.03106689453125
1759689812693,877131576,23508,5,-0.01708984375,-0.98785400390625,-0.01226806640625
1759689812693,877131576,23508,6,-0.0029296875,-0.97247314453125,0.00042724609375
1759689812693,877131576,23508,7,-0.014892578125,-1.01104736328125,-0.00616455078125
1759689812693,877131576,23508,8,-0.019287109375,-0.99395751953125,-0.01910400390625
1759689812693,877131576,23508,9,-0.023681640625,-1.00054931640625,-0.03131103515625
1759689812693,877131576,23508,10,-0.02587890625,-1.00543212890625,-0.00372314453125
1759689812693,877131576,23508,11,-0.034423828125,-1.01007080078125,0.00946044921875
1759689812693,877131576,23508,12,-0.000732421875,-0.98736572265625,-0.04058837890625
1759689812693,877131576,23508,13,-0.008056640625,-1.02081298828125,-0.03448486328125
1759689812693,877131576,23508,14,-0.027099609375,-0.98785400390625,-0.01007080078125
1759689812693,877131576,23508,15,-0.0146484375,-1.00128173828125,-0.01910400390625
1759689812693,877131576,23508,16,-0.0166015625,-1.00079345703125,-0.04620361328125
1759689812693,877131576,23508,17,-0.0322265625,-0.99908447265625,-0.02789306640625
1759689812693,877131576,23508,18,0.0107421875,-1.00054931640625,-0.07012939453125
1759689812693,877131576,23508,19,-0.006591796875,-0.98614501953125,-0.04595947265625
1759689812693,877131576,23508,20,0.04541015625,-0.99078369140625,-0.07843017578125
1759689812693,877131576,23508,21,-0.038818359375,-1.03448486328125,-0.01202392578125
1759689812693,877131576,23508,22,-0.019775390625,-0.97369384765625,-0.03155517578125
1759689812693,877131576,23508,23,0.005126953125,-1.01373291015625,-0.03057861328125
1759689812693,877131576,23508,24,-0.0185546875,-1.00640869140625,-0.03570556640625
1759689812693,877131576,23508,25,-0.00439453125,-0.99249267578125,-0.03643798828125
1759689812693,877131576,23508,26,-0.009521484375,-1.00714111328125,-0.03863525390625
1759689812693,877131576,23508,27,-0.037353515625,-1.00738525390625,-0.00396728515625
1759689812693,877131576,23508,28,-0.04150390625,-0.98760986328125,0.00067138671875
1759689812693,877131576,23508,29,0.06396484375,-0.99542236328125,-0.12872314453125
1759689812693,877131576,23508,30,-0.047119140625,-1.00372314453125,0.01409912109375
1759689812693,877131576,23508,31,-0.001220703125,-1.00909423828125,-0.03228759765625
1759689815228,877134119,23509,0,0.011474609375,-0.98468017578125,-0.06060791015625
1759689815228,877134119,23509,1,-0.037353515625,-1.00469970703125,-0.02813720703125
1759689815228,877134119,23509,2,0.01220703125,-1.00152587890625,-0.05352783203125
1759689815228,877134119,23509,3,0.013916015625,-1.00299072265625,-0.05352783203125
1759689815228,877134119,23509,4,-0.005615234375,-1.01885986328125,-0.04400634765625
1759689815228,877134119,23509,5,0.02099609375,-0.98883056640625,-0.05938720703125
1759689815228,877134119,23509,6,-0.008056640625,-1.02178955078125,-0.01275634765625
1759689815228,877134119,23509,7,-0.041015625,-0.99346923828125,0.00653076171875
1759689815228,877134119,23509,8,-0.007568359375,-1.01763916015625,-0.03204345703125
1759689815228,877134119,23509,9,0.071044921875,-0.97979736328125,-0.09942626953125
1759689815228,877134119,23509,10,0.02880859375,-0.94732666015625,-0.00079345703125
1759689815228,877134119,23509,11,-0.1025390625,-1.08160400390625,0.04046630859375
1759689815228,877134119,23509,12,0.011962890625,-0.93853759765625,-0.01251220703125
1759689815228,877134119,23509,13,-0.008544921875,-1.01861572265625,-0.01422119140625
1759689815228,877134119,23509,14,-0.0048828125,-1.00811767578125,-0.01641845703125
1759689815228,877134119,23509,15,0.007568359375,-0.98565673828125,-0.02496337890625
1759689815228,877134119,23509,16,0.010498046875,-1.02813720703125,-6.103515625e-05
1759689815228,877134119,23509,17,-0.0390625,-1.01153564453125,0.03363037109375
1759689815228,877134119,23509,18,0.036865234375,-1.00762939453125,-0.03179931640625
1759689815228,877134119,23509,19,0.107421875,-0.92828369140625,-0.11676025390625
1759689815228,877134119,23509,20,-0.03662109375,-1.03057861328125,0.04803466796875
1759689815228,877134119,23509,21,-0.017578125,-1.01519775390625,-0.00079345703125
1759689815228,877134119,23509,22,0.01904296875,-0.96881103515625,-0.03839111328125
1759689815228,877134119,23509,23,-0.00390625,-1.02325439453125,-0.01812744140625
1759689815228,877134119,23509,24,-0.033203125,-1.01226806640625,-0.00250244140625
1759689815228,877134119,23509,25,0.00830078125,-1.00323486328125,-0.02203369140625
1759689815228,877134119,23509,26,-0.0009765625,-1.02105712890625,0.00921630859375
1759689815228,877134119,23509,27,-0.016845703125,-0.99395751953125,-0.00738525390625
1759689815228,877134119,23509,28,-0.038330078125,-0.99371337890625,0.02264404296875
1759689815228,877134119,23509,29,0.0400390625,-0.98663330078125,0.02215576171875
1759689815228,877134119,23509,30,0.051025390625,-0.96466064453125,-0.01983642578125
1759689815228,877134119,23509,31,-0.0234375,-0.99493408203125,-0.03228759765625
1759689817763,877136662,23510,0,-0.044189453125,-1.05523681640625,0.02874755859375
1759689817763,877136662,23510,1,0.04931640625,-0.94927978515625,0.01580810546875
1759689817763,877136662,23510,2,0.003173828125,-1.01446533203125,0.00360107421875
1759689817763,877136662,23510,3,0.027587890625,-1.01055908203125,-0.01397705078125
1759689817763,877136662,23510,4,0.024658203125,-0.99591064453125,-0.01373291015625
1759689817763,877136662,23510,5,0.020263671875,-1.01446533203125,0.00604248046875
1759689817763,877136662,23510,6,0.024658203125,-0.98297119140625,-0.01202392578125
1759689817763,877136662,23510,7,0.0078125,-1.00836181640625,0.00262451171875
1759689817763,877136662,23510,8,0.010498046875,-1.01055908203125,-0.01300048828125
1759689817763,877136662,23510,9,-0.023193359375,-1.02081298828125,0.02410888671875
1759689817763,877136662,23510,10,-0.060302734375,-1.00567626953125,-0.01470947265625
1759689817763,877136662,23510,11,0.00341796875,-0.96563720703125,0.02923583984375
1759689817763,877136662,23510,12,0.006591796875,-1.01861572265625,0.05609130859375
1759689817763,877136662,23510,13,-0.041259765625,-0.90972900390625,0.05096435546875
1759689817763,877136662,23510,14,-0.10009765625,-1.07965087890625,0.04974365234375
1759689817763,877136662,23510,15,-0.014892578125,-0.97125244140625,-0.02740478515625
1759689817763,877136662,23510,16,-0.05224609375,-1.01348876953125,0.03118896484375
1759689817763,877136662,23510,17,-0.0732421875,-1.01177978515625,0.02777099609375
1759689817763,877136662,23510,18,-0.051513671875,-1.00494384765625,0.01165771484375
1759689817763,877136662,23510,19,-0.05615234375,-1.00030517578125,0.01361083984375
1759689817763,877136662,23510,20,-0.050537109375,-0.98370361328125,-0.02056884765625
1759689817763,877136662,23510,21,-0.078857421875,-0.99273681640625,-0.02764892578125
1759689817763,877136662,23510,22,-0.052490234375,-0.98638916015625,-0.04766845703125
1759689817763,877136662,23510,23,-0.095947265625,-1.01007080078125,-0.04962158203125
1759689817763,877136662,23510,24,-0.03564453125,-0.98663330078125,-0.08575439453125
1759689817763,877136662,23510,25,-0.04345703125,-1.00982666015625,-0.04815673828125
1759689817763,877136662,23510,26,-0.08984375,-1.04742431640625,0.00921630859375
1759689817763,877136662,23510,27,-0.029052734375,-0.96051025390625,-0.04571533203125
1759689817763,877136662,23510,28,-0.007568359375,-1.01324462890625,-0.03424072265625
1759689817763,877136662,23510,29,-0.0166015625,-1.00494384765625,-0.03106689453125
1759689817763,877136662,23510,30,-0.01611328125,-0.99981689453125,-0.01788330078125
1759689817763,877136662,23510,31,-0.006103515625,-1.00787353515625,-0.03228759765625
1759689820495,877139205,23511,0,0.002197265625,-0.99322509765625,-0.03619384765625
1759689820495,877139205,23511,1,-0.04248046875,-1.01617431640625,0.01361083984375
1759689820495,877139205,23511,2,-0.05078125,-1.00567626953125,-0.00933837890625
1759689820495,877139205,23511,3,-0.03955078125,-1.01861572265625,-0.02349853515625
1759689820495,877139205,23511,4,0.05029296875,-0.91387939453125,-0.11090087890625
1759689820495,877139205,23511,5,-0.125244140625,-1.05548095703125,0.07415771484375
1759689820495,877139205,23511,6,0.00244140625,-1.00152587890625,-0.01690673828125
1759689820495,877139205,23511,7,-0.01171875,-0.98858642578125,-0.01837158203125
1759689820495,877139205,23511,8,-0.027587890625,-1.01568603515625,-0.01959228515625
1759689820495,877139205,23511,9,-0.023681640625,-0.99981689453125,-0.01446533203125
1759689820495,877139205,23511,10,-0.01171875,-0.99908447265625,-0.03106689453125
1759689820495,877139205,23511,11,-0.0419921875,-1.01617431640625,0.01824951171875
1759689820495,877139205,23511,12,-0.08740234375,-1.00421142578125,-0.02813720703125
1759689820495,877139205,23511,13,0.017578125,-0.98614501953125,-0.01495361328125
1759689820495,877139205,23511,14,0.059326171875,-0.99908447265625,-0.02813720703125
1759689820495,877139205,23511,15,-0.071533203125,-0.97296142578125,-0.01104736328125
1759689820495,877139205,23511,16,-0.0693359375,-1.04962158203125,0.00848388671875
1759689820495,877139205,23511,17,-0.011962890625,-0.97906494140625,-0.02984619140625
1759689820495,877139205,23511,18,-0.016845703125,-0.98297119140625,-0.04937744140625
1759689820495,877139205,23511,19,-0.061279296875,-1.03033447265625,-0.00567626953125
1759689820495,877139205,23511,20,-0.0126953125,-0.98175048828125,-0.00958251953125
1759689820495,877139205,23511,21,0.000244140625,-1.02520751953125,0.00311279296875
1759689820495,877139205,23511,22,0.006591796875,-0.96246337890625,-0.04034423828125
1759689820495,877139205,23511,23,-0.01611328125,-1.04571533203125,0.00335693359375
1759689820495,877139205,23511,24,-0.011474609375,-0.96685791015625,-0.03057861328125
1759689820495,877139205,23511,25,-0.025634765625,-1.03985595703125,0.00677490234375
1759689820495,877139205,23511,26,0.002197265625,-0.96856689453125,-0.02301025390625
1759689820495,877139205,23511,27,-0.0224609375,-1.02764892578125,-6.103515625e-05
1759689820495,877139205,23511,28,-0.001708984375,-0.97711181640625,-0.02276611328125
1759689820495,877139205,23511,29,-0.009033203125,-1.02130126953125,-0.00372314453125
1759689820495,877139205,23511,30,-0.035888671875,-0.99273681640625,0.04534912109375
1759689820495,877139205,23511,31,-0.0791015625,-1.03399658203125,-0.00177001953125
1759689822836,877141748,23512,0,0.1171875,-0.95758056640625,-0.12091064453125
1759689822836,877141748,23512,1,-0.062255859375,-1.03912353515625,0.08636474609375
1759689822836,877141748,23512,2,-0.042724609375,-0.97076416015625,0.02728271484375
1759689822836,877141748,23512,3,0.005859375,-0.99200439453125,-0.01007080078125
1759689822836,877141748,23512,4,-0.030517578125,-1.02178955078125,-0.01129150390625
1759689822836,877141748,23512,5,-0.029541015625,-0.99224853515625,0.02459716796875
1759689822836,877141748,23512,6,-0.04052734375,-0.99932861328125,0.00433349609375
1759689822836,877141748,23512,7,-0.0263671875,-1.00274658203125,0.02166748046875
1759689822836,877141748,23512,8,-0.04736328125,-1.00738525390625,0.01287841796875
1759689822836,877141748,23512,9,-0.00732421875,-0.98883056640625,-0.00469970703125
1759689822836,877141748,23512,10,-0.040771484375,-1.02398681640625,0.02825927734375
1759689822836,877141748,23512,11,-0.069091796875,-1.00274658203125,0.04559326171875
1759689822836,877141748,23512,12,0.027099609375,-0.99615478515625,-0.04693603515625
1759689822836,877141748,23512,13,0.0302734375,-0.96466064453125,0.00946044921875
1759689822836,877141748,23512,14,-0.06591796875,-1.02935791015625,0.03436279296875
1759689822836,877141748,23512,15,-0.023193359375,-0.99005126953125,-0.00128173828125
1759689822836,877141748,23512,16,-0.033935546875,-1.01690673828125,0.01629638671875
1759689822836,877141748,23512,17,-0.02001953125,-0.97955322265625,0.00506591796875
1759689822836,877141748,23512,18,-0.049072265625,-1.01129150390625,0.01287841796875
1759689822836,877141748,23512,19,-0.017822265625,-0.99224853515625,0.00482177734375
1759689822836,877141748,23512,20,-0.0146484375,-1.00445556640625,0.00067138671875
1759689822836,877141748,23512,21,-0.116455078125,-1.00030517578125,0.03997802734375
1759689822836,877141748,23512,22,0.045654296875,-0.96246337890625,-0.02398681640625
1759689822836,877141748,23512,23,-0.039794921875,-1.05328369140625,-0.03594970703125
1759689822836,877141748,23512,24,-0.012939453125,-1.00250244140625,-0.03472900390625
1759689822836,877141748,23512,25,-0.014404296875,-0.99273681640625,-0.02398681640625
1759689822836,877141748,23512,26,-0.01171875,-1.01373291015625,-0.01885986328125
1759689822836,877141748,23512,27,-0.021728515625,-0.98614501953125,-0.00714111328125
1759689822836,877141748,23512,28,-0.022216796875,-1.01153564453125,-0.00982666015625
1759689822836,877141748,23512,29,-0.02001953125,-0.99493408203125,-0.00079345703125
1759689822836,877141748,23512,30,-0.022216796875,-1.00494384765625,-0.00616455078125
1759689822836,877141748,23512,31,-0.031005859375,-0.98614501953125,0.02508544921875
1759689825371,877144291,23513,0,-0.083984375,-1.02813720703125,0.01092529296875
1759689825371,877144291,23513,1,0.0498046875,-0.98150634765625,-0.07208251953125
1759689825371,877144291,23513,2,-0.06591796875,-0.95391845703125,0.04779052734375
1759689825371,877144291,23513,3,-0.049072265625,-1.05670166015625,0.01434326171875
1759689825371,877144291,23513,4,-0.0126953125,-0.98394775390625,-0.01568603515625
1759689825371,877144291,23513,5,-0.033203125,-1.02935791015625,-0.01324462890625
1759689825371,877144291,23513,6,-0.0322265625,-0.98394775390625,-0.00982666015625
1759689825371,877144291,23513,7,-0.040283203125,-1.01031494140625,0.00067138671875
1759689825371,877144291,23513,8,-0.035400390625,-0.99835205078125,-0.00665283203125
1759689825371,877144291,23513,9,-0.025634765625,-0.99761962890625,-0.00469970703125
1759689825371,877144291,23513,10,-0.058837890625,-1.01739501953125,0.03240966796875
1759689825371,877144291,23513,11,-0.065185546875,-1.00689697265625,0.03485107421875
1759689825371,877144291,23513,12,0.003662109375,-0.96343994140625,-0.03594970703125
1759689825371,877144291,23513,13,0.025634765625,-0.98663330078125,0.02044677734375
1759689825371,877144291,23513,14,-0.1123046875,-1.02252197265625,0.02532958984375
1759689825371,877144291,23513,15,-0.041015625,-0.99981689453125,0.01922607421875
1759689825371,877144291,23513,16,-0.0302734375,-1.00787353515625,-0.00347900390625
1759689825371,877144291,23513,17,-0.04541015625,-1.00494384765625,0.03118896484375
1759689825371,877144291,23513,18,-0.017578125,-0.98175048828125,-0.00445556640625
1759689825371,877144291,23513,19,-0.034912109375,-1.02618408203125,0.02484130859375
1759689825371,877144291,23513,20,-0.020263671875,-0.97344970703125,-0.01373291015625
1759689825371,877144291,23513,21,-0.025390625,-1.02789306640625,0.01629638671875
1759689825371,877144291,23513,22,-0.013427734375,-1.01861572265625,0.03582763671875
1759689825371,877144291,23513,23,-0.076416015625,-0.98077392578125,0.01751708984375
1759689825371,877144291,23513,24,0.000732421875,-0.97564697265625,-0.03741455078125
1759689825371,877144291,23513,25,-0.003662109375,-1.02154541015625,0.06292724609375
1759689825371,877144291,23513,26,-0.054931640625,-0.98150634765625,0.00799560546875
1759689825371,877144291,23513,27,0.0048828125,-0.99835205078125,-0.02618408203125
1759689825371,877144291,23513,28,-0.018798828125,-1.03302001953125,-0.00982666015625
1759689825371,877144291,23513,29,-0.01416015625,-0.97857666015625,-0.00885009765625
1759689825371,877144291,23513,30,-0.025390625,-1.00811767578125,-0.00201416015625
1759689825371,877144291,23513,31,-0.01513671875,-1.00421142578125,-0.01324462890625
1759689827906,877146834,23514,0,-0.005615234375,-0.99566650390625,-0.02325439453125
1759689827906,877146834,23514,1,-0.03662109375,-1.01544189453125,-0.00225830078125
1759689827906,877146834,23514,2,-0.008056640625,-0.98419189453125,-0.02496337890625
1759689827906,877146834,23514,3,-0.0458984375,-1.04498291015625,0.03436279296875
1759689827906,877146834,23514,4,-0.015869140625,-0.96417236328125,-0.05352783203125
1759689827906,877146834,23514,5,-0.003173828125,-0.99127197265625,-0.02105712890625
1759689827906,877146834,23514,6,-0.01953125,-0.98345947265625,0.00579833984375
1759689827906,877146834,23514,7,-0.03466796875,-1.04302978515625,-0.00909423828125
1759689827906,877146834,23514,8,0.0068359375,-0.98272705078125,-0.04742431640625
1759689827906,877146834,23514,9,-0.018310546875,-1.02032470703125,-0.02716064453125
1759689827906,877146834,23514,10,-0.010498046875,-0.98736572265625,-0.02423095703125
1759689827906,877146834,23514,11,-0.01220703125,-1.01300048828125,-0.01470947265625
1759689827906,877146834,23514,12,-0.009765625,-0.99957275390625,-0.01983642578125
1759689827906,877146834,23514,13,-0.0087890625,-1.00152587890625,-0.01788330078125
1759689827906,877146834,23514,14,-0.0146484375,-1.02667236328125,0.02435302734375
1759689827906,877146834,23514,15,-0.052734375,-0.97100830078125,0.00018310546875
1759689827906,877146834,23514,16,0.017333984375,-0.99151611328125,-0.03570556640625
1759689827906,877146834,23514,17,-0.024658203125,-0.96636962890625,0.03143310546875
1759689827906,877146834,23514,18,-0.032470703125,-1.04595947265625,-0.01153564453125
1759689827906,877146834,23514,19,0.011962890625,-0.99420166015625,-0.05401611328125
1759689827906,877146834,23514,20,-0.02294921875,-1.02276611328125,-0.01397705078125
1759689827906,877146834,23514,21,0.000244140625,-0.97613525390625,-0.03765869140625
1759689827906,877146834,23514,22,-0.034912109375,-1.02301025390625,-0.01153564453125
1759689827906,877146834,23514,23,0.003662109375,-0.98516845703125,-0.04400634765625
1759689827906,877146834,23514,24,-0.018310546875,-1.02056884765625,-0.00787353515625
1759689827906,877146834,23514,25,0.001953125,-0.98809814453125,-0.02935791015625
1759689827906,877146834,23514,26,-0.010009765625,-1.00518798828125,-0.01690673828125
1759689827906,877146834,23514,27,-0.01513671875,-1.02325439453125,0.01141357421875
1759689827906,877146834,23514,28,-0.0576171875,-1.00640869140625,0.00531005859375
1759689827906,877146834,23514,29,0.02001953125,-0.96246337890625,-0.04620361328125
1759689827906,877146834,23514,30,0.057373046875,-1.00054931640625,-0.02667236328125
1759689827906,877146834,23514,31,-0.146484375,-1.01055908203125,0.06903076171875
1759689830441,877149377,23515,0,-0.027587890625,-0.99591064453125,0.01263427734375
1759689830441,877149377,23515,1,-0.005126953125,-0.99761962890625,-0.01397705078125
1759689830441,877149377,23515,2,-0.0458984375,-1.01715087890625,0.00775146484375
1759689830441,877149377,23515,3,-0.029541015625,-0.98248291015625,0.01654052734375
1759689830441,877149377,23515,4,-0.06201171875,-1.05352783203125,0.03802490234375
1759689830441,877149377,23515,5,-0.0673828125,-0.97833251953125,0.00970458984375
1759689830441,877149377,23515,6,0.006103515625,-0.94390869140625,-0.01593017578125
1759689830441,877149377,23515,7,-0.031982421875,-1.00299072265625,-0.02838134765625
1759689830441,877149377,23515,8,-0.09130859375,-1.01104736328125,0.03167724609375
1759689830441,877149377,23515,9,-0.033203125,-1.01007080078125,-0.01129150390625
1759689830441,877149377,23515,10,-0.010009765625,-0.98297119140625,-0.04425048828125
1759689830441,877149377,23515,11,-0.066650390625,-1.04449462890625,0.00750732421875
1759689830441,877149377,23515,12,-0.032958984375,-0.96514892578125,-0.02716064453125
1759689830441,877149377,23515,13,-0.05029296875,-1.04815673828125,0.00067138671875
1759689830441,877149377,23515,14,-0.017578125,-0.96588134765625,-0.01519775390625
1759689830441,877149377,23515,15,-0.037841796875,-1.02349853515625,0.01971435546875
1759689830441,877149377,23515,16,-0.067626953125,-1.03082275390625,0.06561279296875
1759689830441,877149377,23515,17,-0.0634765625,-1.00347900390625,0.01287841796875
1759689830441,877149377,23515,18,0.025634765625,-0.91534423828125,-0.07403564453125
1759689830441,877149377,23515,19,-0.072265625,-1.02960205078125,0.05584716796875
1759689830441,877149377,23515,20,-0.12353515625,-1.01812744140625,0.04266357421875
1759689830441,877149377,23515,21,-0.05419921875,-0.97564697265625,0.00311279296875
1759689830441,877149377,23515,22,-0.046142578125,-1.01153564453125,0.01116943359375
1759689830441,877149377,23515,23,-0.08837890625,-1.00885009765625,0.03240966796875
1759689830441,877149377,23515,24,-0.02783203125,-0.96807861328125,-0.00933837890625
1759689830441,877149377,23515,25,-0.080322265625,-1.03741455078125,0.05072021484375
1759689830441,877149377,23515,26,-0.0380859375,-0.96905517578125,0.00262451171875
1759689830441,877149377,23515,27,-0.04345703125,-1.02056884765625,0.02044677734375
1759689830441,877149377,23515,28,-0.0419921875,-0.99664306640625,0.02655029296875
1759689830441,877149377,23515,29,-0.049560546875,-0.99542236328125,0.00775146484375
1759689830441,877149377,23515,30,-0.04248046875,-1.03448486328125,0.03948974609375
1759689830441,877149377,23515,31,-0.108642578125,-0.99664306640625,0.06463623046875
1759689832976,877151920,23516,0,-0.053466796875,-0.95904541015625,0.00482177734375
1759689832976,877151920,23516,1,-0.034423828125,-0.95977783203125,-0.02081298828125
1759689832976,877151920,23516,2,-0.06005859375,-1.03277587890625,0.04437255859375
1759689832976,877151920,23516,3,-0.075439453125,-1.02252197265625,0.02703857421875
1759689832976,877151920,23516,4,-0.056640625,-0.98272705078125,0.00799560546875
1759689832976,877151920,23516,5,-0.06494140625,-1.00177001953125,-0.00518798828125
1759689832976,877151920,23516,6,-0.05859375,-0.99835205078125,0.03997802734375
1759689832976,877151920,23516,7,-0.062744140625,-1.00665283203125,0.02288818359375
1759689832976,877151920,23516,8,-0.061767578125,-1.02789306640625,0.03045654296875
1759689832976,877151920,23516,9,-0.081298828125,-1.00323486328125,-0.00738525390625
1759689832976,877151920,23516,10,-0.02783203125,-0.94219970703125,-0.04962158203125
1759689832976,877151920,23516,11,-0.014404296875,-0.99786376953125,-0.04058837890625
1759689832976,877151920,23516,12,-0.085693359375,-1.04913330078125,-0.00836181640625
1759689832976,877151920,23516,13,-0.0322265625,-0.98687744140625,-0.03350830078125
1759689832976,877151920,23516,14,-0.02294921875,-0.98077392578125,-0.05792236328125
1759689832976,877151920,23516,15,-0.041748046875,-1.02276611328125,-0.02984619140625
1759689832976,877151920,23516,16,-0.0234375,-0.99981689453125,-0.03985595703125
1759689832976,877151920,23516,17,-0.04052734375,-0.99761962890625,-0.02154541015625
1759689832976,877151920,23516,18,-0.033935546875,-1.02520751953125,-0.01959228515625
1759689832976,877151920,23516,19,-0.012451171875,-0.96612548828125,-0.05157470703125
1759689832976,877151920,23516,20,-0.02880859375,-1.03179931640625,-0.02398681640625
1759689832976,877151920,23516,21,-0.039306640625,-1.00860595703125,-0.00396728515625
1759689832976,877151920,23516,22,-0.072998046875,-0.98907470703125,-0.03106689453125
1759689832976,877151920,23516,23,0.015625,-0.95269775390625,-0.10992431640625
1759689832976,877151920,23516,24,-0.044677734375,-1.02325439453125,-0.04034423828125
1759689832976,877151920,23516,25,-0.0322265625,-1.01861572265625,-0.02447509765625
1759689832976,877151920,23516,26,0.0,-0.97467041015625,-0.06939697265625
1759689832976,877151920,23516,27,-0.012939453125,-1.02789306640625,-0.05426025390625
1759689832976,877151920,23516,28,-0.02197265625,-0.99566650390625,-0.04595947265625
1759689832976,877151920,23516,29,-0.00439453125,-0.99249267578125,-0.04205322265625
1759689832976,877151920,23516,30,-0.042236328125,-1.02496337890625,-0.02105712890625
1759689832976,877151920,23516,31,-0.020263671875,-0.97467041015625,-0.04205322265625
1759689835511,877154463,23517,0,-0.02392578125,-1.03863525390625,-0.01422119140625
1759689835511,877154463,23517,1,-0.10498046875,-1.03277587890625,0.02288818359375
1759689835511,877154463,23517,2,-0.020751953125,-0.98248291015625,-0.05987548828125
1759689835511,877154463,23517,3,0.01416015625,-0.92095947265625,-0.10943603515625
1759689835511,877154463,23517,4,-0.117919921875,-1.04376220703125,0.03460693359375
1759689835511,877154463,23517,5,-0.041015625,-0.99664306640625,-0.01593017578125
1759689835511,877154463,23517,6,-0.03662109375,-0.99127197265625,-0.03277587890625
1759689835511,877154463,23517,7,-0.065185546875,-1.02154541015625,-0.01226806640625
1759689835511,877154463,23517,8,-0.02294921875,-1.00274658203125,-0.02227783203125
1759689835511,877154463,23517,9,-0.013427734375,-0.99395751953125,-0.01348876953125
1759689835511,877154463,23517,10,-0.0341796875,-1.02960205078125,-0.02227783203125
1759689835511,877154463,23517,11,-0.03662109375,-0.98150634765625,0.00579833984375
1759689835511,877154463,23517,12,-0.0322265625,-0.99029541015625,0.02874755859375
1759689835511,877154463,23517,13,-0.050537109375,-0.98712158203125,-0.04010009765625
1759689835511,877154463,23517,14,-0.03125,-0.98150634765625,-0.00225830078125
1759689835511,877154463,23517,15,-0.0166015625,-1.04449462890625,-0.03350830078125
1759689835511,877154463,23517,16,-0.033447265625,-0.98809814453125,-0.03985595703125
1759689835511,877154463,23517,17,0.00830078125,-0.99713134765625,-0.04693603515625
1759689835511,877154463,23517,18,-0.035400390625,-1.02862548828125,-0.00469970703125
1759689835511,877154463,23517,19,-0.027099609375,-0.96661376953125,-0.03155517578125
1759689835511,877154463,23517,20,-0.015869140625,-1.03765869140625,-0.00323486328125
1759689835511,877154463,23517,21,-0.021240234375,-0.97027587890625,-0.00982666015625
1759689835511,877154463,23517,22,-0.01318359375,-1.01593017578125,-0.01007080078125
1759689835511,877154463,23517,23,-0.046142578125,-1.00054931640625,0.01141357421875
1759689835511,877154463,23517,24,-0.0126953125,-0.99005126953125,-0.01080322265625
1759689835511,877154463,23517,25,-0.058349609375,-1.02569580078125,0.01556396484375
1759689835511,877154463,23517,26,-0.021728515625,-0.99468994140625,0.02703857421875
1759689835511,877154463,23517,27,-0.134521484375,-1.02813720703125,0.06512451171875
1759689835511,877154463,23517,28,0.0,-0.94561767578125,-0.07232666015625
1759689835511,877154463,23517,29,0.080078125,-0.98199462890625,-0.08135986328125
1759689835511,877154463,23517,30,-0.12548828125,-1.02960205078125,0.01678466796875
1759689835511,877154463,23517,31,0.00732421875,-1.00396728515625,-0.00836181640625
1759689838045,877157006,23518,0,-0.005859375,-0.98956298828125,-0.04302978515625
1759689838045,877157006,23518,1,-0.019287109375,-1.02447509765625,-0.02667236328125
1759689838045,877157006,23518,2,0.017822265625,-0.98541259765625,-0.04302978515625
1759689838045,877157006,23518,3,-0.018310546875,-1.02276611328125,-0.01519775390625
1759689838045,877157006,23518,4,0.003173828125,-0.98419189453125,-0.03790283203125
1759689838045,877157006,23518,5,-0.006103515625,-1.01031494140625,-0.01837158203125
1759689838045,877157006,23518,6,0.00048828125,-1.01641845703125,-0.02130126953125
1759689838045,877157006,23518,7,-0.038818359375,-0.99737548828125,-0.01007080078125
1759689838045,877157006,23518,8,-0.0576171875,-0.96636962890625,-0.02227783203125
1759689838045,877157006,23518,9,-0.00048828125,-1.00103759765625,-0.09967041015625
1759689838045,877157006,23518,10,-0.095458984375,-1.02008056640625,0.02191162109375
1759689838045,877157006,23518,11,-0.059814453125,-1.00225830078125,0.00653076171875
1759689838045,877157006,23518,12,-0.0029296875,-0.99615478515625,-0.04254150390625
1759689838045,877157006,23518,13,-0.034423828125,-1.01666259765625,-0.03594970703125
1759689838045,877157006,23518,14,-0.00537109375,-0.98834228515625,-0.05621337890625
1759689838045,877157006,23518,15,-0.01611328125,-1.01348876953125,-0.04156494140625
1759689838045,877157006,23518,16,-0.004150390625,-1.01275634765625,-0.04302978515625
1759689838045,877157006,23518,17,-0.02734375,-0.99859619140625,-0.03692626953125
1759689838045,877157006,23518,18,-0.0400390625,-0.99810791015625,-0.07745361328125
1759689838045,877157006,23518,19,-0.02880859375,-0.97198486328125,-0.11773681640625
1759689838045,877157006,23518,20,-0.07666015625,-1.01422119140625,0.00140380859375
1759689838045,877157006,23518,21,-0.050048828125,-0.99835205078125,-0.03790283203125
1759689838045,877157006,23518,22,-0.017578125,-0.99517822265625,-0.07647705078125
1759689838045,877157006,23518,23,-0.032470703125,-1.02227783203125,-0.04937744140625
1759689838045,877157006,23518,24,-0.015380859375,-0.99176025390625,-0.04815673828125
1759689838045,877157006,23518,25,-0.04150390625,-1.03277587890625,-0.01470947265625
1759689838045,877157006,23518,26,-0.052490234375,-1.01959228515625,-0.04693603515625
1759689838045,877157006,23518,27,-0.0107421875,-0.97393798828125,-0.06158447265625
1759689838045,877157006,23518,28,-0.04833984375,-0.95660400390625,-0.02886962890625
1759689838045,877157006,23518,29,-0.066650390625,-0.99713134765625,-0.05572509765625
