receivedPhoneTimestamp,respeckTimestamp,packetSeqNum,sampleSeqNum,accelX,accelY,accelZ
1759867168849,1054894010,20086,0,0.206787109375,-0.82208251953125,-0.60211181640625
1759867168849,1054894010,20086,1,0.173583984375,-0.79913330078125,-0.60064697265625
1759867168849,1054894010,20086,2,0.168212890625,-0.79058837890625,-0.56842041015625
1759867168849,1054894010,20086,3,0.16845703125,-0.82427978515625,-0.59796142578125
1759867168849,1054894010,20086,4,0.16064453125,-0.81817626953125,-0.60992431640625
1759867168849,1054894010,20086,5,0.1640625,-0.81231689453125,-0.59967041015625
1759867168849,1054894010,20086,6,0.141845703125,-0.82745361328125,-0.60845947265625
1759867168849,1054894010,20086,7,0.155029296875,-0.79156494140625,-0.60552978515625
1759867168849,1054894010,20086,8,0.150390625,-0.79693603515625,-0.61627197265625
1759867168849,1054894010,20086,9,0.13671875,-0.83013916015625,-0.63653564453125
1759867168849,1054894010,20086,10,0.136474609375,-0.79107666015625,-0.59893798828125
1759867168849,1054894010,20086,11,0.1796875,-0.78009033203125,-0.64752197265625
1759867168849,1054894010,20086,12,0.13037109375,-0.78668212890625,-0.64971923828125
1759867168849,1054894010,20086,13,0.127685546875,-0.80572509765625,-0.61138916015625
1759867168849,1054894010,20086,14,0.093994140625,-0.80303955078125,-0.57110595703125
1759867168849,1054894010,20086,15,0.09814453125,-0.82623291015625,-0.64605712890625
1759867168849,1054894010,20086,16,0.121337890625,-0.81036376953125,-0.65655517578125
1759867168849,1054894010,20086,17,0.120361328125,-0.77325439453125,-0.63800048828125
1759867168849,1054894010,20086,18,0.1064453125,-0.77423095703125,-0.65631103515625
1759867168849,1054894010,20086,19,0.122314453125,-0.77276611328125,-0.65509033203125
1759867168849,1054894010,20086,20,0.127197265625,-0.76983642578125,-0.64898681640625
1759867168849,1054894010,20086,21,0.12158203125,-0.78179931640625,-0.64093017578125
1759867168849,1054894010,20086,22,0.125732421875,-0.79791259765625,-0.64898681640625
1759867168849,1054894010,20086,23,0.134765625,-0.78057861328125,-0.64874267578125
1759867168849,1054894010,20086,24,0.1396484375,-0.78106689453125,-0.63653564453125
1759867168849,1054894010,20086,25,0.1435546875,-0.77374267578125,-0.64044189453125
1759867168849,1054894010,20086,26,0.144775390625,-0.77569580078125,-0.63897705078125
1759867168849,1054894010,20086,27,0.144775390625,-0.78546142578125,-0.63629150390625
1759867168849,1054894010,20086,28,0.150390625,-0.79547119140625,-0.63800048828125
1759867168849,1054894010,20086,29,0.141357421875,-0.78961181640625,-0.64190673828125
1759867168849,1054894010,20086,30,0.150390625,-0.77496337890625,-0.64410400390625
1759867168849,1054894010,20086,31,0.15869140625,-0.78155517578125,-0.64703369140625
1759867171425,1054896529,20087,0,0.1220703125,-0.76983642578125,-0.62750244140625
1759867171425,1054896529,20087,1,0.13623046875,-0.79620361328125,-0.63531494140625
1759867171425,1054896529,20087,2,0.16845703125,-0.79205322265625,-0.64141845703125
1759867171425,1054896529,20087,3,0.163330078125,-0.79449462890625,-0.63677978515625
1759867171425,1054896529,20087,4,0.1357421875,-0.79766845703125,-0.64971923828125
1759867171425,1054896529,20087,5,0.14697265625,-0.77960205078125,-0.64727783203125
1759867171425,1054896529,20087,6,0.149169921875,-0.77227783203125,-0.64581298828125
1759867171425,1054896529,20087,7,0.170654296875,-0.76568603515625,-0.64776611328125
1759867171425,1054896529,20087,8,0.1748046875,-0.75518798828125,-0.63800048828125
1759867171425,1054896529,20087,9,0.160888671875,-0.79278564453125,-0.63287353515625
1759867171425,1054896529,20087,10,0.160888671875,-0.80084228515625,-0.63385009765625
1759867171425,1054896529,20087,11,0.171875,-0.78497314453125,-0.62725830078125
1759867171425,1054896529,20087,12,0.19482421875,-0.77618408203125,-0.63043212890625
1759867171425,1054896529,20087,13,0.197998046875,-0.77032470703125,-0.62554931640625
1759867171425,1054896529,20087,14,0.189208984375,-0.78155517578125,-0.62579345703125
1759867171425,1054896529,20087,15,0.189697265625,-0.78497314453125,-0.61993408203125
1759867171425,1054896529,20087,16,0.186279296875,-0.78521728515625,-0.61895751953125
1759867171425,1054896529,20087,17,0.18701171875,-0.80108642578125,-0.62213134765625
1759867171425,1054896529,20087,18,0.17724609375,-0.80548095703125,-0.62677001953125
1759867171425,1054896529,20087,19,0.164794921875,-0.79376220703125,-0.62408447265625
1759867171425,1054896529,20087,20,0.161865234375,-0.78717041015625,-0.62481689453125
1759867171425,1054896529,20087,21,0.160400390625,-0.77813720703125,-0.61602783203125
1759867171425,1054896529,20087,22,0.156494140625,-0.79620361328125,-0.61578369140625
1759867171425,1054896529,20087,23,0.15380859375,-0.79254150390625,-0.60333251953125
1759867171425,1054896529,20087,24,0.135498046875,-0.85943603515625,-0.61407470703125
1759867171425,1054896529,20087,25,0.12646484375,-0.83331298828125,-0.62042236328125
1759867171425,1054896529,20087,26,0.151123046875,-0.78375244140625,-0.62579345703125
1759867171425,1054896529,20087,27,0.109375,-0.78961181640625,-0.61334228515625
1759867171425,1054896529,20087,28,0.099365234375,-0.80181884765625,-0.60723876953125
1759867171425,1054896529,20087,29,0.126953125,-0.80767822265625,-0.60675048828125
1759867171425,1054896529,20087,30,0.119140625,-0.83233642578125,-0.61187744140625
1759867171425,1054896529,20087,31,0.11669921875,-0.85821533203125,-0.62872314453125
1759867173817,1054899048,20088,0,0.1171875,-0.82525634765625,-0.61065673828125
1759867173817,1054899048,20088,1,0.115478515625,-0.78033447265625,-0.60089111328125
1759867173817,1054899048,20088,2,0.125,-0.80279541015625,-0.63287353515625
1759867173817,1054899048,20088,3,0.107421875,-0.77838134765625,-0.59942626953125
1759867173817,1054899048,20088,4,0.119873046875,-0.80596923828125,-0.61456298828125
1759867173817,1054899048,20088,5,0.15283203125,-0.83087158203125,-0.61871337890625
1759867173817,1054899048,20088,6,0.147705078125,-0.84088134765625,-0.63922119140625
1759867173817,1054899048,20088,7,0.152099609375,-0.79132080078125,-0.61260986328125
1759867173817,1054899048,20088,8,0.1748046875,-0.74005126953125,-0.65875244140625
1759867173817,1054899048,20088,9,0.162841796875,-0.82916259765625,-0.57061767578125
1759867173817,1054899048,20088,10,0.173828125,-0.82110595703125,-0.58404541015625
1759867173817,1054899048,20088,11,0.16064453125,-0.79254150390625,-0.58770751953125
1759867173817,1054899048,20088,12,0.177001953125,-0.80474853515625,-0.59136962890625
1759867173817,1054899048,20088,13,0.178955078125,-0.84307861328125,-0.61578369140625
1759867173817,1054899048,20088,14,0.163818359375,-0.82720947265625,-0.59405517578125
1759867173817,1054899048,20088,15,0.177490234375,-0.76666259765625,-0.63555908203125
1759867173817,1054899048,20088,16,0.156005859375,-0.75469970703125,-0.59698486328125
1759867173817,1054899048,20088,17,0.142333984375,-0.81402587890625,-0.57623291015625
1759867173817,1054899048,20088,18,0.15185546875,-0.87725830078125,-0.63238525390625
1759867173817,1054899048,20088,19,0.191650390625,-0.77667236328125,-0.60943603515625
1759867173817,1054899048,20088,20,0.148681640625,-0.81060791015625,-0.60357666015625
1759867173817,1054899048,20088,21,0.166015625,-0.83697509765625,-0.64019775390625
1759867173817,1054899048,20088,22,0.150634765625,-0.75714111328125,-0.56915283203125
1759867173817,1054899048,20088,23,0.144287109375,-0.81842041015625,-0.59527587890625
1759867173817,1054899048,20088,24,0.16845703125,-0.85089111328125,-0.60943603515625
1759867173817,1054899048,20088,25,0.139404296875,-0.80743408203125,-0.58331298828125
1759867173817,1054899048,20088,26,0.14501953125,-0.82086181640625,-0.61138916015625
1759867173817,1054899048,20088,27,0.148681640625,-0.81378173828125,-0.62554931640625
1759867173817,1054899048,20088,28,0.139404296875,-0.80694580078125,-0.61602783203125
1759867173817,1054899048,20088,29,0.134033203125,-0.78692626953125,-0.60772705078125
1759867173817,1054899048,20088,30,0.1181640625,-0.79693603515625,-0.61920166015625
1759867173817,1054899048,20088,31,0.11865234375,-0.79669189453125,-0.59527587890625
1759867176401,1054901567,20089,0,0.109130859375,-0.86822509765625,-0.60943603515625
1759867176401,1054901567,20089,1,0.127197265625,-0.86016845703125,-0.63458251953125
1759867176401,1054901567,20089,2,0.124755859375,-0.80450439453125,-0.60430908203125
1759867176401,1054901567,20089,3,0.131103515625,-0.79913330078125,-0.61773681640625
1759867176401,1054901567,20089,4,0.10888671875,-0.78424072265625,-0.55963134765625
1759867176401,1054901567,20089,5,0.101806640625,-0.84112548828125,-0.57427978515625
1759867176401,1054901567,20089,6,0.143798828125,-0.86798095703125,-0.57598876953125
1759867176401,1054901567,20089,7,0.11865234375,-0.87725830078125,-0.58990478515625
1759867176401,1054901567,20089,8,0.15283203125,-0.84381103515625,-0.58282470703125
1759867176401,1054901567,20089,9,0.15380859375,-0.82330322265625,-0.60113525390625
1759867176401,1054901567,20089,10,0.154052734375,-0.78863525390625,-0.56890869140625
1759867176401,1054901567,20089,11,0.14404296875,-0.81060791015625,-0.54718017578125
1759867176401,1054901567,20089,12,0.158447265625,-0.83990478515625,-0.55889892578125
1759867176401,1054901567,20089,13,0.159912109375,-0.87896728515625,-0.57720947265625
1759867176401,1054901567,20089,14,0.1533203125,-0.87091064453125,-0.60382080078125
1759867176401,1054901567,20089,15,0.14794921875,-0.78594970703125,-0.57916259765625
1759867176401,1054901567,20089,16,0.10693359375,-0.80987548828125,-0.59112548828125
1759867176401,1054901567,20089,17,0.1181640625,-0.82476806640625,-0.59942626953125
1759867176401,1054901567,20089,18,0.1240234375,-0.79522705078125,-0.56085205078125
1759867176401,1054901567,20089,19,0.146728515625,-0.88092041015625,-0.58599853515625
1759867176401,1054901567,20089,20,0.143798828125,-0.85333251953125,-0.63140869140625
1759867176401,1054901567,20089,21,0.1103515625,-0.79327392578125,-0.58135986328125
1759867176401,1054901567,20089,22,0.1142578125,-0.79547119140625,-0.60821533203125
1759867176401,1054901567,20089,23,0.12744140625,-0.82452392578125,-0.61334228515625
1759867176401,1054901567,20089,24,0.132080078125,-0.80352783203125,-0.59136962890625
1759867176401,1054901567,20089,25,0.14892578125,-0.82672119140625,-0.57183837890625
1759867176401,1054901567,20089,26,0.164306640625,-0.91485595703125,-0.61041259765625
1759867176401,1054901567,20089,27,0.12744140625,-0.82427978515625,-0.57452392578125
1759867176401,1054901567,20089,28,0.1201171875,-0.77349853515625,-0.55377197265625
1759867176401,1054901567,20089,29,0.125732421875,-0.81768798828125,-0.60284423828125
1759867176401,1054901567,20089,30,0.127685546875,-0.78839111328125,-0.58062744140625
1759867176401,1054901567,20089,31,0.1455078125,-0.83648681640625,-0.55889892578125
1759867178985,1054904086,20090,0,0.171875,-0.91412353515625,-0.64263916015625
1759867178985,1054904086,20090,1,0.107177734375,-0.83306884765625,-0.58697509765625
1759867178985,1054904086,20090,2,0.122314453125,-0.80694580078125,-0.60137939453125
1759867178985,1054904086,20090,3,0.142822265625,-0.79888916015625,-0.63262939453125
1759867178985,1054904086,20090,4,0.138671875,-0.77008056640625,-0.61114501953125
1759867178985,1054904086,20090,5,0.136474609375,-0.78057861328125,-0.56890869140625
1759867178985,1054904086,20090,6,0.148681640625,-0.89434814453125,-0.62872314453125
1759867178985,1054904086,20090,7,0.151123046875,-0.84088134765625,-0.63555908203125
1759867178985,1054904086,20090,8,0.151123046875,-0.74810791015625,-0.59722900390625
1759867178985,1054904086,20090,9,0.16748046875,-0.75689697265625,-0.60626220703125
1759867178985,1054904086,20090,10,0.15673828125,-0.78619384765625,-0.60382080078125
1759867178985,1054904086,20090,11,0.153076171875,-0.78521728515625,-0.59405517578125
1759867178985,1054904086,20090,12,0.146240234375,-0.86993408203125,-0.60357666015625
1759867178985,1054904086,20090,13,0.14892578125,-0.86822509765625,-0.62823486328125
1759867178985,1054904086,20090,14,0.138671875,-0.79962158203125,-0.61163330078125
1759867178985,1054904086,20090,15,0.131591796875,-0.78424072265625,-0.60552978515625
1759867178985,1054904086,20090,16,0.100830078125,-0.77764892578125,-0.58111572265625
1759867178985,1054904086,20090,17,0.107421875,-0.80450439453125,-0.58892822265625
1759867178985,1054904086,20090,18,0.125732421875,-0.89825439453125,-0.63409423828125
1759867178985,1054904086,20090,19,0.09375,-0.84869384765625,-0.63751220703125
1759867178985,1054904086,20090,20,0.102783203125,-0.79864501953125,-0.59576416015625
1759867178985,1054904086,20090,21,0.12744140625,-0.80841064453125,-0.59918212890625
1759867178985,1054904086,20090,22,0.11669921875,-0.81280517578125,-0.59356689453125
1759867178985,1054904086,20090,23,0.10546875,-0.81378173828125,-0.56817626953125
1759867178985,1054904086,20090,24,0.13427734375,-0.82232666015625,-0.59429931640625
1759867178985,1054904086,20090,25,0.16064453125,-0.86602783203125,-0.59942626953125
1759867178985,1054904086,20090,26,0.155029296875,-0.87017822265625,-0.60284423828125
1759867178985,1054904086,20090,27,0.14599609375,-0.80694580078125,-0.58111572265625
1759867178985,1054904086,20090,28,0.13916015625,-0.78839111328125,-0.58673095703125
1759867178985,1054904086,20090,29,0.142578125,-0.79840087890625,-0.57965087890625
1759867178985,1054904086,20090,30,0.1484375,-0.79669189453125,-0.59674072265625
1759867178985,1054904086,20090,31,0.1640625,-0.81011962890625,-0.59967041015625
1759867181569,1054906605,20091,0,0.154296875,-0.84869384765625,-0.59967041015625
1759867181569,1054906605,20091,1,0.164794921875,-0.84088134765625,-0.61651611328125
1759867181569,1054906605,20091,2,0.168212890625,-0.80621337890625,-0.60943603515625
1759867181569,1054906605,20091,3,0.1640625,-0.77691650390625,-0.60797119140625
1759867181569,1054906605,20091,4,0.16064453125,-0.75836181640625,-0.60113525390625
1759867181569,1054906605,20091,5,0.15673828125,-0.81573486328125,-0.57818603515625
1759867181569,1054906605,20091,6,0.195556640625,-0.87896728515625,-0.65802001953125
1759867181569,1054906605,20091,7,0.163330078125,-0.80059814453125,-0.59747314453125
1759867181569,1054906605,20091,8,0.16455078125,-0.77423095703125,-0.58184814453125
1759867181569,1054906605,20091,9,0.164794921875,-0.80255126953125,-0.62384033203125
1759867181569,1054906605,20091,10,0.15380859375,-0.77178955078125,-0.60723876953125
1759867181569,1054906605,20091,11,0.16015625,-0.76715087890625,-0.60479736328125
1759867181569,1054906605,20091,12,0.143310546875,-0.85504150390625,-0.57843017578125
1759867181569,1054906605,20091,13,0.166259765625,-0.87164306640625,-0.69171142578125
1759867181569,1054906605,20091,14,0.15966796875,-0.79058837890625,-0.59405517578125
1759867181569,1054906605,20091,15,0.1416015625,-0.75665283203125,-0.60137939453125
1759867181569,1054906605,20091,16,0.157958984375,-0.78326416015625,-0.60772705078125
1759867181569,1054906605,20091,17,0.15283203125,-0.77471923828125,-0.58648681640625
1759867181569,1054906605,20091,18,0.15673828125,-0.83306884765625,-0.57647705078125
1759867181569,1054906605,20091,19,0.182373046875,-0.88922119140625,-0.65411376953125
1759867181569,1054906605,20091,20,0.1435546875,-0.79718017578125,-0.58477783203125
1759867181569,1054906605,20091,21,0.159912109375,-0.78375244140625,-0.60430908203125
1759867181569,1054906605,20091,22,0.1689453125,-0.80816650390625,-0.63043212890625
1759867181569,1054906605,20091,23,0.13330078125,-0.78399658203125,-0.59014892578125
1759867181569,1054906605,20091,24,0.121337890625,-0.79278564453125,-0.56451416015625
1759867181569,1054906605,20091,25,0.15576171875,-0.89849853515625,-0.62432861328125
1759867181569,1054906605,20091,26,0.145751953125,-0.85040283203125,-0.62335205078125
1759867181569,1054906605,20091,27,0.108154296875,-0.79351806640625,-0.57110595703125
1759867181569,1054906605,20091,28,0.13427734375,-0.79254150390625,-0.61456298828125
1759867181569,1054906605,20091,29,0.10400390625,-0.79278564453125,-0.59771728515625
1759867181569,1054906605,20091,30,0.082763671875,-0.77740478515625,-0.55523681640625
1759867181569,1054906605,20091,31,0.13818359375,-0.91363525390625,-0.63385009765625
1759867183955,1054909124,20092,0,0.12060546875,-0.88067626953125,-0.63873291015625
1759867183955,1054909124,20092,1,0.115478515625,-0.80084228515625,-0.59210205078125
1759867183955,1054909124,20092,2,0.109619140625,-0.79083251953125,-0.58331298828125
1759867183955,1054909124,20092,3,0.115478515625,-0.81646728515625,-0.59381103515625
1759867183955,1054909124,20092,4,0.11181640625,-0.82086181640625,-0.57305908203125
1759867183955,1054909124,20092,5,0.1376953125,-0.84063720703125,-0.57916259765625
1759867183955,1054909124,20092,6,0.1396484375,-0.88507080078125,-0.59405517578125
1759867183955,1054909124,20092,7,0.13134765625,-0.85235595703125,-0.58233642578125
1759867183955,1054909124,20092,8,0.118408203125,-0.80694580078125,-0.56304931640625
1759867183955,1054909124,20092,9,0.130615234375,-0.81719970703125,-0.57623291015625
1759867183955,1054909124,20092,10,0.124267578125,-0.80767822265625,-0.57183837890625
1759867183955,1054909124,20092,11,0.134033203125,-0.82037353515625,-0.54644775390625
1759867183955,1054909124,20092,12,0.14794921875,-0.89532470703125,-0.60382080078125
1759867183955,1054909124,20092,13,0.14111328125,-0.85943603515625,-0.59039306640625
1759867183955,1054909124,20092,14,0.15478515625,-0.82598876953125,-0.57818603515625
1759867183955,1054909124,20092,15,0.160888671875,-0.80181884765625,-0.60040283203125
1759867183955,1054909124,20092,16,0.1611328125,-0.77813720703125,-0.58575439453125
1759867183955,1054909124,20092,17,0.175048828125,-0.79913330078125,-0.56988525390625
1759867183955,1054909124,20092,18,0.1865234375,-0.83013916015625,-0.60284423828125
1759867183955,1054909124,20092,19,0.22412109375,-0.82110595703125,-0.62896728515625
1759867183955,1054909124,20092,20,0.175537109375,-0.80352783203125,-0.55718994140625
1759867183955,1054909124,20092,21,0.20068359375,-0.84600830078125,-0.63555908203125
1759867183955,1054909124,20092,22,0.1787109375,-0.77154541015625,-0.57574462890625
1759867183955,1054909124,20092,23,0.1845703125,-0.76959228515625,-0.59063720703125
1759867183955,1054909124,20092,24,0.189453125,-0.79351806640625,-0.57916259765625
1759867183955,1054909124,20092,25,0.19140625,-0.83575439453125,-0.58282470703125
1759867183955,1054909124,20092,26,0.173095703125,-0.86285400390625,-0.63653564453125
1759867183955,1054909124,20092,27,0.1826171875,-0.81256103515625,-0.60211181640625
1759867183955,1054909124,20092,28,0.162841796875,-0.78912353515625,-0.60943603515625
1759867183955,1054909124,20092,29,0.17578125,-0.78302001953125,-0.61309814453125
1759867183955,1054909124,20092,30,0.15380859375,-0.78155517578125,-0.58233642578125
1759867183955,1054909124,20092,31,0.175537109375,-0.81964111328125,-0.60211181640625
1759867186538,1054911637,20093,0,0.176025390625,-0.83038330078125,-0.60455322265625
1759867186538,1054911637,20093,1,0.165771484375,-0.84674072265625,-0.60357666015625
1759867186538,1054911637,20093,2,0.189208984375,-0.80767822265625,-0.62261962890625
1759867186538,1054911637,20093,3,0.1669921875,-0.77130126953125,-0.60333251953125
1759867186538,1054911637,20093,4,0.1572265625,-0.78106689453125,-0.59918212890625
1759867186538,1054911637,20093,5,0.161865234375,-0.78570556640625,-0.59161376953125
1759867186538,1054911637,20093,6,0.177978515625,-0.84259033203125,-0.61529541015625
1759867186538,1054911637,20093,7,0.149169921875,-0.87139892578125,-0.62652587890625
1759867186538,1054911637,20093,8,0.11962890625,-0.82379150390625,-0.61114501953125
1759867186538,1054911637,20093,9,0.093994140625,-0.80133056640625,-0.61090087890625
1759867186538,1054911637,20093,10,0.13330078125,-0.78033447265625,-0.59747314453125
1759867186538,1054911637,20093,11,0.10546875,-0.80767822265625,-0.53448486328125
1759867186538,1054911637,20093,12,0.1484375,-0.86651611328125,-0.60650634765625
1759867186538,1054911637,20093,13,0.075927734375,-0.84552001953125,-0.55328369140625
1759867186538,1054911637,20093,14,0.117431640625,-0.87799072265625,-0.62823486328125
1759867186538,1054911637,20093,15,0.12646484375,-0.82183837890625,-0.60235595703125
1759867186538,1054911637,20093,16,0.123291015625,-0.79351806640625,-0.58380126953125
1759867186538,1054911637,20093,17,0.1181640625,-0.84503173828125,-0.57061767578125
1759867186538,1054911637,20093,18,0.118896484375,-0.84332275390625,-0.55499267578125
1759867186538,1054911637,20093,19,0.1318359375,-0.87042236328125,-0.57012939453125
1759867186538,1054911637,20093,20,0.1220703125,-0.86724853515625,-0.54669189453125
1759867186538,1054911637,20093,21,0.145751953125,-0.84185791015625,-0.57867431640625
1759867186538,1054911637,20093,22,0.148681640625,-0.81256103515625,-0.57452392578125
1759867186538,1054911637,20093,23,0.137939453125,-0.81353759765625,-0.56109619140625
1759867186538,1054911637,20093,24,0.16162109375,-0.83282470703125,-0.56964111328125
1759867186538,1054911637,20093,25,0.169677734375,-0.80841064453125,-0.58502197265625
1759867186538,1054911637,20093,26,0.195556640625,-0.85162353515625,-0.58575439453125
1759867186538,1054911637,20093,27,0.217041015625,-0.84136962890625,-0.63165283203125
1759867186538,1054911637,20093,28,0.19873046875,-0.74688720703125,-0.58673095703125
1759867186538,1054911637,20093,29,0.186767578125,-0.76593017578125,-0.58038330078125
1759867186538,1054911637,20093,30,0.21875,-0.81256103515625,-0.61895751953125
1759867186538,1054911637,20093,31,0.197265625,-0.78912353515625,-0.59283447265625
1759867189124,1054914156,20094,0,0.20068359375,-0.82452392578125,-0.61798095703125
1759867189124,1054914156,20094,1,0.208984375,-0.81182861328125,-0.63482666015625
1759867189124,1054914156,20094,2,0.1884765625,-0.77520751953125,-0.60479736328125
1759867189124,1054914156,20094,3,0.191650390625,-0.77813720703125,-0.62042236328125
1759867189124,1054914156,20094,4,0.185546875,-0.78326416015625,-0.60113525390625
1759867189124,1054914156,20094,5,0.188232421875,-0.80645751953125,-0.61676025390625
1759867189124,1054914156,20094,6,0.157470703125,-0.80352783203125,-0.59283447265625
1759867189124,1054914156,20094,7,0.17822265625,-0.83453369140625,-0.60699462890625
1759867189124,1054914156,20094,8,0.16455078125,-0.83697509765625,-0.62652587890625
1759867189124,1054914156,20094,9,0.150634765625,-0.80108642578125,-0.60797119140625
1759867189124,1054914156,20094,10,0.156494140625,-0.78839111328125,-0.60626220703125
1759867189124,1054914156,20094,11,0.1533203125,-0.79400634765625,-0.58746337890625
1759867189124,1054914156,20094,12,0.17138671875,-0.80718994140625,-0.59210205078125
1759867189124,1054914156,20094,13,0.150146484375,-0.80108642578125,-0.58355712890625
1759867189124,1054914156,20094,14,0.159912109375,-0.86041259765625,-0.60626220703125
1759867189124,1054914156,20094,15,0.192138671875,-0.85943603515625,-0.64825439453125
1759867189124,1054914156,20094,16,0.137939453125,-0.79693603515625,-0.59454345703125
1759867189124,1054914156,20094,17,0.107177734375,-0.76666259765625,-0.56280517578125
1759867189124,1054914156,20094,18,0.14111328125,-0.80694580078125,-0.57525634765625
1759867189124,1054914156,20094,19,0.149658203125,-0.83624267578125,-0.58599853515625
1759867189124,1054914156,20094,20,0.12890625,-0.86212158203125,-0.56280517578125
1759867189124,1054914156,20094,21,0.15966796875,-0.89337158203125,-0.62384033203125
1759867189124,1054914156,20094,22,0.12744140625,-0.83502197265625,-0.57794189453125
1759867189124,1054914156,20094,23,0.121337890625,-0.80084228515625,-0.58380126953125
1759867189124,1054914156,20094,24,0.13232421875,-0.80401611328125,-0.57403564453125
1759867189124,1054914156,20094,25,0.146484375,-0.82672119140625,-0.56134033203125
1759867189124,1054914156,20094,26,0.125732421875,-0.86505126953125,-0.55816650390625
1759867189124,1054914156,20094,27,0.146240234375,-0.92462158203125,-0.56475830078125
1759867189124,1054914156,20094,28,0.148681640625,-0.82574462890625,-0.58502197265625
1759867189124,1054914156,20094,29,0.156005859375,-0.79254150390625,-0.60113525390625
1759867189124,1054914156,20094,30,0.156005859375,-0.78839111328125,-0.58648681640625
1759867189124,1054914156,20094,31,0.16357421875,-0.79229736328125,-0.56304931640625
1759867191508,1054916675,20095,0,0.1787109375,-0.81793212890625,-0.58428955078125
1759867191508,1054916675,20095,1,0.176513671875,-0.83551025390625,-0.57916259765625
1759867191508,1054916675,20095,2,0.21337890625,-0.87017822265625,-0.63360595703125
1759867191508,1054916675,20095,3,0.193603515625,-0.79327392578125,-0.60455322265625
1759867191508,1054916675,20095,4,0.173583984375,-0.74664306640625,-0.59771728515625
1759867191508,1054916675,20095,5,0.163818359375,-0.78204345703125,-0.57647705078125
1759867191508,1054916675,20095,6,0.183837890625,-0.81915283203125,-0.58477783203125
1759867191508,1054916675,20095,7,0.1923828125,-0.84527587890625,-0.60162353515625
1759867191508,1054916675,20095,8,0.183349609375,-0.85626220703125,-0.62213134765625
1759867191508,1054916675,20095,9,0.1748046875,-0.78863525390625,-0.60626220703125
1759867191508,1054916675,20095,10,0.18701171875,-0.76959228515625,-0.61822509765625
1759867191508,1054916675,20095,11,0.176513671875,-0.77056884765625,-0.60748291015625
1759867191508,1054916675,20095,12,0.176025390625,-0.78765869140625,-0.59967041015625
1759867191508,1054916675,20095,13,0.186767578125,-0.81256103515625,-0.61187744140625
1759867191508,1054916675,20095,14,0.202880859375,-0.84307861328125,-0.62506103515625
1759867191508,1054916675,20095,15,0.20361328125,-0.80841064453125,-0.63140869140625
1759867191508,1054916675,20095,16,0.1845703125,-0.76470947265625,-0.60943603515625
1759867191508,1054916675,20095,17,0.17919921875,-0.76470947265625,-0.60064697265625
1759867191508,1054916675,20095,18,0.19482421875,-0.78546142578125,-0.58184814453125
1759867191508,1054916675,20095,19,0.199462890625,-0.84161376953125,-0.60040283203125
1759867191508,1054916675,20095,20,0.1875,-0.85504150390625,-0.60235595703125
1759867191508,1054916675,20095,21,0.1650390625,-0.86260986328125,-0.58746337890625
1759867191508,1054916675,20095,22,0.177978515625,-0.78619384765625,-0.60284423828125
1759867191508,1054916675,20095,23,0.166259765625,-0.74932861328125,-0.59967041015625
1759867191508,1054916675,20095,24,0.148193359375,-0.80206298828125,-0.56695556640625
1759867191508,1054916675,20095,25,0.156005859375,-0.82159423828125,-0.57110595703125
1759867191508,1054916675,20095,26,0.16552734375,-0.87677001953125,-0.59210205078125
1759867191508,1054916675,20095,27,0.134521484375,-0.86944580078125,-0.58428955078125
1759867191508,1054916675,20095,28,0.138427734375,-0.83746337890625,-0.57867431640625
1759867191508,1054916675,20095,29,0.14453125,-0.80279541015625,-0.58551025390625
1759867191508,1054916675,20095,30,0.121826171875,-0.80792236328125,-0.57183837890625
1759867191508,1054916675,20095,31,0.152587890625,-0.81964111328125,-0.57379150390625
1759867194090,1054919194,20096,0,0.137451171875,-0.85675048828125,-0.55596923828125
1759867194090,1054919194,20096,1,0.13818359375,-0.89532470703125,-0.57501220703125
1759867194090,1054919194,20096,2,0.1494140625,-0.85430908203125,-0.56890869140625
1759867194090,1054919194,20096,3,0.13525390625,-0.81915283203125,-0.55914306640625
1759867194090,1054919194,20096,4,0.15380859375,-0.82012939453125,-0.58013916015625
1759867194090,1054919194,20096,5,0.13037109375,-0.81085205078125,-0.55865478515625
1759867194090,1054919194,20096,6,0.13525390625,-0.81329345703125,-0.54791259765625
1759867194090,1054919194,20096,7,0.142578125,-0.89752197265625,-0.58526611328125
1759867194090,1054919194,20096,8,0.15234375,-0.86871337890625,-0.59307861328125
1759867194090,1054919194,20096,9,0.135009765625,-0.80108642578125,-0.57452392578125
1759867194090,1054919194,20096,10,0.142333984375,-0.81719970703125,-0.58795166015625
1759867194090,1054919194,20096,11,0.119384765625,-0.81304931640625,-0.55010986328125
1759867194090,1054919194,20096,12,0.1435546875,-0.85162353515625,-0.55059814453125
1759867194090,1054919194,20096,13,0.161376953125,-0.89971923828125,-0.60821533203125
1759867194090,1054919194,20096,14,0.148193359375,-0.82843017578125,-0.55670166015625
1759867194090,1054919194,20096,15,0.15673828125,-0.80548095703125,-0.57598876953125
1759867194090,1054919194,20096,16,0.14697265625,-0.80230712890625,-0.58062744140625
1759867194090,1054919194,20096,17,0.142822265625,-0.80499267578125,-0.56646728515625
1759867194090,1054919194,20096,18,0.170166015625,-0.86627197265625,-0.59088134765625
1759867194090,1054919194,20096,19,0.158447265625,-0.86553955078125,-0.60308837890625
1759867194090,1054919194,20096,20,0.1591796875,-0.81304931640625,-0.58428955078125
1759867194090,1054919194,20096,21,0.165771484375,-0.80328369140625,-0.59112548828125
1759867194090,1054919194,20096,22,0.183837890625,-0.80645751953125,-0.59259033203125
1759867194090,1054919194,20096,23,0.165771484375,-0.81280517578125,-0.55279541015625
1759867194090,1054919194,20096,24,0.160400390625,-0.82379150390625,-0.54669189453125
1759867194090,1054919194,20096,25,0.218994140625,-0.90826416015625,-0.60894775390625
1759867194090,1054919194,20096,26,0.171142578125,-0.83624267578125,-0.56060791015625
1759867194090,1054919194,20096,27,0.193359375,-0.81036376953125,-0.55816650390625
1759867194090,1054919194,20096,28,0.194580078125,-0.80499267578125,-0.57012939453125
1759867194090,1054919194,20096,29,0.1904296875,-0.80670166015625,-0.54766845703125
1759867194090,1054919194,20096,30,0.174560546875,-0.84234619140625,-0.51690673828125
1759867194090,1054919194,20096,31,0.254638671875,-0.88800048828125,-0.59796142578125
1759867196675,1054921713,20097,0,0.20703125,-0.84259033203125,-0.55035400390625
1759867196675,1054921713,20097,1,0.211669921875,-0.81597900390625,-0.55499267578125
1759867196675,1054921713,20097,2,0.211181640625,-0.80426025390625,-0.56402587890625
1759867196675,1054921713,20097,3,0.1689453125,-0.79962158203125,-0.54913330078125
1759867196675,1054921713,20097,4,0.16259765625,-0.82257080078125,-0.53790283203125
1759867196675,1054921713,20097,5,0.226318359375,-0.89410400390625,-0.62115478515625
1759867196675,1054921713,20097,6,0.142822265625,-0.83160400390625,-0.57330322265625
1759867196675,1054921713,20097,7,0.13623046875,-0.82623291015625,-0.56158447265625
1759867196675,1054921713,20097,8,0.167724609375,-0.83184814453125,-0.60015869140625
1759867196675,1054921713,20097,9,0.15625,-0.81304931640625,-0.57574462890625
1759867196675,1054921713,20097,10,0.15234375,-0.82696533203125,-0.57550048828125
1759867196675,1054921713,20097,11,0.15673828125,-0.82232666015625,-0.57403564453125
1759867196675,1054921713,20097,12,0.151123046875,-0.80670166015625,-0.57550048828125
1759867196675,1054921713,20097,13,0.147705078125,-0.86016845703125,-0.58990478515625
1759867196675,1054921713,20097,14,0.144287109375,-0.85113525390625,-0.59161376953125
1759867196675,1054921713,20097,15,0.14501953125,-0.82159423828125,-0.59600830078125
1759867196675,1054921713,20097,16,0.127685546875,-0.80279541015625,-0.59893798828125
1759867196675,1054921713,20097,17,0.134033203125,-0.79962158203125,-0.61480712890625
1759867196675,1054921713,20097,18,0.11474609375,-0.80206298828125,-0.57672119140625
1759867196675,1054921713,20097,19,0.13916015625,-0.86553955078125,-0.59967041015625
1759867196675,1054921713,20097,20,0.1455078125,-0.85382080078125,-0.62701416015625
1759867196675,1054921713,20097,21,0.154296875,-0.78228759765625,-0.58453369140625
1759867196675,1054921713,20097,22,0.16796875,-0.79888916015625,-0.62237548828125
