receivedPhoneTimestamp,respeckTimestamp,packetSeqNum,sampleSeqNum,accelX,accelY,accelZ
1759942120799,1043791706,8327,14,-0.219970703125,-0.31842041015625,-0.96295166015625
1759942120799,1043791706,8327,15,-0.21923828125,-0.31744384765625,-0.96221923828125
1759942120799,1043791706,8327,16,-0.21533203125,-0.31402587890625,-0.96466064453125
1759942120799,1043791706,8327,17,-0.21826171875,-0.31939697265625,-0.96319580078125
1759942120799,1043791706,8327,18,-0.2177734375,-0.32379150390625,-0.96368408203125
1759942120799,1043791706,8327,19,-0.218994140625,-0.32061767578125,-0.96905517578125
1759942120799,1043791706,8327,20,-0.22021484375,-0.32330322265625,-0.96466064453125
1759942120799,1043791706,8327,21,-0.218505859375,-0.32623291015625,-0.96392822265625
1759942120799,1043791706,8327,22,-0.215576171875,-0.32159423828125,-0.95831298828125
1759942120799,1043791706,8327,23,-0.216552734375,-0.32379150390625,-0.97003173828125
1759942120799,1043791706,8327,24,-0.215576171875,-0.32769775390625,-0.97003173828125
1759942120799,1043791706,8327,25,-0.21484375,-0.32403564453125,-0.95806884765625
1759942120799,1043791706,8327,26,-0.21484375,-0.32623291015625,-0.97003173828125
1759942120799,1043791706,8327,27,-0.21435546875,-0.32818603515625,-0.96148681640625
1759942120799,1043791706,8327,28,-0.215087890625,-0.32672119140625,-0.95977783203125
1759942120799,1043791706,8327,29,-0.21630859375,-0.32745361328125,-0.96563720703125
1759942120799,1043791706,8327,30,-0.214111328125,-0.33038330078125,-0.96441650390625
1759942120799,1043791706,8327,31,-0.212646484375,-0.32598876953125,-0.95831298828125
1759942123347,1043794279,8328,0,-0.216064453125,-0.32818603515625,-0.96685791015625
1759942123347,1043794279,8328,1,-0.21484375,-0.32623291015625,-0.96392822265625
1759942123347,1043794279,8328,2,-0.21484375,-0.32843017578125,-0.96246337890625
1759942123347,1043794279,8328,3,-0.21435546875,-0.32647705078125,-0.96881103515625
1759942123347,1043794279,8328,4,-0.2158203125,-0.32720947265625,-0.96710205078125
1759942123347,1043794279,8328,5,-0.215087890625,-0.32257080078125,-0.95343017578125
1759942123347,1043794279,8328,6,-0.216064453125,-0.33233642578125,-0.97393798828125
1759942123347,1043794279,8328,7,-0.215087890625,-0.33624267578125,-0.96612548828125
1759942123347,1043794279,8328,8,-0.211669921875,-0.33258056640625,-0.95465087890625
1759942123347,1043794279,8328,9,-0.213623046875,-0.33233642578125,-0.97027587890625
1759942123347,1043794279,8328,10,-0.216064453125,-0.32574462890625,-0.96197509765625
1759942123347,1043794279,8328,11,-0.213623046875,-0.32818603515625,-0.95806884765625
1759942123347,1043794279,8328,12,-0.21533203125,-0.32843017578125,-0.97027587890625
1759942123347,1043794279,8328,13,-0.212890625,-0.32476806640625,-0.95709228515625
1759942123347,1043794279,8328,14,-0.21337890625,-0.32916259765625,-0.96539306640625
1759942123347,1043794279,8328,15,-0.215576171875,-0.32598876953125,-0.96710205078125
1759942123347,1043794279,8328,16,-0.21484375,-0.32598876953125,-0.96466064453125
1759942123347,1043794279,8328,17,-0.214111328125,-0.32794189453125,-0.96051025390625
1759942123347,1043794279,8328,18,-0.215087890625,-0.32623291015625,-0.96343994140625
1759942123347,1043794279,8328,19,-0.216552734375,-0.32745361328125,-0.96124267578125
1759942123347,1043794279,8328,20,-0.21484375,-0.32476806640625,-0.96246337890625
1759942123347,1043794279,8328,21,-0.21728515625,-0.32623291015625,-0.96441650390625
1759942123347,1043794279,8328,22,-0.2138671875,-0.32818603515625,-0.96710205078125
1759942123347,1043794279,8328,23,-0.2158203125,-0.32818603515625,-0.96319580078125
1759942123347,1043794279,8328,24,-0.214599609375,-0.32672119140625,-0.95587158203125
1759942123347,1043794279,8328,25,-0.213134765625,-0.33306884765625,-0.97003173828125
1759942123347,1043794279,8328,26,-0.21142578125,-0.32867431640625,-0.96539306640625
1759942123347,1043794279,8328,27,-0.2138671875,-0.32867431640625,-0.95904541015625
1759942123347,1043794279,8328,28,-0.212890625,-0.33184814453125,-0.95977783203125
1759942123347,1043794279,8328,29,-0.213623046875,-0.32989501953125,-0.96343994140625
1759942123347,1043794279,8328,30,-0.213134765625,-0.33135986328125,-0.95904541015625
1759942123347,1043794279,8328,31,-0.2158203125,-0.33135986328125,-0.96807861328125
1759942125900,1043796852,8329,0,-0.2138671875,-0.32940673828125,-0.96563720703125
1759942125900,1043796852,8329,1,-0.212158203125,-0.32330322265625,-0.94781494140625
1759942125900,1043796852,8329,2,-0.213134765625,-0.34014892578125,-0.98126220703125
1759942125900,1043796852,8329,3,-0.21240234375,-0.33331298828125,-0.95465087890625
1759942125900,1043796852,8329,4,-0.2138671875,-0.33502197265625,-0.94561767578125
1759942125900,1043796852,8329,5,-0.216064453125,-0.33624267578125,-0.97735595703125
1759942125900,1043796852,8329,6,-0.214111328125,-0.33526611328125,-0.96026611328125
1759942125900,1043796852,8329,7,-0.213623046875,-0.33062744140625,-0.95904541015625
1759942125900,1043796852,8329,8,-0.215576171875,-0.33258056640625,-0.96905517578125
1759942125900,1043796852,8329,9,-0.21240234375,-0.33502197265625,-0.95611572265625
1759942125900,1043796852,8329,10,-0.2109375,-0.32989501953125,-0.95318603515625
1759942125900,1043796852,8329,11,-0.2158203125,-0.33697509765625,-0.97491455078125
1759942125900,1043796852,8329,12,-0.216064453125,-0.33062744140625,-0.96075439453125
1759942125900,1043796852,8329,13,-0.212646484375,-0.33087158203125,-0.95489501953125
1759942125900,1043796852,8329,14,-0.2158203125,-0.33770751953125,-0.97149658203125
1759942125900,1043796852,8329,15,-0.21337890625,-0.33282470703125,-0.95538330078125
1759942125900,1043796852,8329,16,-0.214111328125,-0.32965087890625,-0.96221923828125
1759942125900,1043796852,8329,17,-0.215087890625,-0.32916259765625,-0.97100830078125
1759942125900,1043796852,8329,18,-0.2138671875,-0.33209228515625,-0.96832275390625
1759942125900,1043796852,8329,19,-0.21240234375,-0.34527587890625,-0.96148681640625
1759942125900,1043796852,8329,20,-0.213623046875,-0.34429931640625,-0.94879150390625
1759942125900,1043796852,8329,21,-0.212890625,-0.34576416015625,-0.96392822265625
1759942125900,1043796852,8329,22,-0.212158203125,-0.34527587890625,-0.95196533203125
1759942125900,1043796852,8329,23,-0.215087890625,-0.33746337890625,-0.95684814453125
1759942125900,1043796852,8329,24,-0.215576171875,-0.34039306640625,-0.96978759765625
1759942125900,1043796852,8329,25,-0.2158203125,-0.33428955078125,-0.96514892578125
1759942125900,1043796852,8329,26,-0.211669921875,-0.33062744140625,-0.96368408203125
1759942125900,1043796852,8329,27,-0.204833984375,-0.33599853515625,-0.96319580078125
1759942125900,1043796852,8329,28,-0.199951171875,-0.33843994140625,-0.95001220703125
1759942125900,1043796852,8329,29,-0.206298828125,-0.33990478515625,-0.96685791015625
1759942125900,1043796852,8329,30,-0.207275390625,-0.34600830078125,-0.96856689453125
1759942125900,1043796852,8329,31,-0.205810546875,-0.33184814453125,-0.96490478515625
1759942128448,1043799425,8330,0,-0.209716796875,-0.33404541015625,-0.96319580078125
1759942128448,1043799425,8330,1,-0.209716796875,-0.32867431640625,-0.95562744140625
1759942128448,1043799425,8330,2,-0.20703125,-0.33282470703125,-0.95245361328125
1759942128448,1043799425,8330,3,-0.2109375,-0.33233642578125,-0.96978759765625
1759942128448,1043799425,8330,4,-0.209228515625,-0.33599853515625,-0.97491455078125
1759942128448,1043799425,8330,5,-0.210693359375,-0.33477783203125,-0.96417236328125
1759942128448,1043799425,8330,6,-0.21142578125,-0.33428955078125,-0.96783447265625
1759942128448,1043799425,8330,7,-0.212158203125,-0.33477783203125,-0.96588134765625
1759942128448,1043799425,8330,8,-0.21044921875,-0.32965087890625,-0.95538330078125
1759942128448,1043799425,8330,9,-0.2119140625,-0.33428955078125,-0.96612548828125
1759942128448,1043799425,8330,10,-0.21337890625,-0.33795166015625,-0.97344970703125
1759942128448,1043799425,8330,11,-0.21044921875,-0.33013916015625,-0.95294189453125
1759942128448,1043799425,8330,12,-0.21484375,-0.33502197265625,-0.96221923828125
1759942128448,1043799425,8330,13,-0.21337890625,-0.33404541015625,-0.96734619140625
1759942128448,1043799425,8330,14,-0.2119140625,-0.33331298828125,-0.95806884765625
1759942128448,1043799425,8330,15,-0.207763671875,-0.33477783203125,-0.96051025390625
1759942128448,1043799425,8330,16,-0.209716796875,-0.32989501953125,-0.96514892578125
1759942128448,1043799425,8330,17,-0.20947265625,-0.33135986328125,-0.95391845703125
1759942128448,1043799425,8330,18,-0.212646484375,-0.33453369140625,-0.96759033203125
1759942128448,1043799425,8330,19,-0.21240234375,-0.33453369140625,-0.96954345703125
1759942128448,1043799425,8330,20,-0.212158203125,-0.33258056640625,-0.96124267578125
1759942128448,1043799425,8330,21,-0.208984375,-0.33355712890625,-0.95904541015625
1759942128448,1043799425,8330,22,-0.21142578125,-0.33380126953125,-0.97174072265625
1759942128448,1043799425,8330,23,-0.212158203125,-0.33477783203125,-0.95880126953125
1759942128448,1043799425,8330,24,-0.21044921875,-0.33306884765625,-0.96246337890625
1759942128448,1043799425,8330,25,-0.2109375,-0.33624267578125,-0.95953369140625
1759942128448,1043799425,8330,26,-0.21142578125,-0.33282470703125,-0.96856689453125
1759942128448,1043799425,8330,27,-0.21337890625,-0.33380126953125,-0.95684814453125
1759942128448,1043799425,8330,28,-0.21337890625,-0.33551025390625,-0.97100830078125
1759942128448,1043799425,8330,29,-0.211669921875,-0.33502197265625,-0.95489501953125
1759942128448,1043799425,8330,30,-0.2119140625,-0.33233642578125,-0.96002197265625
1759942128448,1043799425,8330,31,-0.21337890625,-0.33306884765625,-0.96759033203125
1759942130999,1043801999,8331,0,-0.21142578125,-0.33477783203125,-0.95904541015625
1759942130999,1043801999,8331,1,-0.211181640625,-0.33306884765625,-0.96490478515625
1759942130999,1043801999,8331,2,-0.210693359375,-0.33380126953125,-0.96343994140625
1759942130999,1043801999,8331,3,-0.212646484375,-0.33477783203125,-0.96685791015625
1759942130999,1043801999,8331,4,-0.210205078125,-0.33306884765625,-0.95806884765625
1759942130999,1043801999,8331,5,-0.21142578125,-0.33428955078125,-0.96173095703125
1759942130999,1043801999,8331,6,-0.213623046875,-0.33526611328125,-0.95684814453125
1759942130999,1043801999,8331,7,-0.2138671875,-0.34039306640625,-0.97247314453125
1759942130999,1043801999,8331,8,-0.208740234375,-0.34185791015625,-0.95440673828125
1759942130999,1043801999,8331,9,-0.2109375,-0.33624267578125,-0.96221923828125
1759942130999,1043801999,8331,10,-0.2099609375,-0.34185791015625,-0.96368408203125
1759942130999,1043801999,8331,11,-0.20947265625,-0.34552001953125,-0.95733642578125
1759942130999,1043801999,8331,12,-0.209716796875,-0.34088134765625,-0.95367431640625
1759942130999,1043801999,8331,13,-0.211669921875,-0.35040283203125,-0.97344970703125
1759942130999,1043801999,8331,14,-0.207275390625,-0.34185791015625,-0.95025634765625
1759942130999,1043801999,8331,15,-0.20703125,-0.34600830078125,-0.95709228515625
1759942130999,1043801999,8331,16,-0.2109375,-0.34844970703125,-0.96661376953125
1759942130999,1043801999,8331,17,-0.211669921875,-0.34893798828125,-0.95538330078125
1759942130999,1043801999,8331,18,-0.208984375,-0.34600830078125,-0.95269775390625
1759942130999,1043801999,8331,19,-0.213134765625,-0.34918212890625,-0.96441650390625
1759942130999,1043801999,8331,20,-0.20849609375,-0.34674072265625,-0.95709228515625
1759942130999,1043801999,8331,21,-0.20947265625,-0.34576416015625,-0.95904541015625
1759942130999,1043801999,8331,22,-0.208984375,-0.35064697265625,-0.96539306640625
1759942130999,1043801999,8331,23,-0.207275390625,-0.34771728515625,-0.95440673828125
1759942130999,1043801999,8331,24,-0.209228515625,-0.34576416015625,-0.95416259765625
1759942130999,1043801999,8331,25,-0.208251953125,-0.35211181640625,-0.97174072265625
1759942130999,1043801999,8331,26,-0.20361328125,-0.34649658203125,-0.95025634765625
1759942130999,1043801999,8331,27,-0.2080078125,-0.35406494140625,-0.96246337890625
1759942130999,1043801999,8331,28,-0.208740234375,-0.35455322265625,-0.96441650390625
1759942130999,1043801999,8331,29,-0.207275390625,-0.35040283203125,-0.95684814453125
1759942130999,1043801999,8331,30,-0.2099609375,-0.34942626953125,-0.96392822265625
1759942130999,1043801999,8331,31,-0.208740234375,-0.35382080078125,-0.96636962890625
1759942133698,1043804572,8332,0,-0.20654296875,-0.34820556640625,-0.95220947265625
1759942133698,1043804572,8332,1,-0.208984375,-0.35113525390625,-0.96246337890625
1759942133698,1043804572,8332,2,-0.207275390625,-0.35382080078125,-0.96148681640625
1759942133698,1043804572,8332,3,-0.20703125,-0.35455322265625,-0.95587158203125
1759942133698,1043804572,8332,4,-0.20654296875,-0.35650634765625,-0.96710205078125
1759942133698,1043804572,8332,5,-0.205810546875,-0.35430908203125,-0.95611572265625
1759942133698,1043804572,8332,6,-0.20556640625,-0.35260009765625,-0.95318603515625
1759942133698,1043804572,8332,7,-0.206298828125,-0.35235595703125,-0.96514892578125
1759942133698,1043804572,8332,8,-0.20654296875,-0.35186767578125,-0.95635986328125
1759942133698,1043804572,8332,9,-0.2060546875,-0.35479736328125,-0.95904541015625
1759942133698,1043804572,8332,10,-0.203125,-0.35211181640625,-0.96075439453125
1759942133698,1043804572,8332,11,-0.204833984375,-0.35137939453125,-0.95098876953125
1759942133698,1043804572,8332,12,-0.20458984375,-0.35260009765625,-0.96197509765625
1759942133698,1043804572,8332,13,-0.204833984375,-0.35211181640625,-0.96148681640625
1759942133698,1043804572,8332,14,-0.20654296875,-0.35357666015625,-0.95440673828125
1759942133698,1043804572,8332,15,-0.20751953125,-0.35015869140625,-0.95758056640625
1759942133698,1043804572,8332,16,-0.20703125,-0.35333251953125,-0.96441650390625
1759942133698,1043804572,8332,17,-0.207763671875,-0.35235595703125,-0.96319580078125
1759942133698,1043804572,8332,18,-0.20654296875,-0.35504150390625,-0.94781494140625
1759942133698,1043804572,8332,19,-0.20849609375,-0.35504150390625,-0.96075439453125
1759942133698,1043804572,8332,20,-0.208251953125,-0.35186767578125,-0.95489501953125
1759942133698,1043804572,8332,21,-0.208740234375,-0.34991455078125,-0.96148681640625
1759942133698,1043804572,8332,22,-0.203369140625,-0.36309814453125,-0.95953369140625
1759942133698,1043804572,8332,23,-0.19921875,-0.36212158203125,-0.95050048828125
1759942133698,1043804572,8332,24,-0.200439453125,-0.36578369140625,-0.95782470703125
1759942133698,1043804572,8332,25,-0.19970703125,-0.36260986328125,-0.95440673828125
1759942133698,1043804572,8332,26,-0.198974609375,-0.36651611328125,-0.95098876953125
1759942133698,1043804572,8332,27,-0.2001953125,-0.36798095703125,-0.96099853515625
1759942133698,1043804572,8332,28,-0.19970703125,-0.37091064453125,-0.96343994140625
1759942133698,1043804572,8332,29,-0.199462890625,-0.36334228515625,-0.94635009765625
1759942133698,1043804572,8332,30,-0.201416015625,-0.36407470703125,-0.95684814453125
1759942133698,1043804572,8332,31,-0.200439453125,-0.37335205078125,-0.96636962890625
1759942136251,1043807145,8333,0,-0.20166015625,-0.36505126953125,-0.94366455078125
1759942136251,1043807145,8333,1,-0.200439453125,-0.36236572265625,-0.95611572265625
1759942136251,1043807145,8333,2,-0.202880859375,-0.36065673828125,-0.95294189453125
1759942136251,1043807145,8333,3,-0.2021484375,-0.36431884765625,-0.95587158203125
1759942136251,1043807145,8333,4,-0.202880859375,-0.36480712890625,-0.95416259765625
1759942136251,1043807145,8333,5,-0.203369140625,-0.36309814453125,-0.95684814453125
1759942136251,1043807145,8333,6,-0.205810546875,-0.36456298828125,-0.95416259765625
1759942136251,1043807145,8333,7,-0.203369140625,-0.36798095703125,-0.95513916015625
1759942136251,1043807145,8333,8,-0.199951171875,-0.36627197265625,-0.95635986328125
1759942136251,1043807145,8333,9,-0.203369140625,-0.36090087890625,-0.94927978515625
1759942136251,1043807145,8333,10,-0.20361328125,-0.36627197265625,-0.95806884765625
1759942136251,1043807145,8333,11,-0.20166015625,-0.36505126953125,-0.96002197265625
1759942136251,1043807145,8333,12,-0.20361328125,-0.36236572265625,-0.94732666015625
1759942136251,1043807145,8333,13,-0.201171875,-0.36407470703125,-0.95587158203125
1759942136251,1043807145,8333,14,-0.2041015625,-0.37554931640625,-0.96612548828125
1759942136251,1043807145,8333,15,-0.20263671875,-0.37091064453125,-0.95440673828125
1759942136251,1043807145,8333,16,-0.198974609375,-0.36798095703125,-0.95709228515625
1759942136251,1043807145,8333,17,-0.2001953125,-0.37042236328125,-0.95294189453125
1759942136251,1043807145,8333,18,-0.20263671875,-0.36822509765625,-0.95440673828125
1759942136251,1043807145,8333,19,-0.19970703125,-0.36700439453125,-0.95904541015625
1759942136251,1043807145,8333,20,-0.200927734375,-0.36553955078125,-0.95489501953125
1759942136251,1043807145,8333,21,-0.20458984375,-0.36676025390625,-0.95123291015625
1759942136251,1043807145,8333,22,-0.19921875,-0.36578369140625,-0.95977783203125
1759942136251,1043807145,8333,23,-0.198486328125,-0.36480712890625,-0.94952392578125
1759942136251,1043807145,8333,24,-0.200439453125,-0.36724853515625,-0.95318603515625
1759942136251,1043807145,8333,25,-0.20068359375,-0.37115478515625,-0.95684814453125
1759942136251,1043807145,8333,26,-0.19775390625,-0.37603759765625,-0.95025634765625
1759942136251,1043807145,8333,27,-0.19921875,-0.37359619140625,-0.94586181640625
1759942136251,1043807145,8333,28,-0.199951171875,-0.37286376953125,-0.95538330078125
1759942136251,1043807145,8333,29,-0.200927734375,-0.37115478515625,-0.95294189453125
1759942136251,1043807145,8333,30,-0.1982421875,-0.37408447265625,-0.95050048828125
1759942136251,1043807145,8333,31,-0.2021484375,-0.37432861328125,-0.96319580078125
1759942138802,1043809718,8334,0,-0.204345703125,-0.37261962890625,-0.95294189453125
1759942138802,1043809718,8334,1,-0.204345703125,-0.36798095703125,-0.94708251953125
1759942138802,1043809718,8334,2,-0.20556640625,-0.36212158203125,-0.96124267578125
1759942138802,1043809718,8334,3,-0.201171875,-0.36236572265625,-0.95928955078125
1759942138802,1043809718,8334,4,-0.20166015625,-0.36480712890625,-0.95025634765625
1759942138802,1043809718,8334,5,-0.19921875,-0.36651611328125,-0.95172119140625
1759942138802,1043809718,8334,6,-0.198974609375,-0.36309814453125,-0.96124267578125
1759942138802,1043809718,8334,7,-0.199462890625,-0.35821533203125,-0.95660400390625
1759942138802,1043809718,8334,8,-0.203125,-0.35894775390625,-0.95733642578125
1759942138802,1043809718,8334,9,-0.20166015625,-0.35455322265625,-0.96124267578125
1759942138802,1043809718,8334,10,-0.203857421875,-0.35479736328125,-0.96661376953125
1759942138802,1043809718,8334,11,-0.20068359375,-0.35235595703125,-0.95806884765625
1759942138802,1043809718,8334,12,-0.198974609375,-0.35772705078125,-0.96099853515625
1759942138802,1043809718,8334,13,-0.199462890625,-0.35552978515625,-0.95611572265625
1759942138802,1043809718,8334,14,-0.2021484375,-0.35601806640625,-0.95709228515625
1759942138802,1043809718,8334,15,-0.2041015625,-0.36041259765625,-0.96563720703125
1759942138802,1043809718,8334,16,-0.2001953125,-0.35455322265625,-0.94976806640625
1759942138802,1043809718,8334,17,-0.20166015625,-0.35577392578125,-0.95660400390625
1759942138802,1043809718,8334,18,-0.201904296875,-0.35504150390625,-0.96051025390625
1759942138802,1043809718,8334,19,-0.20166015625,-0.35455322265625,-0.95635986328125
1759942138802,1043809718,8334,20,-0.2041015625,-0.35675048828125,-0.96148681640625
1759942138802,1043809718,8334,21,-0.202392578125,-0.35479736328125,-0.96124267578125
1759942138802,1043809718,8334,22,-0.20263671875,-0.35772705078125,-0.95269775390625
1759942138802,1043809718,8334,23,-0.20166015625,-0.35430908203125,-0.95294189453125
1759942138802,1043809718,8334,24,-0.199951171875,-0.35772705078125,-0.96173095703125
1759942138802,1043809718,8334,25,-0.204833984375,-0.35552978515625,-0.95953369140625
1759942138802,1043809718,8334,26,-0.205078125,-0.35919189453125,-0.96148681640625
1759942138802,1043809718,8334,27,-0.201416015625,-0.35430908203125,-0.96026611328125
1759942138802,1043809718,8334,28,-0.200927734375,-0.35699462890625,-0.96295166015625
1759942138802,1043809718,8334,29,-0.19970703125,-0.35284423828125,-0.95074462890625
1759942138802,1043809718,8334,30,-0.20361328125,-0.35284423828125,-0.97076416015625
1759942138802,1043809718,8334,31,-0.200927734375,-0.35260009765625,-0.95977783203125
1759942141351,1043812291,8335,0,-0.203369140625,-0.35089111328125,-0.95465087890625
1759942141351,1043812291,8335,1,-0.202392578125,-0.35479736328125,-0.96588134765625
1759942141351,1043812291,8335,2,-0.2001953125,-0.35699462890625,-0.95806884765625
1759942141351,1043812291,8335,3,-0.203125,-0.35382080078125,-0.95025634765625
1759942141351,1043812291,8335,4,-0.201904296875,-0.35357666015625,-0.96343994140625
1759942141351,1043812291,8335,5,-0.2021484375,-0.35113525390625,-0.95635986328125
1759942141351,1043812291,8335,6,-0.19775390625,-0.35382080078125,-0.95391845703125
1759942141351,1043812291,8335,7,-0.199462890625,-0.35675048828125,-0.96197509765625
1759942141351,1043812291,8335,8,-0.200927734375,-0.35601806640625,-0.96368408203125
1759942141351,1043812291,8335,9,-0.19873046875,-0.35406494140625,-0.95025634765625
1759942141351,1043812291,8335,10,-0.2021484375,-0.35430908203125,-0.96246337890625
1759942141351,1043812291,8335,11,-0.200927734375,-0.35894775390625,-0.95294189453125
1759942141351,1043812291,8335,12,-0.200439453125,-0.35650634765625,-0.95855712890625
1759942141351,1043812291,8335,13,-0.203369140625,-0.35772705078125,-0.96002197265625
1759942141351,1043812291,8335,14,-0.201171875,-0.35626220703125,-0.95538330078125
1759942141351,1043812291,8335,15,-0.203369140625,-0.35626220703125,-0.95904541015625
1759942141351,1043812291,8335,16,-0.2021484375,-0.35675048828125,-0.95806884765625
1759942141351,1043812291,8335,17,-0.199462890625,-0.35675048828125,-0.96514892578125
1759942141351,1043812291,8335,18,-0.198486328125,-0.35943603515625,-0.95831298828125
1759942141351,1043812291,8335,19,-0.20166015625,-0.35772705078125,-0.95269775390625
1759942141351,1043812291,8335,20,-0.202880859375,-0.35675048828125,-0.96051025390625
1759942141351,1043812291,8335,21,-0.205078125,-0.35552978515625,-0.95562744140625
1759942141351,1043812291,8335,22,-0.20068359375,-0.35772705078125,-0.96417236328125
1759942141351,1043812291,8335,23,-0.19970703125,-0.35894775390625,-0.95538330078125
1759942141351,1043812291,8335,24,-0.20751953125,-0.36309814453125,-0.97198486328125
1759942141351,1043812291,8335,25,-0.199462890625,-0.35870361328125,-0.95635986328125
1759942141351,1043812291,8335,26,-0.198974609375,-0.35772705078125,-0.96075439453125
1759942141351,1043812291,8335,27,-0.19970703125,-0.35797119140625,-0.95635986328125
1759942141351,1043812291,8335,28,-0.199462890625,-0.35699462890625,-0.95977783203125
1759942141351,1043812291,8335,29,-0.19970703125,-0.36041259765625,-0.95953369140625
1759942141351,1043812291,8335,30,-0.199951171875,-0.35552978515625,-0.95416259765625
1759942141351,1043812291,8335,31,-0.19921875,-0.35675048828125,-0.95538330078125
1759942143900,1043814864,8336,0,-0.19921875,-0.36114501953125,-0.96099853515625
1759942143900,1043814864,8336,1,-0.200927734375,-0.35626220703125,-0.95733642578125
1759942143900,1043814864,8336,2,-0.20068359375,-0.35845947265625,-0.95977783203125
1759942143900,1043814864,8336,3,-0.19921875,-0.35601806640625,-0.96221923828125
1759942143900,1043814864,8336,4,-0.201171875,-0.35870361328125,-0.95587158203125
1759942143900,1043814864,8336,5,-0.203369140625,-0.35552978515625,-0.96148681640625
1759942143900,1043814864,8336,6,-0.199462890625,-0.35723876953125,-0.96099853515625
1759942143900,1043814864,8336,7,-0.19921875,-0.35626220703125,-0.95806884765625
1759942143900,1043814864,8336,8,-0.200439453125,-0.35675048828125,-0.96588134765625
1759942143900,1043814864,8336,9,-0.197509765625,-0.35992431640625,-0.95587158203125
1759942143900,1043814864,8336,10,-0.201171875,-0.35772705078125,-0.96466064453125
1759942143900,1043814864,8336,11,-0.201904296875,-0.35528564453125,-0.95611572265625
1759942143900,1043814864,8336,12,-0.201416015625,-0.35528564453125,-0.95709228515625
1759942143900,1043814864,8336,13,-0.201904296875,-0.35870361328125,-0.96148681640625
1759942143900,1043814864,8336,14,-0.200927734375,-0.35504150390625,-0.95855712890625
1759942143900,1043814864,8336,15,-0.200927734375,-0.35772705078125,-0.95733642578125
1759942143900,1043814864,8336,16,-0.203369140625,-0.35845947265625,-0.95880126953125
1759942143900,1043814864,8336,17,-0.204833984375,-0.35479736328125,-0.96173095703125
1759942143900,1043814864,8336,18,-0.202880859375,-0.35577392578125,-0.95758056640625
1759942143900,1043814864,8336,19,-0.197998046875,-0.35699462890625,-0.95831298828125
1759942143900,1043814864,8336,20,-0.202880859375,-0.36041259765625,-0.96099853515625
1759942143900,1043814864,8336,21,-0.199462890625,-0.35430908203125,-0.95416259765625
1759942143900,1043814864,8336,22,-0.205078125,-0.35308837890625,-0.95758056640625
1759942143900,1043814864,8336,23,-0.200927734375,-0.35675048828125,-0.95660400390625
1759942143900,1043814864,8336,24,-0.197998046875,-0.35626220703125,-0.96392822265625
1759942143900,1043814864,8336,25,-0.201171875,-0.35943603515625,-0.95123291015625
1759942143900,1043814864,8336,26,-0.2001953125,-0.35284423828125,-0.95172119140625
1759942143900,1043814864,8336,27,-0.200439453125,-0.35430908203125,-0.95343017578125
1759942143900,1043814864,8336,28,-0.201171875,-0.35797119140625,-0.96148681640625
1759942143900,1043814864,8336,29,-0.202392578125,-0.35723876953125,-0.95855712890625
1759942143900,1043814864,8336,30,-0.20361328125,-0.35430908203125,-0.95953369140625
1759942143900,1043814864,8336,31,-0.2001953125,-0.35650634765625,-0.95465087890625
1759942146447,1043817437,8337,0,-0.20361328125,-0.35601806640625,-0.96173095703125
1759942146447,1043817437,8337,1,-0.202392578125,-0.35528564453125,-0.95220947265625
1759942146447,1043817437,8337,2,-0.206298828125,-0.35430908203125,-0.95440673828125
1759942146447,1043817437,8337,3,-0.206787109375,-0.35455322265625,-0.96124267578125
1759942146447,1043817437,8337,4,-0.20458984375,-0.35552978515625,-0.95562744140625
1759942146447,1043817437,8337,5,-0.205322265625,-0.35479736328125,-0.95660400390625
1759942146447,1043817437,8337,6,-0.202880859375,-0.35772705078125,-0.96661376953125
1759942146447,1043817437,8337,7,-0.19677734375,-0.35870361328125,-0.95416259765625
1759942146447,1043817437,8337,8,-0.202392578125,-0.35577392578125,-0.95587158203125
1759942146447,1043817437,8337,9,-0.202880859375,-0.36016845703125,-0.95977783203125
1759942146447,1043817437,8337,10,-0.198974609375,-0.36041259765625,-0.95635986328125
1759942146447,1043817437,8337,11,-0.20166015625,-0.36163330078125,-0.95660400390625
1759942146447,1043817437,8337,12,-0.19921875,-0.36016845703125,-0.95758056640625
1759942146447,1043817437,8337,13,-0.198486328125,-0.35333251953125,-0.94122314453125
1759942146447,1043817437,8337,14,-0.19873046875,-0.36309814453125,-0.96051025390625
1759942146447,1043817437,8337,15,-0.199462890625,-0.35577392578125,-0.95318603515625
1759942146447,1043817437,8337,16,-0.20068359375,-0.36309814453125,-0.95928955078125
1759942146447,1043817437,8337,17,-0.199951171875,-0.36309814453125,-0.96295166015625
1759942146447,1043817437,8337,18,-0.202880859375,-0.36016845703125,-0.95245361328125
1759942146447,1043817437,8337,19,-0.20361328125,-0.36260986328125,-0.95294189453125
1759942146447,1043817437,8337,20,-0.205078125,-0.36822509765625,-0.95855712890625
1759942146447,1043817437,8337,21,-0.204345703125,-0.36846923828125,-0.95660400390625
1759942146447,1043817437,8337,22,-0.203125,-0.36456298828125,-0.94732666015625
1759942146447,1043817437,8337,23,-0.203369140625,-0.36456298828125,-0.95587158203125
1759942146447,1043817437,8337,24,-0.203125,-0.36798095703125,-0.95806884765625
1759942146447,1043817437,8337,25,-0.198486328125,-0.36920166015625,-0.95440673828125
1759942146447,1043817437,8337,26,-0.201904296875,-0.37213134765625,-0.95440673828125
1759942146447,1043817437,8337,27,-0.20166015625,-0.36944580078125,-0.95465087890625
1759942146447,1043817437,8337,28,-0.203125,-0.36700439453125,-0.95294189453125
1759942146447,1043817437,8337,29,-0.198974609375,-0.36749267578125,-0.95611572265625
1759942146447,1043817437,8337,30,-0.20068359375,-0.36920166015625,-0.95611572265625
1759942146447,1043817437,8337,31,-0.20166015625,-0.36700439453125,-0.95074462890625
1759942149153,1043820010,8338,0,-0.199462890625,-0.37017822265625,-0.95928955078125
1759942149153,1043820010,8338,1,-0.19921875,-0.36993408203125,-0.95758056640625
1759942149153,1043820010,8338,2,-0.197998046875,-0.36602783203125,-0.95050048828125
1759942149153,1043820010,8338,3,-0.19873046875,-0.37066650390625,-0.96051025390625
1759942149153,1043820010,8338,4,-0.198974609375,-0.37237548828125,-0.94610595703125
1759942149153,1043820010,8338,5,-0.197509765625,-0.37164306640625,-0.95172119140625
1759942149153,1043820010,8338,6,-0.2021484375,-0.36822509765625,-0.95269775390625
1759942149153,1043820010,8338,7,-0.19677734375,-0.36773681640625,-0.95269775390625
1759942149153,1043820010,8338,8,-0.20068359375,-0.36749267578125,-0.95367431640625
1759942149153,1043820010,8338,9,-0.20068359375,-0.37115478515625,-0.95611572265625
1759942149153,1043820010,8338,10,-0.19970703125,-0.36700439453125,-0.95343017578125
1759942149153,1043820010,8338,11,-0.198486328125,-0.36920166015625,-0.94927978515625
1759942149153,1043820010,8338,12,-0.19775390625,-0.36993408203125,-0.96026611328125
1759942149153,1043820010,8338,13,-0.196533203125,-0.36993408203125,-0.95318603515625
1759942149153,1043820010,8338,14,-0.197021484375,-0.36700439453125,-0.94537353515625
1759942149153,1043820010,8338,15,-0.198974609375,-0.37261962890625,-0.96075439453125
1759942149153,1043820010,8338,16,-0.2001953125,-0.36968994140625,-0.95611572265625
1759942149153,1043820010,8338,17,-0.19970703125,-0.36529541015625,-0.95343017578125
1759942149153,1043820010,8338,18,-0.198974609375,-0.38262939453125,-0.94097900390625
1759942149153,1043820010,8338,19,-0.199462890625,-0.37530517578125,-0.95904541015625
1759942149153,1043820010,8338,20,-0.196533203125,-0.36895751953125,-0.94488525390625
1759942149153,1043820010,8338,21,-0.197509765625,-0.37042236328125,-0.96246337890625
1759942149153,1043820010,8338,22,-0.198486328125,-0.36676025390625,-0.95635986328125
1759942149153,1043820010,8338,23,-0.193603515625,-0.37066650390625,-0.95147705078125
1759942149153,1043820010,8338,24,-0.196533203125,-0.37725830078125,-0.96075439453125
1759942149153,1043820010,8338,25,-0.19677734375,-0.36724853515625,-0.95635986328125
1759942149153,1043820010,8338,26,-0.196044921875,-0.36138916015625,-0.95513916015625
1759942149153,1043820010,8338,27,-0.19580078125,-0.36383056640625,-0.96221923828125
1759942149153,1043820010,8338,28,-0.19580078125,-0.36480712890625,-0.95098876953125
1759942149153,1043820010,8338,29,-0.198974609375,-0.36260986328125,-0.95318603515625
1759942149153,1043820010,8338,30,-0.197509765625,-0.36602783203125,-0.96002197265625
1759942149153,1043820010,8338,31,-0.196533203125,-0.36260986328125,-0.95391845703125
