receivedPhoneTimestamp,respeckTimestamp,packetSeqNum,sampleSeqNum,accelX,accelY,accelZ
1759847588622,970915437,61366,0,-0.121337890625,-0.96563720703125,-0.30963134765625
1759847588622,970915437,61366,1,-0.119384765625,-0.96661376953125,-0.31695556640625
1759847588622,970915437,61366,2,-0.11328125,-0.96417236328125,-0.32647705078125
1759847588622,970915437,61366,3,-0.136474609375,-0.96197509765625,-0.32818603515625
1759847588622,970915437,61366,4,-0.128662109375,-0.96417236328125,-0.33209228515625
1759847588622,970915437,61366,5,-0.14697265625,-0.96368408203125,-0.31964111328125
1759847588622,970915437,61366,6,-0.133544921875,-0.96417236328125,-0.33819580078125
1759847588622,970915437,61366,7,-0.120361328125,-0.95782470703125,-0.34942626953125
1759847588622,970915437,61366,8,-0.126220703125,-0.95416259765625,-0.35089111328125
1759847588622,970915437,61366,9,-0.12548828125,-0.96514892578125,-0.33673095703125
1759847588622,970915437,61366,10,-0.13427734375,-0.96417236328125,-0.32989501953125
1759847588622,970915437,61366,11,-0.12646484375,-0.96026611328125,-0.34771728515625
1759847588622,970915437,61366,12,-0.117431640625,-0.95977783203125,-0.33990478515625
1759847588622,970915437,61366,13,-0.12939453125,-0.95806884765625,-0.33721923828125
1759847588622,970915437,61366,14,-0.128173828125,-0.96661376953125,-0.33795166015625
1759847588622,970915437,61366,15,-0.123779296875,-0.95489501953125,-0.33795166015625
1759847588622,970915437,61366,16,-0.118896484375,-0.96221923828125,-0.33258056640625
1759847588622,970915437,61366,17,-0.125,-0.95758056640625,-0.33258056640625
1759847588622,970915437,61366,18,-0.13818359375,-0.96319580078125,-0.34283447265625
1759847588622,970915437,61366,19,-0.114013671875,-0.95562744140625,-0.33599853515625
1759847588622,970915437,61366,20,-0.123779296875,-0.96588134765625,-0.33135986328125
1759847588622,970915437,61366,21,-0.123291015625,-0.96173095703125,-0.33380126953125
1759847588622,970915437,61366,22,-0.13623046875,-0.95904541015625,-0.33233642578125
1759847588622,970915437,61366,23,-0.123046875,-0.95953369140625,-0.33721923828125
1759847588622,970915437,61366,24,-0.1328125,-0.96221923828125,-0.32989501953125
1759847588622,970915437,61366,25,-0.13037109375,-0.96197509765625,-0.33331298828125
1759847588622,970915437,61366,26,-0.13134765625,-0.96051025390625,-0.33038330078125
1759847588622,970915437,61366,27,-0.135498046875,-0.96588134765625,-0.33331298828125
1759847588622,970915437,61366,28,-0.12890625,-0.96002197265625,-0.31866455078125
1759847588622,970915437,61366,29,-0.13623046875,-0.96466064453125,-0.32989501953125
1759847588622,970915437,61366,30,-0.150146484375,-0.96612548828125,-0.31231689453125
1759847588622,970915437,61366,31,-0.138671875,-0.96490478515625,-0.31915283203125
1759847591143,970917980,61367,0,-0.104736328125,-0.96051025390625,-0.32696533203125
1759847591143,970917980,61367,1,-0.15625,-0.96856689453125,-0.31622314453125
1759847591143,970917980,61367,2,-0.12060546875,-0.97125244140625,-0.29913330078125
1759847591143,970917980,61367,3,-0.11865234375,-0.96881103515625,-0.30987548828125
1759847591143,970917980,61367,4,-0.116943359375,-0.96026611328125,-0.31060791015625
1759847591143,970917980,61367,5,-0.12255859375,-0.97027587890625,-0.31011962890625
1759847591143,970917980,61367,6,-0.123291015625,-0.97052001953125,-0.30450439453125
1759847591143,970917980,61367,7,-0.11083984375,-0.96588134765625,-0.30889892578125
1759847591143,970917980,61367,8,-0.118896484375,-0.97247314453125,-0.30255126953125
1759847591143,970917980,61367,9,-0.12353515625,-0.96832275390625,-0.30548095703125
1759847591143,970917980,61367,10,-0.119873046875,-0.96978759765625,-0.30230712890625
1759847591143,970917980,61367,11,-0.1220703125,-0.96929931640625,-0.30401611328125
1759847591143,970917980,61367,12,-0.124755859375,-0.97344970703125,-0.29962158203125
1759847591143,970917980,61367,13,-0.127685546875,-0.97247314453125,-0.30718994140625
1759847591143,970917980,61367,14,-0.116455078125,-0.96881103515625,-0.30718994140625
1759847591143,970917980,61367,15,-0.1220703125,-0.96759033203125,-0.29913330078125
1759847591143,970917980,61367,16,-0.131103515625,-0.96905517578125,-0.30401611328125
1759847591143,970917980,61367,17,-0.121826171875,-0.96588134765625,-0.30743408203125
1759847591143,970917980,61367,18,-0.115966796875,-0.96685791015625,-0.30499267578125
1759847591143,970917980,61367,19,-0.1181640625,-0.96856689453125,-0.30743408203125
1759847591143,970917980,61367,20,-0.1259765625,-0.97369384765625,-0.30548095703125
1759847591143,970917980,61367,21,-0.119140625,-0.96954345703125,-0.30596923828125
1759847591143,970917980,61367,22,-0.117431640625,-0.96929931640625,-0.31768798828125
1759847591143,970917980,61367,23,-0.116943359375,-0.96807861328125,-0.31573486328125
1759847591143,970917980,61367,24,-0.11474609375,-0.96832275390625,-0.31182861328125
1759847591143,970917980,61367,25,-0.124755859375,-0.96759033203125,-0.31451416015625
1759847591143,970917980,61367,26,-0.1201171875,-0.96685791015625,-0.31158447265625
1759847591143,970917980,61367,27,-0.11572265625,-0.96612548828125,-0.31182861328125
1759847591143,970917980,61367,28,-0.11865234375,-0.96832275390625,-0.31549072265625
1759847591143,970917980,61367,29,-0.119384765625,-0.96685791015625,-0.30596923828125
1759847591143,970917980,61367,30,-0.121826171875,-0.96856689453125,-0.31500244140625
1759847591143,970917980,61367,31,-0.113525390625,-0.96636962890625,-0.31402587890625
1759847593665,970920523,61368,0,-0.128173828125,-0.96856689453125,-0.30548095703125
1759847593665,970920523,61368,1,-0.12548828125,-0.96856689453125,-0.31158447265625
1759847593665,970920523,61368,2,-0.121826171875,-0.96490478515625,-0.30450439453125
1759847593665,970920523,61368,3,-0.119384765625,-0.97149658203125,-0.30303955078125
1759847593665,970920523,61368,4,-0.13232421875,-0.96734619140625,-0.31353759765625
1759847593665,970920523,61368,5,-0.12109375,-0.96759033203125,-0.29718017578125
1759847593665,970920523,61368,6,-0.140869140625,-0.97076416015625,-0.30792236328125
1759847593665,970920523,61368,7,-0.126953125,-0.96563720703125,-0.30548095703125
1759847593665,970920523,61368,8,-0.118408203125,-0.97198486328125,-0.29962158203125
1759847593665,970920523,61368,9,-0.119384765625,-0.97052001953125,-0.30865478515625
1759847593665,970920523,61368,10,-0.14501953125,-0.96661376953125,-0.30670166015625
1759847593665,970920523,61368,11,-0.12646484375,-0.96734619140625,-0.30694580078125
1759847593665,970920523,61368,12,-0.1328125,-0.97637939453125,-0.29449462890625
1759847593665,970920523,61368,13,-0.12255859375,-0.96929931640625,-0.30108642578125
1759847593665,970920523,61368,14,-0.127197265625,-0.97100830078125,-0.29693603515625
1759847593665,970920523,61368,15,-0.130126953125,-0.96539306640625,-0.30645751953125
1759847593665,970920523,61368,16,-0.133544921875,-0.96881103515625,-0.30474853515625
1759847593665,970920523,61368,17,-0.1259765625,-0.96856689453125,-0.30084228515625
1759847593665,970920523,61368,18,-0.117919921875,-0.96954345703125,-0.30548095703125
1759847593665,970920523,61368,19,-0.123046875,-0.96978759765625,-0.29913330078125
1759847593665,970920523,61368,20,-0.133544921875,-0.96881103515625,-0.30206298828125
1759847593665,970920523,61368,21,-0.123291015625,-0.96783447265625,-0.30010986328125
1759847593665,970920523,61368,22,-0.12939453125,-0.97003173828125,-0.30352783203125
1759847593665,970920523,61368,23,-0.12548828125,-0.96856689453125,-0.30328369140625
1759847593665,970920523,61368,24,-0.126220703125,-0.96929931640625,-0.30108642578125
1759847593665,970920523,61368,25,-0.125244140625,-0.96954345703125,-0.30352783203125
1759847593665,970920523,61368,26,-0.12841796875,-0.97027587890625,-0.30230712890625
1759847593665,970920523,61368,27,-0.12353515625,-0.96978759765625,-0.29913330078125
1759847593665,970920523,61368,28,-0.1279296875,-0.97100830078125,-0.29400634765625
1759847593665,970920523,61368,29,-0.13916015625,-0.97711181640625,-0.29815673828125
1759847593665,970920523,61368,30,-0.122802734375,-0.97027587890625,-0.30230712890625
1759847593665,970920523,61368,31,-0.123291015625,-0.96734619140625,-0.29840087890625
1759847596183,970923067,61369,0,-0.1240234375,-0.97100830078125,-0.28887939453125
1759847596183,970923067,61369,1,-0.1240234375,-0.96978759765625,-0.29718017578125
1759847596183,970923067,61369,2,-0.13525390625,-0.97320556640625,-0.29058837890625
1759847596183,970923067,61369,3,-0.134765625,-0.96929931640625,-0.29229736328125
1759847596183,970923067,61369,4,-0.13232421875,-0.96783447265625,-0.29425048828125
1759847596183,970923067,61369,5,-0.1328125,-0.97003173828125,-0.29229736328125
1759847596183,970923067,61369,6,-0.13232421875,-0.97198486328125,-0.29107666015625
1759847596183,970923067,61369,7,-0.12744140625,-0.97100830078125,-0.29205322265625
1759847596183,970923067,61369,8,-0.13037109375,-0.97003173828125,-0.29132080078125
1759847596183,970923067,61369,9,-0.12939453125,-0.97149658203125,-0.29425048828125
1759847596183,970923067,61369,10,-0.12939453125,-0.96978759765625,-0.29034423828125
1759847596183,970923067,61369,11,-0.126953125,-0.97198486328125,-0.29107666015625
1759847596183,970923067,61369,12,-0.126953125,-0.97052001953125,-0.28765869140625
1759847596183,970923067,61369,13,-0.124755859375,-0.96954345703125,-0.29058837890625
1759847596183,970923067,61369,14,-0.128662109375,-0.97296142578125,-0.28887939453125
1759847596183,970923067,61369,15,-0.128662109375,-0.97271728515625,-0.29571533203125
1759847596183,970923067,61369,16,-0.130126953125,-0.97247314453125,-0.28839111328125
1759847596183,970923067,61369,17,-0.12841796875,-0.96856689453125,-0.29156494140625
1759847596183,970923067,61369,18,-0.12939453125,-0.97271728515625,-0.29205322265625
1759847596183,970923067,61369,19,-0.123779296875,-0.97100830078125,-0.29327392578125
1759847596183,970923067,61369,20,-0.12939453125,-0.97271728515625,-0.29693603515625
1759847596183,970923067,61369,21,-0.125,-0.96978759765625,-0.28839111328125
1759847596183,970923067,61369,22,-0.1240234375,-0.97662353515625,-0.28594970703125
1759847596183,970923067,61369,23,-0.12744140625,-0.97320556640625,-0.28741455078125
1759847596183,970923067,61369,24,-0.134033203125,-0.96881103515625,-0.29522705078125
1759847596183,970923067,61369,25,-0.130859375,-0.97540283203125,-0.29058837890625
1759847596183,970923067,61369,26,-0.128173828125,-0.97125244140625,-0.28375244140625
1759847596183,970923067,61369,27,-0.130615234375,-0.98028564453125,-0.29010009765625
1759847596183,970923067,61369,28,-0.12744140625,-0.97003173828125,-0.28814697265625
1759847596183,970923067,61369,29,-0.127685546875,-0.97198486328125,-0.28863525390625
1759847596183,970923067,61369,30,-0.1279296875,-0.97320556640625,-0.28619384765625
1759847596183,970923067,61369,31,-0.12841796875,-0.97344970703125,-0.28521728515625
1759847598704,970925610,61370,0,-0.12841796875,-0.97515869140625,-0.29058837890625
1759847598704,970925610,61370,1,-0.125,-0.96978759765625,-0.28741455078125
1759847598704,970925610,61370,2,-0.128173828125,-0.97613525390625,-0.28961181640625
1759847598704,970925610,61370,3,-0.131103515625,-0.98199462890625,-0.27813720703125
1759847598704,970925610,61370,4,-0.130859375,-0.97344970703125,-0.29156494140625
1759847598704,970925610,61370,5,-0.12646484375,-0.97174072265625,-0.29010009765625
1759847598704,970925610,61370,6,-0.1318359375,-0.97125244140625,-0.28131103515625
1759847598704,970925610,61370,7,-0.1337890625,-0.97760009765625,-0.27984619140625
1759847598704,970925610,61370,8,-0.1328125,-0.97735595703125,-0.28033447265625
1759847598704,970925610,61370,9,-0.135009765625,-0.97344970703125,-0.27935791015625
1759847598704,970925610,61370,10,-0.13720703125,-0.97491455078125,-0.28131103515625
1759847598704,970925610,61370,11,-0.13427734375,-0.97027587890625,-0.27618408203125
1759847598704,970925610,61370,12,-0.134521484375,-0.97076416015625,-0.27545166015625
1759847598704,970925610,61370,13,-0.134765625,-0.97369384765625,-0.27301025390625
1759847598704,970925610,61370,14,-0.135498046875,-0.97418212890625,-0.26983642578125
1759847598704,970925610,61370,15,-0.139404296875,-0.97735595703125,-0.27374267578125
1759847598704,970925610,61370,16,-0.134033203125,-0.97222900390625,-0.28106689453125
1759847598704,970925610,61370,17,-0.1318359375,-0.97711181640625,-0.27740478515625
1759847598704,970925610,61370,18,-0.13427734375,-0.97369384765625,-0.27154541015625
1759847598704,970925610,61370,19,-0.132568359375,-0.97174072265625,-0.28057861328125
1759847598704,970925610,61370,20,-0.1298828125,-0.97344970703125,-0.28326416015625
1759847598704,970925610,61370,21,-0.129638671875,-0.97149658203125,-0.27447509765625
1759847598704,970925610,61370,22,-0.133544921875,-0.97662353515625,-0.27935791015625
1759847598704,970925610,61370,23,-0.131591796875,-0.97613525390625,-0.28057861328125
1759847598704,970925610,61370,24,-0.125732421875,-0.97393798828125,-0.28082275390625
1759847598704,970925610,61370,25,-0.128173828125,-0.97760009765625,-0.27984619140625
1759847598704,970925610,61370,26,-0.12841796875,-0.97418212890625,-0.28009033203125
1759847598704,970925610,61370,27,-0.1279296875,-0.97467041015625,-0.27618408203125
1759847598704,970925610,61370,28,-0.128662109375,-0.97662353515625,-0.27764892578125
1759847598704,970925610,61370,29,-0.13330078125,-0.97442626953125,-0.27862548828125
1759847598704,970925610,61370,30,-0.13134765625,-0.97418212890625,-0.27813720703125
1759847598704,970925610,61370,31,-0.1337890625,-0.97589111328125,-0.27935791015625
1759847601223,970928153,61371,0,-0.129150390625,-0.97296142578125,-0.27691650390625
1759847601223,970928153,61371,1,-0.131103515625,-0.97442626953125,-0.28570556640625
1759847601223,970928153,61371,2,-0.132080078125,-0.97515869140625,-0.27276611328125
1759847601223,970928153,61371,3,-0.13671875,-0.97711181640625,-0.28106689453125
1759847601223,970928153,61371,4,-0.128662109375,-0.97100830078125,-0.28326416015625
1759847601223,970928153,61371,5,-0.130126953125,-0.97198486328125,-0.28131103515625
1759847601223,970928153,61371,6,-0.132568359375,-0.97467041015625,-0.28057861328125
1759847601223,970928153,61371,7,-0.132568359375,-0.97418212890625,-0.28253173828125
1759847601223,970928153,61371,8,-0.13232421875,-0.97247314453125,-0.28009033203125
1759847601223,970928153,61371,9,-0.131103515625,-0.97247314453125,-0.27716064453125
1759847601223,970928153,61371,10,-0.130859375,-0.97418212890625,-0.27886962890625
1759847601223,970928153,61371,11,-0.132080078125,-0.97320556640625,-0.27740478515625
1759847601223,970928153,61371,12,-0.12841796875,-0.97296142578125,-0.27960205078125
1759847601223,970928153,61371,13,-0.126953125,-0.97100830078125,-0.28033447265625
1759847601223,970928153,61371,14,-0.13134765625,-0.97515869140625,-0.27862548828125
1759847601223,970928153,61371,15,-0.1298828125,-0.97247314453125,-0.27227783203125
1759847601223,970928153,61371,16,-0.130126953125,-0.98175048828125,-0.27935791015625
1759847601223,970928153,61371,17,-0.13818359375,-0.98541259765625,-0.26959228515625
1759847601223,970928153,61371,18,-0.133544921875,-0.97247314453125,-0.28472900390625
1759847601223,970928153,61371,19,-0.12890625,-0.96929931640625,-0.27935791015625
1759847601223,970928153,61371,20,-0.1318359375,-0.97515869140625,-0.27398681640625
1759847601223,970928153,61371,21,-0.1328125,-0.97979736328125,-0.27178955078125
1759847601223,970928153,61371,22,-0.136474609375,-0.97662353515625,-0.26861572265625
1759847601223,970928153,61371,23,-0.140869140625,-0.97369384765625,-0.28375244140625
1759847601223,970928153,61371,24,-0.138671875,-0.97003173828125,-0.27496337890625
1759847601223,970928153,61371,25,-0.13671875,-0.96929931640625,-0.27984619140625
1759847601223,970928153,61371,26,-0.13232421875,-0.97198486328125,-0.27764892578125
1759847601223,970928153,61371,27,-0.138671875,-0.97125244140625,-0.27667236328125
1759847601223,970928153,61371,28,-0.1376953125,-0.98101806640625,-0.27545166015625
1759847601223,970928153,61371,29,-0.1328125,-0.96881103515625,-0.28057861328125
1759847601223,970928153,61371,30,-0.138427734375,-0.97784423828125,-0.28472900390625
1759847601223,970928153,61371,31,-0.13623046875,-0.97149658203125,-0.27545166015625
1759847603743,970930696,61372,0,-0.135986328125,-0.97735595703125,-0.28717041015625
1759847603743,970930696,61372,1,-0.14013671875,-0.97100830078125,-0.27960205078125
1759847603743,970930696,61372,2,-0.137451171875,-0.97540283203125,-0.28033447265625
1759847603743,970930696,61372,3,-0.13330078125,-0.97979736328125,-0.27301025390625
1759847603743,970930696,61372,4,-0.14013671875,-0.97515869140625,-0.28106689453125
1759847603743,970930696,61372,5,-0.12841796875,-0.96954345703125,-0.28790283203125
1759847603743,970930696,61372,6,-0.133544921875,-0.97271728515625,-0.28985595703125
1759847603743,970930696,61372,7,-0.133056640625,-0.97149658203125,-0.28106689453125
1759847603743,970930696,61372,8,-0.1298828125,-0.97467041015625,-0.28326416015625
1759847603743,970930696,61372,9,-0.129638671875,-0.97613525390625,-0.28106689453125
1759847603743,970930696,61372,10,-0.1328125,-0.96881103515625,-0.28033447265625
1759847603743,970930696,61372,11,-0.132080078125,-0.97344970703125,-0.28546142578125
1759847603743,970930696,61372,12,-0.130859375,-0.97344970703125,-0.28692626953125
1759847603743,970930696,61372,13,-0.136474609375,-0.97418212890625,-0.28765869140625
1759847603743,970930696,61372,14,-0.13134765625,-0.97174072265625,-0.28057861328125
1759847603743,970930696,61372,15,-0.134521484375,-0.97882080078125,-0.27935791015625
1759847603743,970930696,61372,16,-0.13427734375,-0.98321533203125,-0.27789306640625
1759847603743,970930696,61372,17,-0.1396484375,-0.97100830078125,-0.28375244140625
1759847603743,970930696,61372,18,-0.1318359375,-0.97320556640625,-0.28228759765625
1759847603743,970930696,61372,19,-0.134033203125,-0.97442626953125,-0.28155517578125
1759847603743,970930696,61372,20,-0.13525390625,-0.98004150390625,-0.27325439453125
1759847603743,970930696,61372,21,-0.135986328125,-0.97222900390625,-0.27886962890625
1759847603743,970930696,61372,22,-0.12841796875,-0.97540283203125,-0.27716064453125
1759847603743,970930696,61372,23,-0.1318359375,-0.97540283203125,-0.27764892578125
1759847603743,970930696,61372,24,-0.134033203125,-0.97344970703125,-0.27374267578125
1759847603743,970930696,61372,25,-0.134765625,-0.97271728515625,-0.27301025390625
1759847603743,970930696,61372,26,-0.1298828125,-0.97540283203125,-0.27447509765625
1759847603743,970930696,61372,27,-0.135498046875,-0.97540283203125,-0.27667236328125
1759847603743,970930696,61372,28,-0.130859375,-0.97174072265625,-0.27838134765625
1759847603743,970930696,61372,29,-0.134765625,-0.97320556640625,-0.27154541015625
1759847603743,970930696,61372,30,-0.13720703125,-0.97442626953125,-0.28350830078125
1759847603743,970930696,61372,31,-0.130859375,-0.97711181640625,-0.28082275390625
1759847606443,970933239,61373,0,-0.1337890625,-0.97003173828125,-0.28350830078125
1759847606443,970933239,61373,1,-0.1318359375,-0.97735595703125,-0.27569580078125
1759847606443,970933239,61373,2,-0.1337890625,-0.97955322265625,-0.28277587890625
1759847606443,970933239,61373,3,-0.122802734375,-0.97003173828125,-0.27813720703125
1759847606443,970933239,61373,4,-0.1328125,-0.97271728515625,-0.28936767578125
1759847606443,970933239,61373,5,-0.135986328125,-0.97955322265625,-0.26812744140625
1759847606443,970933239,61373,6,-0.1337890625,-0.97662353515625,-0.28057861328125
1759847606443,970933239,61373,7,-0.126220703125,-0.97052001953125,-0.28668212890625
1759847606443,970933239,61373,8,-0.12939453125,-0.97296142578125,-0.28546142578125
1759847606443,970933239,61373,9,-0.1328125,-0.97442626953125,-0.28790283203125
1759847606443,970933239,61373,10,-0.131103515625,-0.97222900390625,-0.29229736328125
1759847606443,970933239,61373,11,-0.125244140625,-0.97857666015625,-0.28717041015625
1759847606443,970933239,61373,12,-0.1298828125,-0.97369384765625,-0.27911376953125
1759847606443,970933239,61373,13,-0.132568359375,-0.97686767578125,-0.28204345703125
1759847606443,970933239,61373,14,-0.13525390625,-0.97052001953125,-0.28155517578125
1759847606443,970933239,61373,15,-0.127197265625,-0.96881103515625,-0.28497314453125
1759847606443,970933239,61373,16,-0.125732421875,-0.97271728515625,-0.28546142578125
1759847606443,970933239,61373,17,-0.130126953125,-0.97222900390625,-0.28350830078125
1759847606443,970933239,61373,18,-0.13134765625,-0.97198486328125,-0.28326416015625
1759847606443,970933239,61373,19,-0.1298828125,-0.97540283203125,-0.28521728515625
1759847606443,970933239,61373,20,-0.129638671875,-0.97222900390625,-0.28839111328125
1759847606443,970933239,61373,21,-0.123291015625,-0.97344970703125,-0.29888916015625
1759847606443,970933239,61373,22,-0.126708984375,-0.97100830078125,-0.28643798828125
1759847606443,970933239,61373,23,-0.132568359375,-0.97369384765625,-0.27569580078125
1759847606443,970933239,61373,24,-0.133544921875,-0.97686767578125,-0.27838134765625
1759847606443,970933239,61373,25,-0.128173828125,-0.96905517578125,-0.28912353515625
1759847606443,970933239,61373,26,-0.115234375,-0.97027587890625,-0.29278564453125
1759847606443,970933239,61373,27,-0.12255859375,-0.97637939453125,-0.29840087890625
1759847606443,970933239,61373,28,-0.134033203125,-0.97003173828125,-0.29522705078125
1759847606443,970933239,61373,29,-0.133544921875,-0.97637939453125,-0.29986572265625
1759847606443,970933239,61373,30,-0.120849609375,-0.96661376953125,-0.30865478515625
1759847606443,970933239,61373,31,-0.128662109375,-0.97125244140625,-0.29302978515625
1759847608963,970935782,61374,0,-0.128173828125,-0.97344970703125,-0.29620361328125
1759847608963,970935782,61374,1,-0.11328125,-0.97247314453125,-0.29376220703125
1759847608963,970935782,61374,2,-0.121826171875,-0.97589111328125,-0.29669189453125
1759847608963,970935782,61374,3,-0.12744140625,-0.96124267578125,-0.30743408203125
1759847608963,970935782,61374,4,-0.15234375,-0.97027587890625,-0.29278564453125
1759847608963,970935782,61374,5,-0.133544921875,-0.97735595703125,-0.29180908203125
1759847608963,970935782,61374,6,-0.124267578125,-0.97174072265625,-0.30108642578125
1759847608963,970935782,61374,7,-0.12255859375,-0.96929931640625,-0.29058837890625
1759847608963,970935782,61374,8,-0.14453125,-0.97344970703125,-0.29156494140625
1759847608963,970935782,61374,9,-0.143798828125,-0.96343994140625,-0.29693603515625
1759847608963,970935782,61374,10,-0.134765625,-0.97320556640625,-0.29937744140625
1759847608963,970935782,61374,11,-0.118896484375,-0.97833251953125,-0.28082275390625
1759847608963,970935782,61374,12,-0.150146484375,-0.97442626953125,-0.29254150390625
1759847608963,970935782,61374,13,-0.127685546875,-0.97149658203125,-0.28497314453125
1759847608963,970935782,61374,14,-0.13232421875,-0.97393798828125,-0.27984619140625
1759847608963,970935782,61374,15,-0.184814453125,-0.96881103515625,-0.28765869140625
1759847608963,970935782,61374,16,-0.108642578125,-0.98052978515625,-0.28961181640625
1759847608963,970935782,61374,17,-0.130859375,-0.97515869140625,-0.29058837890625
1759847608963,970935782,61374,18,-0.132568359375,-0.96588134765625,-0.27740478515625
1759847608963,970935782,61374,19,-0.132568359375,-0.97344970703125,-0.28546142578125
1759847608963,970935782,61374,20,-0.13427734375,-0.97686767578125,-0.28253173828125
1759847608963,970935782,61374,21,-0.139892578125,-0.96856689453125,-0.28741455078125
1759847608963,970935782,61374,22,-0.12939453125,-0.97076416015625,-0.28765869140625
1759847608963,970935782,61374,23,-0.126220703125,-0.97418212890625,-0.28619384765625
1759847608963,970935782,61374,24,-0.1328125,-0.97686767578125,-0.28131103515625
1759847608963,970935782,61374,25,-0.139404296875,-0.97003173828125,-0.28350830078125
1759847608963,970935782,61374,26,-0.13134765625,-0.97174072265625,-0.29278564453125
1759847608963,970935782,61374,27,-0.129638671875,-0.97100830078125,-0.29083251953125
1759847608963,970935782,61374,28,-0.13037109375,-0.97100830078125,-0.29376220703125
1759847608963,970935782,61374,29,-0.127685546875,-0.96832275390625,-0.28692626953125
1759847608963,970935782,61374,30,-0.125,-0.98028564453125,-0.28839111328125
1759847608963,970935782,61374,31,-0.133544921875,-0.97027587890625,-0.28887939453125
1759847611484,970938325,61375,0,-0.125,-0.97686767578125,-0.29449462890625
1759847611484,970938325,61375,1,-0.124267578125,-0.97369384765625,-0.28497314453125
1759847611484,970938325,61375,2,-0.126708984375,-0.97369384765625,-0.29254150390625
1759847611484,970938325,61375,3,-0.122802734375,-0.97564697265625,-0.28985595703125
1759847611484,970938325,61375,4,-0.1259765625,-0.97515869140625,-0.28619384765625
1759847611484,970938325,61375,5,-0.123046875,-0.97222900390625,-0.28961181640625
1759847611484,970938325,61375,6,-0.12451171875,-0.97076416015625,-0.28668212890625
1759847611484,970938325,61375,7,-0.124755859375,-0.97735595703125,-0.28546142578125
1759847611484,970938325,61375,8,-0.12646484375,-0.96807861328125,-0.29205322265625
1759847611484,970938325,61375,9,-0.12255859375,-0.97418212890625,-0.29351806640625
1759847611484,970938325,61375,10,-0.1220703125,-0.96881103515625,-0.29083251953125
1759847611484,970938325,61375,11,-0.125732421875,-0.97540283203125,-0.29498291015625
1759847611484,970938325,61375,12,-0.12353515625,-0.96978759765625,-0.28497314453125
1759847611484,970938325,61375,13,-0.129638671875,-0.97369384765625,-0.28472900390625
1759847611484,970938325,61375,14,-0.118408203125,-0.97540283203125,-0.29498291015625
1759847611484,970938325,61375,15,-0.125732421875,-0.96978759765625,-0.29376220703125
1759847611484,970938325,61375,16,-0.12548828125,-0.97076416015625,-0.28155517578125
1759847611484,970938325,61375,17,-0.12744140625,-0.97198486328125,-0.28594970703125
1759847611484,970938325,61375,18,-0.12353515625,-0.97076416015625,-0.27716064453125
1759847611484,970938325,61375,19,-0.127685546875,-0.97784423828125,-0.27984619140625
1759847611484,970938325,61375,20,-0.130615234375,-0.97760009765625,-0.28082275390625
1759847611484,970938325,61375,21,-0.128173828125,-0.97052001953125,-0.28057861328125
1759847611484,970938325,61375,22,-0.12451171875,-0.97149658203125,-0.28375244140625
1759847611484,970938325,61375,23,-0.127685546875,-0.97027587890625,-0.27862548828125
1759847611484,970938325,61375,24,-0.12646484375,-0.97027587890625,-0.28179931640625
1759847611484,970938325,61375,25,-0.124267578125,-0.97515869140625,-0.27813720703125
1759847611484,970938325,61375,26,-0.12548828125,-0.97955322265625,-0.28033447265625
1759847611484,970938325,61375,27,-0.127685546875,-0.97222900390625,-0.27740478515625
1759847611484,970938325,61375,28,-0.126953125,-0.97515869140625,-0.28643798828125
1759847611484,970938325,61375,29,-0.120849609375,-0.96954345703125,-0.28228759765625
1759847611484,970938325,61375,30,-0.12255859375,-0.98248291015625,-0.29058837890625
1759847611484,970938325,61375,31,-0.1259765625,-0.97784423828125,-0.28155517578125
1759847614003,970940868,61376,0,-0.12548828125,-0.97857666015625,-0.28350830078125
1759847614003,970940868,61376,1,-0.124267578125,-0.97418212890625,-0.28521728515625
1759847614003,970940868,61376,2,-0.122314453125,-0.97003173828125,-0.28424072265625
1759847614003,970940868,61376,3,-0.123291015625,-0.97296142578125,-0.28424072265625
1759847614003,970940868,61376,4,-0.12451171875,-0.97027587890625,-0.28350830078125
1759847614003,970940868,61376,5,-0.123291015625,-0.97833251953125,-0.28204345703125
1759847614003,970940868,61376,6,-0.126953125,-0.97247314453125,-0.28302001953125
1759847614003,970940868,61376,7,-0.123779296875,-0.97515869140625,-0.28814697265625
1759847614003,970940868,61376,8,-0.1220703125,-0.97149658203125,-0.28106689453125
1759847614003,970940868,61376,9,-0.127685546875,-0.97320556640625,-0.28302001953125
1759847614003,970940868,61376,10,-0.121337890625,-0.97369384765625,-0.28106689453125
1759847614003,970940868,61376,11,-0.126708984375,-0.97564697265625,-0.28228759765625
1759847614003,970940868,61376,12,-0.125244140625,-0.97589111328125,-0.28350830078125
1759847614003,970940868,61376,13,-0.119873046875,-0.97491455078125,-0.29132080078125
1759847614003,970940868,61376,14,-0.119384765625,-0.97564697265625,-0.28668212890625
1759847614003,970940868,61376,15,-0.120849609375,-0.97857666015625,-0.28253173828125
1759847614003,970940868,61376,16,-0.116455078125,-0.97222900390625,-0.28424072265625
1759847614003,970940868,61376,17,-0.121337890625,-0.97344970703125,-0.28668212890625
1759847614003,970940868,61376,18,-0.123291015625,-0.97076416015625,-0.28717041015625
1759847614003,970940868,61376,19,-0.1171875,-0.97467041015625,-0.28155517578125
1759847614003,970940868,61376,20,-0.123291015625,-0.97857666015625,-0.29034423828125
1759847614003,970940868,61376,21,-0.120361328125,-0.97711181640625,-0.27252197265625
1759847614003,970940868,61376,22,-0.11865234375,-0.98052978515625,-0.29083251953125
1759847614003,970940868,61376,23,-0.119140625,-0.97247314453125,-0.28570556640625
1759847614003,970940868,61376,24,-0.123291015625,-0.97735595703125,-0.27862548828125
1759847614003,970940868,61376,25,-0.121337890625,-0.97711181640625,-0.28155517578125
1759847614003,970940868,61376,26,-0.12109375,-0.97174072265625,-0.28253173828125
1759847614003,970940868,61376,27,-0.120361328125,-0.97930908203125,-0.28131103515625
1759847614003,970940868,61376,28,-0.126220703125,-0.97027587890625,-0.27349853515625
1759847614003,970940868,61376,29,-0.123046875,-0.97418212890625,-0.27691650390625
1759847614003,970940868,61376,30,-0.119873046875,-0.97369384765625,-0.27520751953125
1759847614003,970940868,61376,31,-0.125244140625,-0.97637939453125,-0.27105712890625
1759847616523,970943411,61377,0,-0.126220703125,-0.97564697265625,-0.27935791015625
1759847616523,970943411,61377,1,-0.1220703125,-0.97686767578125,-0.27911376953125
1759847616523,970943411,61377,2,-0.12353515625,-0.97613525390625,-0.28228759765625
1759847616523,970943411,61377,3,-0.127685546875,-0.97686767578125,-0.27301025390625
1759847616523,970943411,61377,4,-0.121337890625,-0.97491455078125,-0.28057861328125
1759847616523,970943411,61377,5,-0.121826171875,-0.97491455078125,-0.27984619140625
1759847616523,970943411,61377,6,-0.1240234375,-0.97100830078125,-0.28155517578125
1759847616523,970943411,61377,7,-0.123291015625,-0.97515869140625,-0.28326416015625
1759847616523,970943411,61377,8,-0.122802734375,-0.97344970703125,-0.28253173828125
1759847616523,970943411,61377,9,-0.122802734375,-0.97515869140625,-0.27984619140625
1759847616523,970943411,61377,10,-0.12451171875,-0.97442626953125,-0.28350830078125
1759847616523,970943411,61377,11,-0.11962890625,-0.97711181640625,-0.28521728515625
1759847616523,970943411,61377,12,-0.123046875,-0.97320556640625,-0.28106689453125
1759847616523,970943411,61377,13,-0.119140625,-0.97198486328125,-0.28448486328125
1759847616523,970943411,61377,14,-0.118408203125,-0.98004150390625,-0.28106689453125
1759847616523,970943411,61377,15,-0.123046875,-0.98052978515625,-0.27886962890625
1759847616523,970943411,61377,16,-0.12353515625,-0.97271728515625,-0.27911376953125
1759847616523,970943411,61377,17,-0.120849609375,-0.98370361328125,-0.28350830078125
1759847616523,970943411,61377,18,-0.128662109375,-0.97320556640625,-0.27911376953125
1759847616523,970943411,61377,19,-0.12646484375,-0.97540283203125,-0.27447509765625
1759847616523,970943411,61377,20,-0.1171875,-0.97906494140625,-0.28204345703125
1759847616523,970943411,61377,21,-0.12744140625,-0.97393798828125,-0.27154541015625
1759847616523,970943411,61377,22,-0.1259765625,-0.97930908203125,-0.27984619140625
1759847616523,970943411,61377,23,-0.124267578125,-0.97320556640625,-0.27764892578125
1759847616523,970943411,61377,24,-0.12451171875,-0.97418212890625,-0.27984619140625
1759847616523,970943411,61377,25,-0.125732421875,-0.97174072265625,-0.27081298828125
1759847616523,970943411,61377,26,-0.12939453125,-0.97589111328125,-0.28082275390625
1759847616523,970943411,61377,27,-0.11767578125,-0.97784423828125,-0.27716064453125
1759847616523,970943411,61377,28,-0.12841796875,-0.97174072265625,-0.27398681640625
1759847616523,970943411,61377,29,-0.124755859375,-0.97857666015625,-0.27349853515625
1759847616523,970943411,61377,30,-0.12353515625,-0.97296142578125,-0.27569580078125
1759847616523,970943411,61377,31,-0.12451171875,-0.97784423828125,-0.27398681640625
1759847619043,970945954,61378,0,-0.123291015625,-0.97271728515625,-0.26983642578125
1759847619043,970945954,61378,1,-0.12646484375,-0.98004150390625,-0.27789306640625
1759847619043,970945954,61378,2,-0.12158203125,-0.97467041015625,-0.27593994140625
1759847619043,970945954,61378,3,-0.122314453125,-0.97808837890625,-0.27203369140625
