receivedPhoneTimestamp,respeckTimestamp,packetSeqNum,sampleSeqNum,accelX,accelY,accelZ
1759674564340,802585496,7986,14,0.42138671875,0.06561279296875,-0.92071533203125
1759674564340,802585496,7986,15,0.4267578125,0.06463623046875,-0.92291259765625
1759674564340,802585496,7986,16,0.425537109375,0.06341552734375,-0.92047119140625
1759674564340,802585496,7986,17,0.426025390625,0.06414794921875,-0.91925048828125
1759674564340,802585496,7986,18,0.42431640625,0.06561279296875,-0.91973876953125
1759674564340,802585496,7986,19,0.42578125,0.06439208984375,-0.92095947265625
1759674564340,802585496,7986,20,0.42626953125,0.06414794921875,-0.92071533203125
1759674564340,802585496,7986,21,0.427490234375,0.06219482421875,-0.92437744140625
1759674564340,802585496,7986,22,0.424072265625,0.06463623046875,-0.91876220703125
1759674564340,802585496,7986,23,0.426513671875,0.06219482421875,-0.92315673828125
1759674564340,802585496,7986,24,0.42626953125,0.06463623046875,-0.91998291015625
1759674564340,802585496,7986,25,0.4287109375,0.06121826171875,-0.91827392578125
1759674564340,802585496,7986,26,0.43017578125,0.06097412109375,-0.91705322265625
1759674564340,802585496,7986,27,0.4296875,0.06097412109375,-0.92120361328125
1759674564340,802585496,7986,28,0.427978515625,0.05780029296875,-0.92510986328125
1759674564340,802585496,7986,29,0.42626953125,0.05828857421875,-0.92388916015625
1759674564340,802585496,7986,30,0.42431640625,0.05487060546875,-0.91827392578125
1759674564340,802585496,7986,31,0.423828125,0.05609130859375,-0.92047119140625
1759674566741,802588076,7987,0,0.4248046875,0.05535888671875,-0.92266845703125
1759674566741,802588076,7987,1,0.423095703125,0.05462646484375,-0.91900634765625
1759674566741,802588076,7987,2,0.424560546875,0.05145263671875,-0.91851806640625
1759674566741,802588076,7987,3,0.4287109375,0.05218505859375,-0.92510986328125
1759674566741,802588076,7987,4,0.42529296875,0.05194091796875,-0.92266845703125
1759674566741,802588076,7987,5,0.4248046875,0.04925537109375,-0.92559814453125
1759674566741,802588076,7987,6,0.421630859375,0.04486083984375,-0.92633056640625
1759674566741,802588076,7987,7,0.416015625,0.04193115234375,-0.92535400390625
1759674566741,802588076,7987,8,0.4150390625,0.04437255859375,-0.93072509765625
1759674566741,802588076,7987,9,0.412841796875,0.04486083984375,-0.92437744140625
1759674566741,802588076,7987,10,0.41259765625,0.04632568359375,-0.92364501953125
1759674566741,802588076,7987,11,0.411376953125,0.04876708984375,-0.92681884765625
1759674566741,802588076,7987,12,0.4130859375,0.05804443359375,-0.92828369140625
1759674566741,802588076,7987,13,0.412109375,0.06268310546875,-0.92755126953125
1759674566741,802588076,7987,14,0.413818359375,0.06390380859375,-0.92803955078125
1759674566741,802588076,7987,15,0.413818359375,0.06488037109375,-0.92413330078125
1759674566741,802588076,7987,16,0.41552734375,0.07122802734375,-0.92340087890625
1759674566741,802588076,7987,17,0.41796875,0.06951904296875,-0.92755126953125
1759674566741,802588076,7987,18,0.416748046875,0.06805419921875,-0.92340087890625
1759674566741,802588076,7987,19,0.418212890625,0.06683349609375,-0.92657470703125
1759674566741,802588076,7987,20,0.417236328125,0.06414794921875,-0.92218017578125
1759674566741,802588076,7987,21,0.417724609375,0.06488037109375,-0.92681884765625
1759674566741,802588076,7987,22,0.419921875,0.06341552734375,-0.92462158203125
1759674566741,802588076,7987,23,0.418212890625,0.06268310546875,-0.92608642578125
1759674566741,802588076,7987,24,0.420654296875,0.06048583984375,-0.92266845703125
1759674566741,802588076,7987,25,0.418701171875,0.06243896484375,-0.92535400390625
1759674566741,802588076,7987,26,0.422607421875,0.06341552734375,-0.92510986328125
1759674566741,802588076,7987,27,0.41650390625,0.06439208984375,-0.92657470703125
1759674566741,802588076,7987,28,0.4228515625,0.06341552734375,-0.92315673828125
1759674566741,802588076,7987,29,0.41845703125,0.06414794921875,-0.92144775390625
1759674566741,802588076,7987,30,0.420654296875,0.05853271484375,-0.92340087890625
1759674566741,802588076,7987,31,0.421630859375,0.05999755859375,-0.92388916015625
1759674569591,802590655,7988,0,0.421142578125,0.06048583984375,-0.92120361328125
1759674569591,802590655,7988,1,0.4228515625,0.05926513671875,-0.92120361328125
1759674569591,802590655,7988,2,0.422119140625,0.06292724609375,-0.92608642578125
1759674569591,802590655,7988,3,0.418212890625,0.06146240234375,-0.91632080078125
1759674569591,802590655,7988,4,0.422119140625,0.05975341796875,-0.92218017578125
1759674569591,802590655,7988,5,0.42333984375,0.05926513671875,-0.92584228515625
1759674569591,802590655,7988,6,0.425048828125,0.05999755859375,-0.92413330078125
1759674569591,802590655,7988,7,0.427001953125,0.05511474609375,-0.92291259765625
1759674569591,802590655,7988,8,0.42529296875,0.05462646484375,-0.92877197265625
1759674569591,802590655,7988,9,0.414794921875,0.05975341796875,-0.91754150390625
1759674569591,802590655,7988,10,0.423095703125,0.05487060546875,-0.92535400390625
1759674569591,802590655,7988,11,0.42041015625,0.05633544921875,-0.92291259765625
1759674569591,802590655,7988,12,0.4228515625,0.05731201171875,-0.92266845703125
1759674569591,802590655,7988,13,0.426025390625,0.05560302734375,-0.92657470703125
1759674569591,802590655,7988,14,0.424072265625,0.05633544921875,-0.91827392578125
1759674569591,802590655,7988,15,0.422607421875,0.05462646484375,-0.92144775390625
1759674569591,802590655,7988,16,0.42431640625,0.05535888671875,-0.92242431640625
1759674569591,802590655,7988,17,0.421875,0.05291748046875,-0.91949462890625
1759674569591,802590655,7988,18,0.42333984375,0.05462646484375,-0.92095947265625
1759674569591,802590655,7988,19,0.426025390625,0.05096435546875,-0.92486572265625
1759674569591,802590655,7988,20,0.429443359375,0.04998779296875,-0.92193603515625
1759674569591,802590655,7988,21,0.43310546875,0.04949951171875,-0.92535400390625
1759674569591,802590655,7988,22,0.428955078125,0.04852294921875,-0.92828369140625
1759674569591,802590655,7988,23,0.4189453125,0.05389404296875,-0.92022705078125
1759674569591,802590655,7988,24,0.421142578125,0.05584716796875,-0.91778564453125
1759674569591,802590655,7988,25,0.42822265625,0.05364990234375,-0.92120361328125
1759674569591,802590655,7988,26,0.42578125,0.05169677734375,-0.91900634765625
1759674569591,802590655,7988,27,0.42626953125,0.05364990234375,-0.92510986328125
1759674569591,802590655,7988,28,0.426513671875,0.05291748046875,-0.91998291015625
1759674569591,802590655,7988,29,0.427978515625,0.05096435546875,-0.92340087890625
1759674569591,802590655,7988,30,0.431884765625,0.05267333984375,-0.92169189453125
1759674569591,802590655,7988,31,0.42724609375,0.05389404296875,-0.92388916015625
1759674571991,802593234,7989,0,0.429931640625,0.06488037109375,-0.92047119140625
1759674571991,802593234,7989,1,0.438232421875,0.06561279296875,-0.91583251953125
1759674571991,802593234,7989,2,0.439208984375,0.06414794921875,-0.91754150390625
1759674571991,802593234,7989,3,0.438720703125,0.06414794921875,-0.91510009765625
1759674571991,802593234,7989,4,0.439453125,0.06048583984375,-0.91876220703125
1759674571991,802593234,7989,5,0.441162109375,0.06072998046875,-0.91729736328125
1759674571991,802593234,7989,6,0.43701171875,0.05950927734375,-0.91729736328125
1759674571991,802593234,7989,7,0.43603515625,0.06072998046875,-0.91436767578125
1759674571991,802593234,7989,8,0.4375,0.06097412109375,-0.91314697265625
1759674571991,802593234,7989,9,0.442138671875,0.05780029296875,-0.91461181640625
1759674571991,802593234,7989,10,0.433837890625,0.05828857421875,-0.91021728515625
1759674571991,802593234,7989,11,0.436767578125,0.05291748046875,-0.93023681640625
1759674571991,802593234,7989,12,0.429931640625,0.05194091796875,-0.92193603515625
1759674571991,802593234,7989,13,0.42822265625,0.05218505859375,-0.92755126953125
1759674571991,802593234,7989,14,0.4267578125,0.05218505859375,-0.91998291015625
1759674571991,802593234,7989,15,0.425537109375,0.05242919921875,-0.92022705078125
1759674571991,802593234,7989,16,0.431640625,0.05340576171875,-0.91851806640625
1759674571991,802593234,7989,17,0.428466796875,0.05853271484375,-0.91754150390625
1759674571991,802593234,7989,18,0.42578125,0.05902099609375,-0.92022705078125
1759674571991,802593234,7989,19,0.42919921875,0.05218505859375,-0.92242431640625
1759674571991,802593234,7989,20,0.427978515625,0.05975341796875,-0.92193603515625
1759674571991,802593234,7989,21,0.428466796875,0.05633544921875,-0.92535400390625
1759674571991,802593234,7989,22,0.4267578125,0.05877685546875,-0.92218017578125
1759674571991,802593234,7989,23,0.42626953125,0.05755615234375,-0.91778564453125
1759674571991,802593234,7989,24,0.43017578125,0.05413818359375,-0.92388916015625
1759674571991,802593234,7989,25,0.42724609375,0.05706787109375,-0.92291259765625
1759674571991,802593234,7989,26,0.426025390625,0.05535888671875,-0.91998291015625
1759674571991,802593234,7989,27,0.4287109375,0.05877685546875,-0.92169189453125
1759674571991,802593234,7989,28,0.42724609375,0.05902099609375,-0.92242431640625
1759674571991,802593234,7989,29,0.431640625,0.05340576171875,-0.92413330078125
1759674571991,802593234,7989,30,0.42919921875,0.05731201171875,-0.92535400390625
1759674571991,802593234,7989,31,0.432861328125,0.05755615234375,-0.92510986328125
1759674574537,802595813,7990,0,0.4296875,0.05682373046875,-0.91778564453125
1759674574537,802595813,7990,1,0.429443359375,0.05950927734375,-0.91607666015625
1759674574537,802595813,7990,2,0.427734375,0.05682373046875,-0.92144775390625
1759674574537,802595813,7990,3,0.42431640625,0.05731201171875,-0.92120361328125
1759674574537,802595813,7990,4,0.427734375,0.05609130859375,-0.92047119140625
1759674574537,802595813,7990,5,0.425048828125,0.05535888671875,-0.91900634765625
1759674574537,802595813,7990,6,0.432861328125,0.05364990234375,-0.92413330078125
1759674574537,802595813,7990,7,0.427734375,0.05340576171875,-0.91558837890625
1759674574537,802595813,7990,8,0.43408203125,0.05316162109375,-0.92169189453125
1759674574537,802595813,7990,9,0.430419921875,0.05560302734375,-0.92242431640625
1759674574537,802595813,7990,10,0.427978515625,0.05389404296875,-0.92169189453125
1759674574537,802595813,7990,11,0.4287109375,0.05316162109375,-0.92144775390625
1759674574537,802595813,7990,12,0.430419921875,0.05096435546875,-0.92071533203125
1759674574537,802595813,7990,13,0.43017578125,0.05291748046875,-0.92462158203125
1759674574537,802595813,7990,14,0.43017578125,0.05169677734375,-0.91925048828125
1759674574537,802595813,7990,15,0.43212890625,0.06097412109375,-0.91705322265625
1759674574537,802595813,7990,16,0.43359375,0.05780029296875,-0.91973876953125
1759674574537,802595813,7990,17,0.430908203125,0.05438232421875,-0.91925048828125
1759674574537,802595813,7990,18,0.430908203125,0.05780029296875,-0.92144775390625
1759674574537,802595813,7990,19,0.4296875,0.05828857421875,-0.92047119140625
1759674574537,802595813,7990,20,0.427490234375,0.05487060546875,-0.91925048828125
1759674574537,802595813,7990,21,0.426513671875,0.05413818359375,-0.92169189453125
1759674574537,802595813,7990,22,0.427490234375,0.05657958984375,-0.92193603515625
1759674574537,802595813,7990,23,0.42724609375,0.05682373046875,-0.91973876953125
1759674574537,802595813,7990,24,0.43115234375,0.05804443359375,-0.92315673828125
1759674574537,802595813,7990,25,0.426513671875,0.05535888671875,-0.91387939453125
1759674574537,802595813,7990,26,0.430419921875,0.05535888671875,-0.92169189453125
1759674574537,802595813,7990,27,0.4306640625,0.05438232421875,-0.92266845703125
1759674574537,802595813,7990,28,0.427978515625,0.05853271484375,-0.91949462890625
1759674574537,802595813,7990,29,0.430419921875,0.05584716796875,-0.92291259765625
1759674574537,802595813,7990,30,0.42724609375,0.05511474609375,-0.92218017578125
1759674574537,802595813,7990,31,0.427734375,0.05609130859375,-0.92022705078125
1759674577091,802598392,7991,0,0.43017578125,0.05242919921875,-0.91851806640625
1759674577091,802598392,7991,1,0.427734375,0.05413818359375,-0.92291259765625
1759674577091,802598392,7991,2,0.427490234375,0.05413818359375,-0.92095947265625
1759674577091,802598392,7991,3,0.427734375,0.05511474609375,-0.92218017578125
1759674577091,802598392,7991,4,0.42822265625,0.05584716796875,-0.91851806640625
1759674577091,802598392,7991,5,0.42724609375,0.05438232421875,-0.92047119140625
1759674577091,802598392,7991,6,0.42724609375,0.05316162109375,-0.91949462890625
1759674577091,802598392,7991,7,0.4287109375,0.05511474609375,-0.92193603515625
1759674577091,802598392,7991,8,0.428955078125,0.05706787109375,-0.92144775390625
1759674577091,802598392,7991,9,0.4306640625,0.05877685546875,-0.92437744140625
1759674577091,802598392,7991,10,0.426513671875,0.05584716796875,-0.92340087890625
1759674577091,802598392,7991,11,0.427490234375,0.05902099609375,-0.92291259765625
1759674577091,802598392,7991,12,0.42822265625,0.05633544921875,-0.92315673828125
1759674577091,802598392,7991,13,0.42724609375,0.05584716796875,-0.92144775390625
1759674577091,802598392,7991,14,0.427490234375,0.05364990234375,-0.92071533203125
1759674577091,802598392,7991,15,0.42626953125,0.05194091796875,-0.92193603515625
1759674577091,802598392,7991,16,0.4287109375,0.05340576171875,-0.92340087890625
1759674577091,802598392,7991,17,0.42626953125,0.05462646484375,-0.92169189453125
1759674577091,802598392,7991,18,0.430419921875,0.05609130859375,-0.92340087890625
1759674577091,802598392,7991,19,0.43115234375,0.05780029296875,-0.92340087890625
1759674577091,802598392,7991,20,0.427978515625,0.05364990234375,-0.91925048828125
1759674577091,802598392,7991,21,0.430908203125,0.05511474609375,-0.92193603515625
1759674577091,802598392,7991,22,0.428955078125,0.05389404296875,-0.92364501953125
1759674577091,802598392,7991,23,0.43017578125,0.05340576171875,-0.92437744140625
1759674577091,802598392,7991,24,0.42822265625,0.05511474609375,-0.91949462890625
1759674577091,802598392,7991,25,0.431396484375,0.05535888671875,-0.91998291015625
1759674577091,802598392,7991,26,0.432373046875,0.05828857421875,-0.92022705078125
1759674577091,802598392,7991,27,0.43359375,0.05657958984375,-0.92266845703125
1759674577091,802598392,7991,28,0.43408203125,0.05999755859375,-0.92266845703125
1759674577091,802598392,7991,29,0.431884765625,0.05853271484375,-0.91705322265625
1759674577091,802598392,7991,30,0.43408203125,0.05780029296875,-0.91949462890625
1759674577091,802598392,7991,31,0.43212890625,0.05926513671875,-0.91534423828125
1759674579791,802600971,7992,0,0.43310546875,0.05682373046875,-0.91461181640625
1759674579791,802600971,7992,1,0.43212890625,0.05535888671875,-0.92242431640625
1759674579791,802600971,7992,2,0.42626953125,0.05633544921875,-0.91436767578125
1759674579791,802600971,7992,3,0.423828125,0.05877685546875,-0.92852783203125
1759674579791,802600971,7992,4,0.421875,0.06561279296875,-0.93756103515625
1759674579791,802600971,7992,5,0.427490234375,0.06585693359375,-0.91925048828125
1759674579791,802600971,7992,6,0.431396484375,0.05682373046875,-0.89874267578125
1759674579791,802600971,7992,7,0.433349609375,0.07122802734375,-0.91680908203125
1759674579791,802600971,7992,8,0.434814453125,0.07171630859375,-0.92169189453125
1759674579791,802600971,7992,9,0.4345703125,0.06707763671875,-0.92193603515625
1759674579791,802600971,7992,10,0.431884765625,0.06732177734375,-0.91290283203125
1759674579791,802600971,7992,11,0.436767578125,0.06610107421875,-0.92169189453125
1759674579791,802600971,7992,12,0.430419921875,0.06951904296875,-0.91412353515625
1759674579791,802600971,7992,13,0.43017578125,0.07049560546875,-0.91583251953125
1759674579791,802600971,7992,14,0.432861328125,0.06756591796875,-0.92144775390625
1759674579791,802600971,7992,15,0.424560546875,0.06976318359375,-0.91949462890625
1759674579791,802600971,7992,16,0.4287109375,0.06512451171875,-0.91827392578125
1759674579791,802600971,7992,17,0.423828125,0.06951904296875,-0.91754150390625
1759674579791,802600971,7992,18,0.427978515625,0.06683349609375,-0.91827392578125
1759674579791,802600971,7992,19,0.420654296875,0.07220458984375,-0.91705322265625
1759674579791,802600971,7992,20,0.419921875,0.07220458984375,-0.91705322265625
1759674579791,802600971,7992,21,0.427001953125,0.06536865234375,-0.91925048828125
1759674579791,802600971,7992,22,0.428466796875,0.06756591796875,-0.91876220703125
1759674579791,802600971,7992,23,0.4365234375,0.06536865234375,-0.91998291015625
1759674579791,802600971,7992,24,0.4267578125,0.06683349609375,-0.91461181640625
1759674579791,802600971,7992,25,0.43212890625,0.06268310546875,-0.92340087890625
1759674579791,802600971,7992,26,0.428955078125,0.06219482421875,-0.91925048828125
1759674579791,802600971,7992,27,0.430908203125,0.06097412109375,-0.91998291015625
1759674579791,802600971,7992,28,0.427978515625,0.06195068359375,-0.92144775390625
1759674579791,802600971,7992,29,0.43115234375,0.06121826171875,-0.91973876953125
1759674579791,802600971,7992,30,0.4296875,0.06219482421875,-0.91900634765625
1759674579791,802600971,7992,31,0.430908203125,0.06097412109375,-0.92315673828125
1759674582341,802603550,7993,0,0.435302734375,0.06268310546875,-0.92193603515625
1759674582341,802603550,7993,1,0.42724609375,0.06707763671875,-0.91656494140625
1759674582341,802603550,7993,2,0.429931640625,0.06195068359375,-0.91900634765625
1759674582341,802603550,7993,3,0.432373046875,0.06219482421875,-0.91925048828125
1759674582341,802603550,7993,4,0.430908203125,0.06048583984375,-0.91998291015625
1759674582341,802603550,7993,5,0.42431640625,0.06634521484375,-0.91510009765625
1759674582341,802603550,7993,6,0.4287109375,0.06268310546875,-0.92266845703125
1759674582341,802603550,7993,7,0.429443359375,0.06707763671875,-0.91973876953125
1759674582341,802603550,7993,8,0.42919921875,0.06170654296875,-0.91900634765625
1759674582341,802603550,7993,9,0.42919921875,0.06390380859375,-0.91973876953125
1759674582341,802603550,7993,10,0.42822265625,0.06292724609375,-0.91851806640625
1759674582341,802603550,7993,11,0.429931640625,0.06268310546875,-0.91632080078125
1759674582341,802603550,7993,12,0.42822265625,0.06195068359375,-0.91729736328125
1759674582341,802603550,7993,13,0.434814453125,0.06439208984375,-0.91412353515625
1759674582341,802603550,7993,14,0.426025390625,0.06610107421875,-0.91119384765625
1759674582341,802603550,7993,15,0.432861328125,0.06048583984375,-0.92535400390625
1759674582341,802603550,7993,16,0.43896484375,0.05853271484375,-0.91510009765625
1759674582341,802603550,7993,17,0.4384765625,0.06365966796875,-0.92120361328125
1759674582341,802603550,7993,18,0.434814453125,0.06976318359375,-0.91412353515625
1759674582341,802603550,7993,19,0.43896484375,0.06439208984375,-0.91534423828125
1759674582341,802603550,7993,20,0.439697265625,0.06390380859375,-0.91607666015625
1759674582341,802603550,7993,21,0.437744140625,0.06097412109375,-0.91607666015625
1759674582341,802603550,7993,22,0.440673828125,0.06170654296875,-0.91632080078125
1759674582341,802603550,7993,23,0.43603515625,0.06170654296875,-0.91534423828125
1759674582341,802603550,7993,24,0.439453125,0.06170654296875,-0.91632080078125
1759674582341,802603550,7993,25,0.43896484375,0.06195068359375,-0.91558837890625
1759674582341,802603550,7993,26,0.439453125,0.06195068359375,-0.91436767578125
1759674582341,802603550,7993,27,0.439697265625,0.06121826171875,-0.91510009765625
1759674582341,802603550,7993,28,0.439208984375,0.05975341796875,-0.91778564453125
1759674582341,802603550,7993,29,0.435302734375,0.05828857421875,-0.91656494140625
1759674582341,802603550,7993,30,0.428466796875,0.05877685546875,-0.91680908203125
1759674582341,802603550,7993,31,0.43212890625,0.06268310546875,-0.92071533203125
1759674584890,802606129,7994,0,0.43017578125,0.06805419921875,-0.91851806640625
1759674584890,802606129,7994,1,0.42724609375,0.07122802734375,-0.92022705078125
1759674584890,802606129,7994,2,0.427734375,0.07830810546875,-0.92291259765625
1759674584890,802606129,7994,3,0.425537109375,0.08172607421875,-0.91143798828125
1759674584890,802606129,7994,4,0.4267578125,0.08392333984375,-0.91680908203125
1759674584890,802606129,7994,5,0.42919921875,0.08294677734375,-0.91583251953125
1759674584890,802606129,7994,6,0.43115234375,0.07928466796875,-0.91925048828125
1759674584890,802606129,7994,7,0.43359375,0.08319091796875,-0.91656494140625
1759674584890,802606129,7994,8,0.431884765625,0.08441162109375,-0.91363525390625
1759674584890,802606129,7994,9,0.43896484375,0.08026123046875,-0.91583251953125
1759674584890,802606129,7994,10,0.429931640625,0.08172607421875,-0.91632080078125
1759674584890,802606129,7994,11,0.432861328125,0.07830810546875,-0.91729736328125
1759674584890,802606129,7994,12,0.436279296875,0.07562255859375,-0.92266845703125
1759674584890,802606129,7994,13,0.437255859375,0.07904052734375,-0.91412353515625
1759674584890,802606129,7994,14,0.423583984375,0.08074951171875,-0.91534423828125
1759674584890,802606129,7994,15,0.425537109375,0.08001708984375,-0.91998291015625
1759674584890,802606129,7994,16,0.421630859375,0.07977294921875,-0.91485595703125
1759674584890,802606129,7994,17,0.43359375,0.07708740234375,-0.91705322265625
1759674584890,802606129,7994,18,0.431884765625,0.07342529296875,-0.91436767578125
1759674584890,802606129,7994,19,0.430419921875,0.07318115234375,-0.91558837890625
1759674584890,802606129,7994,20,0.43408203125,0.07171630859375,-0.91314697265625
1759674584890,802606129,7994,21,0.43310546875,0.07073974609375,-0.91754150390625
1759674584890,802606129,7994,22,0.432373046875,0.07244873046875,-0.91607666015625
1759674584890,802606129,7994,23,0.42822265625,0.07196044921875,-0.91802978515625
1759674584890,802606129,7994,24,0.4296875,0.07366943359375,-0.92535400390625
1759674584890,802606129,7994,25,0.4267578125,0.07049560546875,-0.92266845703125
1759674584890,802606129,7994,26,0.43115234375,0.06976318359375,-0.91583251953125
1759674584890,802606129,7994,27,0.429931640625,0.07147216796875,-0.92022705078125
1759674584890,802606129,7994,28,0.4326171875,0.07220458984375,-0.91705322265625
1759674584890,802606129,7994,29,0.42822265625,0.07293701171875,-0.91583251953125
1759674584890,802606129,7994,30,0.428466796875,0.07415771484375,-0.91827392578125
1759674584890,802606129,7994,31,0.43115234375,0.07000732421875,-0.92242431640625
1759674587591,802608709,7995,0,0.43505859375,0.06829833984375,-0.91290283203125
1759674587591,802608709,7995,1,0.433349609375,0.06707763671875,-0.92242431640625
1759674587591,802608709,7995,2,0.4306640625,0.07049560546875,-0.91412353515625
1759674587591,802608709,7995,3,0.434326171875,0.07073974609375,-0.92047119140625
1759674587591,802608709,7995,4,0.4326171875,0.06610107421875,-0.91046142578125
1759674587591,802608709,7995,5,0.433837890625,0.06756591796875,-0.91632080078125
1759674587591,802608709,7995,6,0.4345703125,0.07000732421875,-0.92340087890625
1759674587591,802608709,7995,7,0.43408203125,0.07025146484375,-0.91632080078125
1759674587591,802608709,7995,8,0.43896484375,0.06951904296875,-0.91949462890625
1759674587591,802608709,7995,9,0.433349609375,0.07049560546875,-0.91070556640625
1759674587591,802608709,7995,10,0.429443359375,0.07098388671875,-0.91607666015625
1759674587591,802608709,7995,11,0.430908203125,0.07269287109375,-0.91412353515625
1759674587591,802608709,7995,12,0.4326171875,0.06976318359375,-0.91143798828125
1759674587591,802608709,7995,13,0.436767578125,0.07025146484375,-0.91949462890625
1759674587591,802608709,7995,14,0.4326171875,0.07244873046875,-0.91217041015625
1759674587591,802608709,7995,15,0.441162109375,0.07537841796875,-0.92120361328125
1759674587591,802608709,7995,16,0.43505859375,0.07537841796875,-0.91070556640625
1759674587591,802608709,7995,17,0.441162109375,0.07025146484375,-0.91998291015625
1759674587591,802608709,7995,18,0.436767578125,0.06951904296875,-0.91265869140625
1759674587591,802608709,7995,19,0.439697265625,0.07342529296875,-0.91632080078125
1759674587591,802608709,7995,20,0.437744140625,0.07098388671875,-0.91680908203125
1759674587591,802608709,7995,21,0.43994140625,0.07000732421875,-0.91339111328125
1759674587591,802608709,7995,22,0.4365234375,0.06878662109375,-0.91363525390625
1759674587591,802608709,7995,23,0.438232421875,0.06658935546875,-0.91680908203125
1759674587591,802608709,7995,24,0.43896484375,0.06292724609375,-0.91754150390625
1759674587591,802608709,7995,25,0.43994140625,0.06561279296875,-0.91632080078125
1759674587591,802608709,7995,26,0.4365234375,0.06341552734375,-0.91802978515625
1759674587591,802608709,7995,27,0.433837890625,0.06488037109375,-0.91510009765625
1759674587591,802608709,7995,28,0.4404296875,0.06365966796875,-0.91680908203125
1759674587591,802608709,7995,29,0.4365234375,0.06268310546875,-0.91851806640625
1759674587591,802608709,7995,30,0.43359375,0.05804443359375,-0.91534423828125
1759674587591,802608709,7995,31,0.4326171875,0.05999755859375,-0.91973876953125
1759674589990,802611288,7996,0,0.43017578125,0.06072998046875,-0.91900634765625
1759674589990,802611288,7996,1,0.428466796875,0.05755615234375,-0.92193603515625
1759674589990,802611288,7996,2,0.427978515625,0.05755615234375,-0.92315673828125
1759674589990,802611288,7996,3,0.42724609375,0.06048583984375,-0.91925048828125
1759674589990,802611288,7996,4,0.428466796875,0.05780029296875,-0.92315673828125
1759674589990,802611288,7996,5,0.42626953125,0.05853271484375,-0.91558837890625
1759674589990,802611288,7996,6,0.42724609375,0.06756591796875,-0.92462158203125
1759674589990,802611288,7996,7,0.42431640625,0.06927490234375,-0.91510009765625
1759674589990,802611288,7996,8,0.427490234375,0.06781005859375,-0.92413330078125
1759674589990,802611288,7996,9,0.425048828125,0.06756591796875,-0.91656494140625
1759674589990,802611288,7996,10,0.43017578125,0.06658935546875,-0.91925048828125
1759674589990,802611288,7996,11,0.427001953125,0.06634521484375,-0.92047119140625
1759674589990,802611288,7996,12,0.427978515625,0.06854248046875,-0.91949462890625
1759674589990,802611288,7996,13,0.426513671875,0.06390380859375,-0.92266845703125
1759674589990,802611288,7996,14,0.426513671875,0.06756591796875,-0.92486572265625
1759674589990,802611288,7996,15,0.428955078125,0.06512451171875,-0.91632080078125
1759674589990,802611288,7996,16,0.429443359375,0.06634521484375,-0.92047119140625
1759674589990,802611288,7996,17,0.429931640625,0.06927490234375,-0.91973876953125
1759674589990,802611288,7996,18,0.42919921875,0.07025146484375,-0.91729736328125
1759674589990,802611288,7996,19,0.4306640625,0.07708740234375,-0.91607666015625
1759674589990,802611288,7996,20,0.432373046875,0.07830810546875,-0.91534423828125
1759674589990,802611288,7996,21,0.4345703125,0.07318115234375,-0.91900634765625
1759674589990,802611288,7996,22,0.43603515625,0.07073974609375,-0.91925048828125
1759674589990,802611288,7996,23,0.431396484375,0.06903076171875,-0.91729736328125
1759674589990,802611288,7996,24,0.435791015625,0.07440185546875,-0.91607666015625
1759674589990,802611288,7996,25,0.433837890625,0.07293701171875,-0.91558837890625
1759674589990,802611288,7996,26,0.43310546875,0.07293701171875,-0.91900634765625
1759674589990,802611288,7996,27,0.43701171875,0.07220458984375,-0.91510009765625
1759674589990,802611288,7996,28,0.435791015625,0.07342529296875,-0.91949462890625
1759674589990,802611288,7996,29,0.433837890625,0.06903076171875,-0.91705322265625
1759674589990,802611288,7996,30,0.437255859375,0.07025146484375,-0.91925048828125
1759674589990,802611288,7996,31,0.440185546875,0.07025146484375,-0.92047119140625
1759674592539,802613867,7997,0,0.42724609375,0.06976318359375,-0.90753173828125
1759674592539,802613867,7997,1,0.427978515625,0.06463623046875,-0.91461181640625
1759674592539,802613867,7997,2,0.430908203125,0.06512451171875,-0.91925048828125
1759674592539,802613867,7997,3,0.43603515625,0.06317138671875,-0.91705322265625
1759674592539,802613867,7997,4,0.43505859375,0.06341552734375,-0.91314697265625
1759674592539,802613867,7997,5,0.437744140625,0.06146240234375,-0.91680908203125
1759674592539,802613867,7997,6,0.4365234375,0.06024169921875,-0.91485595703125
1759674592539,802613867,7997,7,0.43310546875,0.05999755859375,-0.91900634765625
1759674592539,802613867,7997,8,0.435791015625,0.06219482421875,-0.91558837890625
1759674592539,802613867,7997,9,0.44091796875,0.06292724609375,-0.91778564453125
1759674592539,802613867,7997,10,0.43994140625,0.06292724609375,-0.91778564453125
1759674592539,802613867,7997,11,0.4375,0.06317138671875,-0.91314697265625
1759674592539,802613867,7997,12,0.4423828125,0.06292724609375,-0.91827392578125
1759674592539,802613867,7997,13,0.431884765625,0.06414794921875,-0.91412353515625
1759674592539,802613867,7997,14,0.43994140625,0.06048583984375,-0.92022705078125
1759674592539,802613867,7997,15,0.440185546875,0.06268310546875,-0.91754150390625
1759674592539,802613867,7997,16,0.436767578125,0.06219482421875,-0.91558837890625
1759674592539,802613867,7997,17,0.438232421875,0.05877685546875,-0.91754150390625
1759674592539,802613867,7997,18,0.4365234375,0.05999755859375,-0.91925048828125
1759674592539,802613867,7997,19,0.435302734375,0.06390380859375,-0.91119384765625
1759674592539,802613867,7997,20,0.43701171875,0.06585693359375,-0.91607666015625
1759674592539,802613867,7997,21,0.437255859375,0.06439208984375,-0.91412353515625
1759674592539,802613867,7997,22,0.4375,0.06365966796875,-0.91680908203125
1759674592539,802613867,7997,23,0.440673828125,0.06390380859375,-0.91241455078125
1759674592539,802613867,7997,24,0.43896484375,0.06072998046875,-0.91827392578125
1759674592539,802613867,7997,25,0.4404296875,0.06195068359375,-0.91632080078125
1759674592539,802613867,7997,26,0.438720703125,0.06390380859375,-0.91632080078125
1759674592539,802613867,7997,27,0.44287109375,0.05853271484375,-0.91436767578125
1759674592539,802613867,7997,28,0.438232421875,0.06170654296875,-0.91558837890625
1759674592539,802613867,7997,29,0.440673828125,0.06170654296875,-0.91583251953125
1759674592539,802613867,7997,30,0.4423828125,0.05828857421875,-0.91436767578125
1759674592539,802613867,7997,31,0.439697265625,0.06072998046875,-0.91412353515625
1759674595241,802616446,7998,0,0.43896484375,0.05902099609375,-0.90972900390625
1759674595241,802616446,7998,1,0.442138671875,0.05657958984375,-0.91827392578125
1759674595241,802616446,7998,2,0.440673828125,0.06195068359375,-0.92852783203125
1759674595241,802616446,7998,3,0.44384765625,0.05975341796875,-0.90606689453125
1759674595241,802616446,7998,4,0.447509765625,0.05877685546875,-0.90216064453125
1759674595241,802616446,7998,5,0.447265625,0.05706787109375,-0.90777587890625
1759674595241,802616446,7998,6,0.448974609375,0.06536865234375,-0.91143798828125
1759674595241,802616446,7998,7,0.446044921875,0.06829833984375,-0.90704345703125
1759674595241,802616446,7998,8,0.44482421875,0.06512451171875,-0.91217041015625
1759674595241,802616446,7998,9,0.446044921875,0.06536865234375,-0.91754150390625
1759674595241,802616446,7998,10,0.442626953125,0.06903076171875,-0.91265869140625
1759674595241,802616446,7998,11,0.440185546875,0.06976318359375,-0.90997314453125
1759674595241,802616446,7998,12,0.4462890625,0.06561279296875,-0.91339111328125
1759674595241,802616446,7998,13,0.443115234375,0.06805419921875,-0.91290283203125
1759674595241,802616446,7998,14,0.4423828125,0.06976318359375,-0.90924072265625
1759674595241,802616446,7998,15,0.441650390625,0.06903076171875,-0.91094970703125
1759674595241,802616446,7998,16,0.442626953125,0.06976318359375,-0.91094970703125
1759674595241,802616446,7998,17,0.445068359375,0.06781005859375,-0.91217041015625
