receivedPhoneTimestamp,respeckTimestamp,packetSeqNum,sampleSeqNum,accelX,accelY,accelZ
1759597171047,698688858,13649,0,-0.826904296875,-0.21881103515625,0.53338623046875
1759597171047,698688858,13649,1,-0.82861328125,-0.21368408203125,0.53631591796875
1759597171047,698688858,13649,2,-0.8232421875,-0.22198486328125,0.53802490234375
1759597171047,698688858,13649,3,-0.831298828125,-0.21343994140625,0.53607177734375
1759597171047,698688858,13649,4,-0.82373046875,-0.21881103515625,0.53582763671875
1759597171047,698688858,13649,5,-0.826171875,-0.22052001953125,0.53363037109375
1759597171047,698688858,13649,6,-0.8251953125,-0.21636962890625,0.53729248046875
1759597171047,698688858,13649,7,-0.826416015625,-0.21783447265625,0.53363037109375
1759597171047,698688858,13649,8,-0.826416015625,-0.21832275390625,0.53607177734375
1759597171047,698688858,13649,9,-0.8212890625,-0.22027587890625,0.53460693359375
1759597171047,698688858,13649,10,-0.831298828125,-0.21466064453125,0.53631591796875
1759597171047,698688858,13649,11,-0.826904296875,-0.21075439453125,0.53558349609375
1759597171047,698688858,13649,12,-0.834716796875,-0.21514892578125,0.53192138671875
1759597171047,698688858,13649,13,-0.83154296875,-0.20880126953125,0.53192138671875
1759597171047,698688858,13649,14,-0.829345703125,-0.20806884765625,0.53265380859375
1759597171047,698688858,13649,15,-0.836181640625,-0.21392822265625,0.53436279296875
1759597171047,698688858,13649,16,-0.82666015625,-0.21490478515625,0.53778076171875
1759597171047,698688858,13649,17,-0.832763671875,-0.22320556640625,0.53582763671875
1759597171047,698688858,13649,18,-0.83544921875,-0.22247314453125,0.54046630859375
1759597171047,698688858,13649,19,-0.822998046875,-0.21759033203125,0.53167724609375
1759597171047,698688858,13649,20,-0.818115234375,-0.21881103515625,0.54461669921875
1759597171047,698688858,13649,21,-0.819580078125,-0.21881103515625,0.54388427734375
1759597171047,698688858,13649,22,-0.81298828125,-0.20880126953125,0.54339599609375
1759597171047,698688858,13649,23,-0.8212890625,-0.20416259765625,0.53436279296875
1759597171047,698688858,13649,24,-0.8212890625,-0.20977783203125,0.52386474609375
1759597171047,698688858,13649,25,-0.834228515625,-0.20928955078125,0.53045654296875
1759597171047,698688858,13649,26,-0.83203125,-0.20660400390625,0.53118896484375
1759597171047,698688858,13649,27,-0.833740234375,-0.20904541015625,0.53314208984375
1759597171047,698688858,13649,28,-0.828857421875,-0.20953369140625,0.53021240234375
1759597171047,698688858,13649,29,-0.828125,-0.21221923828125,0.53192138671875
1759597171047,698688858,13649,30,-0.83935546875,-0.21124267578125,0.52386474609375
1759597171047,698688858,13649,31,-0.836181640625,-0.21099853515625,0.52532958984375
1759597173575,698691425,13650,0,-0.8310546875,-0.20806884765625,0.53363037109375
1759597173575,698691425,13650,1,-0.8369140625,-0.21636962890625,0.53411865234375
1759597173575,698691425,13650,2,-0.82666015625,-0.20440673828125,0.52801513671875
1759597173575,698691425,13650,3,-0.832763671875,-0.21051025390625,0.53582763671875
1759597173575,698691425,13650,4,-0.829345703125,-0.21783447265625,0.53045654296875
1759597173575,698691425,13650,5,-0.831298828125,-0.21514892578125,0.52850341796875
1759597173575,698691425,13650,6,-0.82666015625,-0.20953369140625,0.53631591796875
1759597173575,698691425,13650,7,-0.828125,-0.22100830078125,0.53924560546875
1759597173575,698691425,13650,8,-0.819091796875,-0.20562744140625,0.53680419921875
1759597173575,698691425,13650,9,-0.824462890625,-0.21905517578125,0.54364013671875
1759597173575,698691425,13650,10,-0.82861328125,-0.20904541015625,0.53045654296875
1759597173575,698691425,13650,11,-0.822509765625,-0.21246337890625,0.53460693359375
1759597173575,698691425,13650,12,-0.8330078125,-0.22833251953125,0.53363037109375
1759597173575,698691425,13650,13,-0.827880859375,-0.21051025390625,0.53509521484375
1759597173575,698691425,13650,14,-0.8212890625,-0.22052001953125,0.54827880859375
1759597173575,698691425,13650,15,-0.822998046875,-0.21612548828125,0.54266357421875
1759597173575,698691425,13650,16,-0.822021484375,-0.20513916015625,0.54022216796875
1759597173575,698691425,13650,17,-0.82373046875,-0.21856689453125,0.53704833984375
1759597173575,698691425,13650,18,-0.83544921875,-0.21368408203125,0.53216552734375
1759597173575,698691425,13650,19,-0.83154296875,-0.21612548828125,0.53167724609375
1759597173575,698691425,13650,20,-0.82373046875,-0.21295166015625,0.53387451171875
1759597173575,698691425,13650,21,-0.835693359375,-0.20928955078125,0.53289794921875
1759597173575,698691425,13650,22,-0.830322265625,-0.21246337890625,0.53387451171875
1759597173575,698691425,13650,23,-0.8310546875,-0.20733642578125,0.52923583984375
1759597173575,698691425,13650,24,-0.825439453125,-0.19781494140625,0.53240966796875
1759597173575,698691425,13650,25,-0.83642578125,-0.21490478515625,0.53411865234375
1759597173575,698691425,13650,26,-0.826904296875,-0.24053955078125,0.54144287109375
1759597173575,698691425,13650,27,-0.82861328125,-0.21099853515625,0.52606201171875
1759597173575,698691425,13650,28,-0.84423828125,-0.20953369140625,0.52972412109375
1759597173575,698691425,13650,29,-0.8203125,-0.19537353515625,0.51434326171875
1759597173575,698691425,13650,30,-0.830810546875,-0.18414306640625,0.52825927734375
1759597173575,698691425,13650,31,-0.82666015625,-0.20660400390625,0.54827880859375
1759597176094,698693992,13651,0,-0.82275390625,-0.20196533203125,0.52801513671875
1759597176094,698693992,13651,1,-0.833984375,-0.20953369140625,0.53558349609375
1759597176094,698693992,13651,2,-0.837890625,-0.19293212890625,0.52874755859375
1759597176094,698693992,13651,3,-0.835205078125,-0.19805908203125,0.52777099609375
1759597176094,698693992,13651,4,-0.829833984375,-0.21661376953125,0.53704833984375
1759597176094,698693992,13651,5,-0.826416015625,-0.20806884765625,0.53631591796875
1759597176094,698693992,13651,6,-0.828125,-0.21441650390625,0.53900146484375
1759597176094,698693992,13651,7,-0.83349609375,-0.20806884765625,0.53411865234375
1759597176094,698693992,13651,8,-0.822509765625,-0.20172119140625,0.53338623046875
1759597176094,698693992,13651,9,-0.823486328125,-0.21124267578125,0.54339599609375
1759597176094,698693992,13651,10,-0.8349609375,-0.20318603515625,0.53289794921875
1759597176094,698693992,13651,11,-0.82763671875,-0.20489501953125,0.53314208984375
1759597176094,698693992,13651,12,-0.831298828125,-0.20147705078125,0.54119873046875
1759597176094,698693992,13651,13,-0.82177734375,-0.20587158203125,0.54315185546875
1759597176094,698693992,13651,14,-0.825927734375,-0.20367431640625,0.53973388671875
1759597176094,698693992,13651,15,-0.826904296875,-0.20245361328125,0.54339599609375
1759597176094,698693992,13651,16,-0.822998046875,-0.20098876953125,0.53704833984375
1759597176094,698693992,13651,17,-0.83984375,-0.20904541015625,0.53778076171875
1759597176094,698693992,13651,18,-0.81689453125,-0.19561767578125,0.53973388671875
1759597176094,698693992,13651,19,-0.8212890625,-0.20880126953125,0.54559326171875
1759597176094,698693992,13651,20,-0.8203125,-0.20782470703125,0.54754638671875
1759597176094,698693992,13651,21,-0.82666015625,-0.20343017578125,0.54461669921875
1759597176094,698693992,13651,22,-0.81689453125,-0.20343017578125,0.53729248046875
1759597176094,698693992,13651,23,-0.8251953125,-0.21148681640625,0.54193115234375
1759597176094,698693992,13651,24,-0.82421875,-0.19976806640625,0.54852294921875
1759597176094,698693992,13651,25,-0.81689453125,-0.21759033203125,0.54119873046875
1759597176094,698693992,13651,26,-0.826171875,-0.21124267578125,0.53778076171875
1759597176094,698693992,13651,27,-0.830810546875,-0.20513916015625,0.54168701171875
1759597176094,698693992,13651,28,-0.824462890625,-0.21124267578125,0.53802490234375
1759597176094,698693992,13651,29,-0.81787109375,-0.20318603515625,0.54681396484375
1759597176094,698693992,13651,30,-0.823974609375,-0.20196533203125,0.53924560546875
1759597176094,698693992,13651,31,-0.82421875,-0.21197509765625,0.53753662109375
1759597178792,698696559,13652,0,-0.82763671875,-0.21392822265625,0.53265380859375
1759597178792,698696559,13652,1,-0.821533203125,-0.21832275390625,0.54046630859375
1759597178792,698696559,13652,2,-0.8232421875,-0.21905517578125,0.54876708984375
1759597178792,698696559,13652,3,-0.813232421875,-0.20611572265625,0.53997802734375
1759597178792,698696559,13652,4,-0.824462890625,-0.21734619140625,0.54412841796875
1759597178792,698696559,13652,5,-0.825927734375,-0.21343994140625,0.53631591796875
1759597178792,698696559,13652,6,-0.825927734375,-0.20977783203125,0.54241943359375
1759597178792,698696559,13652,7,-0.822265625,-0.21221923828125,0.54315185546875
1759597178792,698696559,13652,8,-0.820068359375,-0.21759033203125,0.53924560546875
1759597178792,698696559,13652,9,-0.82861328125,-0.21490478515625,0.54364013671875
1759597178792,698696559,13652,10,-0.8251953125,-0.20904541015625,0.53533935546875
1759597178792,698696559,13652,11,-0.82177734375,-0.22222900390625,0.54241943359375
1759597178792,698696559,13652,12,-0.82421875,-0.21051025390625,0.54339599609375
1759597178792,698696559,13652,13,-0.81982421875,-0.21514892578125,0.54510498046875
1759597178792,698696559,13652,14,-0.82666015625,-0.21612548828125,0.54095458984375
1759597178792,698696559,13652,15,-0.82470703125,-0.21197509765625,0.53631591796875
1759597178792,698696559,13652,16,-0.818359375,-0.21490478515625,0.54046630859375
1759597178792,698696559,13652,17,-0.8203125,-0.21710205078125,0.54022216796875
1759597178792,698696559,13652,18,-0.818359375,-0.21466064453125,0.54437255859375
1759597178792,698696559,13652,19,-0.824462890625,-0.22027587890625,0.53656005859375
1759597178792,698696559,13652,20,-0.82275390625,-0.21417236328125,0.53387451171875
1759597178792,698696559,13652,21,-0.82470703125,-0.21783447265625,0.54241943359375
1759597178792,698696559,13652,22,-0.8212890625,-0.21881103515625,0.53973388671875
1759597178792,698696559,13652,23,-0.817138671875,-0.22662353515625,0.54388427734375
1759597178792,698696559,13652,24,-0.82421875,-0.22686767578125,0.53826904296875
1759597178792,698696559,13652,25,-0.82470703125,-0.21563720703125,0.54217529296875
1759597178792,698696559,13652,26,-0.824462890625,-0.21954345703125,0.54095458984375
1759597178792,698696559,13652,27,-0.82080078125,-0.21856689453125,0.54071044921875
1759597178792,698696559,13652,28,-0.8203125,-0.22149658203125,0.54168701171875
1759597178792,698696559,13652,29,-0.8212890625,-0.21441650390625,0.53973388671875
1759597178792,698696559,13652,30,-0.823486328125,-0.22149658203125,0.54315185546875
1759597178792,698696559,13652,31,-0.8203125,-0.22320556640625,0.54486083984375
1759597181315,698699126,13653,0,-0.821533203125,-0.22149658203125,0.53826904296875
1759597181315,698699126,13653,1,-0.82568359375,-0.21954345703125,0.53997802734375
1759597181315,698699126,13653,2,-0.822998046875,-0.21636962890625,0.53875732421875
1759597181315,698699126,13653,3,-0.82470703125,-0.21978759765625,0.53778076171875
1759597181315,698699126,13653,4,-0.822509765625,-0.21978759765625,0.54119873046875
1759597181315,698699126,13653,5,-0.824951171875,-0.21685791015625,0.53900146484375
1759597181315,698699126,13653,6,-0.8203125,-0.21490478515625,0.54364013671875
1759597181315,698699126,13653,7,-0.828125,-0.22247314453125,0.54290771484375
1759597181315,698699126,13653,8,-0.8203125,-0.22003173828125,0.54168701171875
1759597181315,698699126,13653,9,-0.822265625,-0.22198486328125,0.54266357421875
1759597181315,698699126,13653,10,-0.818603515625,-0.21807861328125,0.54217529296875
1759597181315,698699126,13653,11,-0.8212890625,-0.22174072265625,0.54119873046875
1759597181315,698699126,13653,12,-0.822509765625,-0.21856689453125,0.53729248046875
1759597181315,698699126,13653,13,-0.82373046875,-0.21783447265625,0.54144287109375
1759597181315,698699126,13653,14,-0.824462890625,-0.21954345703125,0.53485107421875
1759597181315,698699126,13653,15,-0.81591796875,-0.22100830078125,0.54266357421875
1759597181315,698699126,13653,16,-0.821044921875,-0.21856689453125,0.54486083984375
1759597181315,698699126,13653,17,-0.815673828125,-0.22589111328125,0.54974365234375
1759597181315,698699126,13653,18,-0.8193359375,-0.21466064453125,0.54705810546875
1759597181315,698699126,13653,19,-0.822021484375,-0.22271728515625,0.54876708984375
1759597181315,698699126,13653,20,-0.822998046875,-0.22540283203125,0.54486083984375
1759597181315,698699126,13653,21,-0.821044921875,-0.21197509765625,0.52996826171875
1759597181315,698699126,13653,22,-0.816162109375,-0.22418212890625,0.54339599609375
1759597181315,698699126,13653,23,-0.806884765625,-0.21197509765625,0.54486083984375
1759597181315,698699126,13653,24,-0.816650390625,-0.23199462890625,0.54852294921875
1759597181315,698699126,13653,25,-0.823486328125,-0.20953369140625,0.54217529296875
1759597181315,698699126,13653,26,-0.8193359375,-0.21783447265625,0.54486083984375
1759597181315,698699126,13653,27,-0.822265625,-0.21441650390625,0.54241943359375
1759597181315,698699126,13653,28,-0.82763671875,-0.22125244140625,0.52923583984375
1759597181315,698699126,13653,29,-0.82666015625,-0.20831298828125,0.55242919921875
1759597181315,698699126,13653,30,-0.82470703125,-0.19952392578125,0.53387451171875
1759597181315,698699126,13653,31,-0.83837890625,-0.20904541015625,0.53558349609375
1759597183839,698701693,13654,0,-0.82177734375,-0.20367431640625,0.53948974609375
1759597183839,698701693,13654,1,-0.828125,-0.21466064453125,0.53851318359375
1759597183839,698701693,13654,2,-0.8173828125,-0.20904541015625,0.53729248046875
1759597183839,698701693,13654,3,-0.822509765625,-0.21148681640625,0.54217529296875
1759597183839,698701693,13654,4,-0.83935546875,-0.23028564453125,0.54974365234375
1759597183839,698701693,13654,5,-0.816162109375,-0.21319580078125,0.54510498046875
1759597183839,698701693,13654,6,-0.82080078125,-0.20831298828125,0.54241943359375
1759597183839,698701693,13654,7,-0.8095703125,-0.20123291015625,0.53021240234375
1759597183839,698701693,13654,8,-0.82666015625,-0.20733642578125,0.53338623046875
1759597183839,698701693,13654,9,-0.82177734375,-0.21661376953125,0.53997802734375
1759597183839,698701693,13654,10,-0.833984375,-0.21246337890625,0.53631591796875
1759597183839,698701693,13654,11,-0.81591796875,-0.20001220703125,0.53460693359375
1759597183839,698701693,13654,12,-0.839599609375,-0.21734619140625,0.54583740234375
1759597183839,698701693,13654,13,-0.820068359375,-0.20831298828125,0.53778076171875
1759597183839,698701693,13654,14,-0.828857421875,-0.21148681640625,0.54144287109375
1759597183839,698701693,13654,15,-0.8251953125,-0.21270751953125,0.53680419921875
1759597183839,698701693,13654,16,-0.8271484375,-0.21173095703125,0.53509521484375
1759597183839,698701693,13654,17,-0.828369140625,-0.21124267578125,0.53924560546875
1759597183839,698701693,13654,18,-0.819580078125,-0.21002197265625,0.54193115234375
1759597183839,698701693,13654,19,-0.8251953125,-0.21856689453125,0.53729248046875
1759597183839,698701693,13654,20,-0.8310546875,-0.20416259765625,0.53948974609375
1759597183839,698701693,13654,21,-0.82373046875,-0.21075439453125,0.53631591796875
1759597183839,698701693,13654,22,-0.828857421875,-0.21075439453125,0.53607177734375
1759597183839,698701693,13654,23,-0.822021484375,-0.21368408203125,0.54510498046875
1759597183839,698701693,13654,24,-0.8212890625,-0.20074462890625,0.53436279296875
1759597183839,698701693,13654,25,-0.826904296875,-0.22467041015625,0.53631591796875
1759597183839,698701693,13654,26,-0.831787109375,-0.20587158203125,0.53363037109375
1759597183839,698701693,13654,27,-0.828125,-0.21026611328125,0.53948974609375
1759597183839,698701693,13654,28,-0.824462890625,-0.21295166015625,0.53826904296875
1759597183839,698701693,13654,29,-0.822509765625,-0.20806884765625,0.54071044921875
1759597183839,698701693,13654,30,-0.828857421875,-0.20635986328125,0.54046630859375
1759597183839,698701693,13654,31,-0.82373046875,-0.21514892578125,0.53802490234375
1759597186532,698704261,13655,0,-0.826416015625,-0.21026611328125,0.53802490234375
1759597186532,698704261,13655,1,-0.82373046875,-0.20953369140625,0.53851318359375
1759597186532,698704261,13655,2,-0.826416015625,-0.21466064453125,0.53485107421875
1759597186532,698704261,13655,3,-0.82568359375,-0.21319580078125,0.53778076171875
1759597186532,698704261,13655,4,-0.82373046875,-0.21099853515625,0.53485107421875
1759597186532,698704261,13655,5,-0.828857421875,-0.21173095703125,0.53607177734375
1759597186532,698704261,13655,6,-0.825439453125,-0.21441650390625,0.53680419921875
1759597186532,698704261,13655,7,-0.828369140625,-0.21099853515625,0.53875732421875
1759597186532,698704261,13655,8,-0.822509765625,-0.21246337890625,0.53802490234375
1759597186532,698704261,13655,9,-0.826171875,-0.21246337890625,0.53558349609375
1759597186532,698704261,13655,10,-0.8291015625,-0.21246337890625,0.53509521484375
1759597186532,698704261,13655,11,-0.82568359375,-0.21124267578125,0.53680419921875
1759597186532,698704261,13655,12,-0.827392578125,-0.21417236328125,0.53607177734375
1759597186532,698704261,13655,13,-0.822265625,-0.21466064453125,0.53875732421875
1759597186532,698704261,13655,14,-0.82177734375,-0.21295166015625,0.53973388671875
1759597186532,698704261,13655,15,-0.81982421875,-0.22515869140625,0.54168701171875
1759597186532,698704261,13655,16,-0.82421875,-0.21612548828125,0.54217529296875
1759597186532,698704261,13655,17,-0.82373046875,-0.22027587890625,0.53997802734375
1759597186532,698704261,13655,18,-0.8203125,-0.21343994140625,0.54339599609375
1759597186532,698704261,13655,19,-0.8115234375,-0.20562744140625,0.53997802734375
1759597186532,698704261,13655,20,-0.819091796875,-0.23394775390625,0.55072021484375
1759597186532,698704261,13655,21,-0.820556640625,-0.22491455078125,0.55194091796875
1759597186532,698704261,13655,22,-0.824462890625,-0.21197509765625,0.54144287109375
1759597186532,698704261,13655,23,-0.820068359375,-0.22125244140625,0.54364013671875
1759597186532,698704261,13655,24,-0.824951171875,-0.22857666015625,0.53875732421875
1759597186532,698704261,13655,25,-0.813232421875,-0.19757080078125,0.54510498046875
1759597186532,698704261,13655,26,-0.811279296875,-0.21612548828125,0.55096435546875
1759597186532,698704261,13655,27,-0.82763671875,-0.21881103515625,0.54412841796875
1759597186532,698704261,13655,28,-0.8369140625,-0.20245361328125,0.52996826171875
1759597186532,698704261,13655,29,-0.800537109375,-0.21075439453125,0.55853271484375
1759597186532,698704261,13655,30,-0.80517578125,-0.21514892578125,0.55511474609375
1759597186532,698704261,13655,31,-0.82861328125,-0.20050048828125,0.54119873046875
1759597189055,698706828,13656,0,-0.80712890625,-0.20416259765625,0.55096435546875
1759597189055,698706828,13656,1,-0.818115234375,-0.21270751953125,0.54364013671875
1759597189055,698706828,13656,2,-0.821533203125,-0.21490478515625,0.54608154296875
1759597189055,698706828,13656,3,-0.831787109375,-0.20294189453125,0.54608154296875
1759597189055,698706828,13656,4,-0.800048828125,-0.20660400390625,0.55023193359375
1759597189055,698706828,13656,5,-0.826171875,-0.22027587890625,0.54925537109375
1759597189055,698706828,13656,6,-0.818359375,-0.20025634765625,0.54705810546875
1759597189055,698706828,13656,7,-0.827880859375,-0.21051025390625,0.53948974609375
1759597189055,698706828,13656,8,-0.818359375,-0.21417236328125,0.53704833984375
1759597189055,698706828,13656,9,-0.8349609375,-0.20587158203125,0.53948974609375
1759597189055,698706828,13656,10,-0.82470703125,-0.20318603515625,0.53143310546875
1759597189055,698706828,13656,11,-0.832275390625,-0.21270751953125,0.53387451171875
1759597189055,698706828,13656,12,-0.830078125,-0.20098876953125,0.53436279296875
1759597189055,698706828,13656,13,-0.8271484375,-0.20977783203125,0.53533935546875
1759597189055,698706828,13656,14,-0.82958984375,-0.21099853515625,0.53485107421875
1759597189055,698706828,13656,15,-0.8232421875,-0.20391845703125,0.53460693359375
1759597189055,698706828,13656,16,-0.831298828125,-0.21783447265625,0.55413818359375
1759597189055,698706828,13656,17,-0.8212890625,-0.21051025390625,0.54266357421875
1759597189055,698706828,13656,18,-0.82470703125,-0.22930908203125,0.54632568359375
1759597189055,698706828,13656,19,-0.8173828125,-0.20050048828125,0.53363037109375
1759597189055,698706828,13656,20,-0.817138671875,-0.21099853515625,0.53778076171875
1759597189055,698706828,13656,21,-0.822509765625,-0.21221923828125,0.53656005859375
1759597189055,698706828,13656,22,-0.8203125,-0.21197509765625,0.54168701171875
1759597189055,698706828,13656,23,-0.833251953125,-0.20904541015625,0.53680419921875
1759597189055,698706828,13656,24,-0.828125,-0.20855712890625,0.53216552734375
1759597189055,698706828,13656,25,-0.82958984375,-0.20587158203125,0.53924560546875
1759597189055,698706828,13656,26,-0.8310546875,-0.20513916015625,0.53704833984375
1759597189055,698706828,13656,27,-0.8271484375,-0.20758056640625,0.53582763671875
1759597189055,698706828,13656,28,-0.828857421875,-0.20465087890625,0.53729248046875
1759597189055,698706828,13656,29,-0.830322265625,-0.21295166015625,0.53875732421875
1759597189055,698706828,13656,30,-0.82763671875,-0.19879150390625,0.53289794921875
1759597189055,698706828,13656,31,-0.82373046875,-0.21075439453125,0.53753662109375
1759597191575,698709395,13657,0,-0.833740234375,-0.21368408203125,0.53680419921875
1759597191575,698709395,13657,1,-0.8203125,-0.20465087890625,0.53802490234375
1759597191575,698709395,13657,2,-0.829833984375,-0.20635986328125,0.53485107421875
1759597191575,698709395,13657,3,-0.829833984375,-0.20953369140625,0.53509521484375
1759597191575,698709395,13657,4,-0.829833984375,-0.21466064453125,0.53680419921875
1759597191575,698709395,13657,5,-0.826416015625,-0.20733642578125,0.53387451171875
1759597191575,698709395,13657,6,-0.826904296875,-0.21343994140625,0.53363037109375
1759597191575,698709395,13657,7,-0.831787109375,-0.20904541015625,0.53314208984375
1759597191575,698709395,13657,8,-0.827392578125,-0.21148681640625,0.53533935546875
1759597191575,698709395,13657,9,-0.828125,-0.21124267578125,0.53753662109375
1759597191575,698709395,13657,10,-0.829345703125,-0.21099853515625,0.53656005859375
1759597191575,698709395,13657,11,-0.825439453125,-0.21295166015625,0.53802490234375
1759597191575,698709395,13657,12,-0.82666015625,-0.21246337890625,0.53192138671875
1759597191575,698709395,13657,13,-0.829833984375,-0.21197509765625,0.53729248046875
1759597191575,698709395,13657,14,-0.827880859375,-0.21173095703125,0.52947998046875
1759597191575,698709395,13657,15,-0.824951171875,-0.21685791015625,0.53460693359375
1759597191575,698709395,13657,16,-0.83544921875,-0.20758056640625,0.53387451171875
1759597191575,698709395,13657,17,-0.82275390625,-0.21246337890625,0.53997802734375
1759597191575,698709395,13657,18,-0.826416015625,-0.21490478515625,0.53656005859375
1759597191575,698709395,13657,19,-0.82666015625,-0.21099853515625,0.53948974609375
1759597191575,698709395,13657,20,-0.82470703125,-0.21099853515625,0.52947998046875
1759597191575,698709395,13657,21,-0.829833984375,-0.21026611328125,0.53558349609375
1759597191575,698709395,13657,22,-0.824951171875,-0.20953369140625,0.53338623046875
1759597191575,698709395,13657,23,-0.82568359375,-0.20635986328125,0.53704833984375
1759597191575,698709395,13657,24,-0.832763671875,-0.22320556640625,0.54632568359375
1759597191575,698709395,13657,25,-0.825439453125,-0.20098876953125,0.53997802734375
1759597191575,698709395,13657,26,-0.818359375,-0.21783447265625,0.53533935546875
1759597191575,698709395,13657,27,-0.8291015625,-0.22442626953125,0.54046630859375
1759597191575,698709395,13657,28,-0.821044921875,-0.20928955078125,0.54632568359375
1759597191575,698709395,13657,29,-0.824462890625,-0.20709228515625,0.54486083984375
1759597191575,698709395,13657,30,-0.807861328125,-0.21881103515625,0.55047607421875
1759597191575,698709395,13657,31,-0.82080078125,-0.20416259765625,0.53216552734375
1759597194095,698711962,13658,0,-0.84228515625,-0.22125244140625,0.55169677734375
1759597194095,698711962,13658,1,-0.825927734375,-0.19854736328125,0.52337646484375
1759597194095,698711962,13658,2,-0.844482421875,-0.21075439453125,0.52752685546875
1759597194095,698711962,13658,3,-0.82958984375,-0.20098876953125,0.53167724609375
1759597194095,698711962,13658,4,-0.827392578125,-0.20123291015625,0.52752685546875
1759597194095,698711962,13658,5,-0.831298828125,-0.20855712890625,0.53997802734375
1759597194095,698711962,13658,6,-0.8251953125,-0.19561767578125,0.53192138671875
1759597194095,698711962,13658,7,-0.842529296875,-0.21368408203125,0.51605224609375
1759597194095,698711962,13658,8,-0.873779296875,-0.21514892578125,0.51898193359375
1759597194095,698711962,13658,9,-0.8125,-0.20733642578125,0.53680419921875
1759597194095,698711962,13658,10,-0.808349609375,-0.21417236328125,0.55242919921875
1759597194095,698711962,13658,11,-0.809814453125,-0.22442626953125,0.55218505859375
1759597194095,698711962,13658,12,-0.82177734375,-0.20758056640625,0.53875732421875
1759597194095,698711962,13658,13,-0.826171875,-0.20977783203125,0.53143310546875
1759597194095,698711962,13658,14,-0.824462890625,-0.20660400390625,0.53094482421875
1759597194095,698711962,13658,15,-0.815185546875,-0.20855712890625,0.54046630859375
1759597194095,698711962,13658,16,-0.829345703125,-0.21099853515625,0.53997802734375
1759597194095,698711962,13658,17,-0.833984375,-0.20782470703125,0.53240966796875
1759597194095,698711962,13658,18,-0.83056640625,-0.20367431640625,0.52996826171875
1759597194095,698711962,13658,19,-0.832763671875,-0.20855712890625,0.53338623046875
1759597194095,698711962,13658,20,-0.82666015625,-0.20904541015625,0.53558349609375
1759597194095,698711962,13658,21,-0.8291015625,-0.20611572265625,0.53680419921875
1759597194095,698711962,13658,22,-0.82861328125,-0.20635986328125,0.53631591796875
1759597194095,698711962,13658,23,-0.83154296875,-0.20684814453125,0.53143310546875
1759597194095,698711962,13658,24,-0.827392578125,-0.20831298828125,0.53802490234375
1759597194095,698711962,13658,25,-0.826904296875,-0.20562744140625,0.53436279296875
1759597194095,698711962,13658,26,-0.827392578125,-0.20928955078125,0.53582763671875
1759597194095,698711962,13658,27,-0.833251953125,-0.20928955078125,0.53680419921875
1759597194095,698711962,13658,28,-0.828857421875,-0.20709228515625,0.53436279296875
1759597194095,698711962,13658,29,-0.8291015625,-0.21295166015625,0.53192138671875
1759597194095,698711962,13658,30,-0.824462890625,-0.20513916015625,0.53094482421875
1759597194095,698711962,13658,31,-0.8173828125,-0.20343017578125,0.53338623046875
1759597196795,698714529,13659,0,-0.828125,-0.21734619140625,0.53411865234375
1759597196795,698714529,13659,1,-0.83056640625,-0.20977783203125,0.53680419921875
1759597196795,698714529,13659,2,-0.829345703125,-0.21099853515625,0.53900146484375
1759597196795,698714529,13659,3,-0.824462890625,-0.21710205078125,0.53704833984375
1759597196795,698714529,13659,4,-0.82421875,-0.21221923828125,0.53143310546875
1759597196795,698714529,13659,5,-0.83154296875,-0.21563720703125,0.54095458984375
1759597196795,698714529,13659,6,-0.82470703125,-0.20465087890625,0.53216552734375
1759597196795,698714529,13659,7,-0.828125,-0.21954345703125,0.54412841796875
1759597196795,698714529,13659,8,-0.8291015625,-0.21026611328125,0.53533935546875
1759597196795,698714529,13659,9,-0.830810546875,-0.21099853515625,0.53460693359375
1759597196795,698714529,13659,10,-0.8291015625,-0.21441650390625,0.53582763671875
1759597196795,698714529,13659,11,-0.82275390625,-0.20977783203125,0.53582763671875
1759597196795,698714529,13659,12,-0.832763671875,-0.21881103515625,0.53558349609375
1759597196795,698714529,13659,13,-0.82861328125,-0.21319580078125,0.53289794921875
1759597196795,698714529,13659,14,-0.8310546875,-0.21417236328125,0.52947998046875
1759597196795,698714529,13659,15,-0.83056640625,-0.21124267578125,0.53411865234375
1759597196795,698714529,13659,16,-0.826904296875,-0.21417236328125,0.53533935546875
1759597196795,698714529,13659,17,-0.827880859375,-0.21588134765625,0.53753662109375
1759597196795,698714529,13659,18,-0.82958984375,-0.20758056640625,0.53363037109375
1759597196795,698714529,13659,19,-0.825439453125,-0.21319580078125,0.53607177734375
1759597196795,698714529,13659,20,-0.829345703125,-0.21490478515625,0.53607177734375
1759597196795,698714529,13659,21,-0.827392578125,-0.21075439453125,0.53826904296875
1759597196795,698714529,13659,22,-0.82763671875,-0.21368408203125,0.53656005859375
1759597196795,698714529,13659,23,-0.82568359375,-0.21246337890625,0.53411865234375
1759597196795,698714529,13659,24,-0.823974609375,-0.21221923828125,0.53411865234375
1759597196795,698714529,13659,25,-0.8271484375,-0.21343994140625,0.53802490234375
1759597196795,698714529,13659,26,-0.828125,-0.21466064453125,0.53509521484375
1759597196795,698714529,13659,27,-0.824951171875,-0.21588134765625,0.53753662109375
1759597196795,698714529,13659,28,-0.82861328125,-0.21124267578125,0.53192138671875
1759597196795,698714529,13659,29,-0.82568359375,-0.21563720703125,0.53680419921875
1759597196795,698714529,13659,30,-0.827392578125,-0.21905517578125,0.53167724609375
1759597196795,698714529,13659,31,-0.826171875,-0.21099853515625,0.53338623046875
1759597199314,698717096,13660,0,-0.825439453125,-0.21612548828125,0.53558349609375
1759597199314,698717096,13660,1,-0.827392578125,-0.21588134765625,0.53729248046875
1759597199314,698717096,13660,2,-0.82177734375,-0.20806884765625,0.53460693359375
1759597199314,698717096,13660,3,-0.816650390625,-0.21173095703125,0.53875732421875
1759597199314,698717096,13660,4,-0.82568359375,-0.22686767578125,0.54241943359375
1759597199314,698717096,13660,5,-0.82080078125,-0.22247314453125,0.54119873046875
1759597199314,698717096,13660,6,-0.82861328125,-0.21051025390625,0.54022216796875
1759597199314,698717096,13660,7,-0.821044921875,-0.21636962890625,0.54461669921875
1759597199314,698717096,13660,8,-0.822265625,-0.22003173828125,0.54388427734375
1759597199314,698717096,13660,9,-0.818603515625,-0.21417236328125,0.54364013671875
1759597199314,698717096,13660,10,-0.8203125,-0.21563720703125,0.54241943359375
1759597199314,698717096,13660,11,-0.82568359375,-0.21685791015625,0.53680419921875
1759597199314,698717096,13660,12,-0.82373046875,-0.21490478515625,0.54046630859375
1759597199314,698717096,13660,13,-0.819091796875,-0.21514892578125,0.54388427734375
1759597199314,698717096,13660,14,-0.82080078125,-0.21392822265625,0.53924560546875
1759597199314,698717096,13660,15,-0.822998046875,-0.21783447265625,0.54290771484375
1759597199314,698717096,13660,16,-0.823974609375,-0.21075439453125,0.54046630859375
1759597199314,698717096,13660,17,-0.8232421875,-0.21881103515625,0.54388427734375
1759597199314,698717096,13660,18,-0.824462890625,-0.21563720703125,0.54266357421875
1759597199314,698717096,13660,19,-0.8212890625,-0.21343994140625,0.54071044921875
1759597199314,698717096,13660,20,-0.818603515625,-0.21588134765625,0.54266357421875
1759597199314,698717096,13660,21,-0.817626953125,-0.21539306640625,0.54974365234375
1759597199314,698717096,13660,22,-0.82861328125,-0.21539306640625,0.53826904296875
1759597199314,698717096,13660,23,-0.829833984375,-0.21221923828125,0.53948974609375
1759597199314,698717096,13660,24,-0.8251953125,-0.21295166015625,0.53997802734375
1759597199314,698717096,13660,25,-0.821044921875,-0.21563720703125,0.54364013671875
1759597199314,698717096,13660,26,-0.822021484375,-0.21368408203125,0.54290771484375
