receivedPhoneTimestamp,respeckTimestamp,packetSeqNum,sampleSeqNum,accelX,accelY,accelZ
1759913725421,1009208677,9546,0,0.787109375,-0.19415283203125,0.49163818359375
1759913725421,1009208677,9546,1,0.779296875,-0.19952392578125,0.49066162109375
1759913725421,1009208677,9546,2,0.780029296875,-0.19293212890625,0.48846435546875
1759913725421,1009208677,9546,3,0.777587890625,-0.18536376953125,0.49359130859375
1759913725421,1009208677,9546,4,0.772705078125,-0.18560791015625,0.49676513671875
1759913725421,1009208677,9546,5,0.772216796875,-0.18731689453125,0.49749755859375
1759913725421,1009208677,9546,6,0.767822265625,-0.18658447265625,0.50140380859375
1759913725421,1009208677,9546,7,0.78662109375,-0.17706298828125,0.48675537109375
1759913725421,1009208677,9546,8,0.789794921875,-0.18096923828125,0.47332763671875
1759913725421,1009208677,9546,9,0.789794921875,-0.20025634765625,0.47943115234375
1759913725421,1009208677,9546,10,0.779052734375,-0.19732666015625,0.49261474609375
1759913725421,1009208677,9546,11,0.767578125,-0.19976806640625,0.50872802734375
1759913725421,1009208677,9546,12,0.778076171875,-0.18927001953125,0.48797607421875
1759913725421,1009208677,9546,13,0.78515625,-0.19049072265625,0.48797607421875
1759913725421,1009208677,9546,14,0.78076171875,-0.19219970703125,0.48895263671875
1759913725421,1009208677,9546,15,0.77734375,-0.19317626953125,0.49383544921875
1759913725421,1009208677,9546,16,0.778076171875,-0.19268798828125,0.49359130859375
1759913725421,1009208677,9546,17,0.779052734375,-0.19097900390625,0.49481201171875
1759913725421,1009208677,9546,18,0.777587890625,-0.19610595703125,0.50433349609375
1759913725421,1009208677,9546,19,0.773681640625,-0.19683837890625,0.49481201171875
1759913725421,1009208677,9546,20,0.76171875,-0.19781494140625,0.50360107421875
1759913725421,1009208677,9546,21,0.77685546875,-0.19757080078125,0.48846435546875
1759913725421,1009208677,9546,22,0.782958984375,-0.19927978515625,0.48822021484375
1759913725421,1009208677,9546,23,0.783447265625,-0.19732666015625,0.48406982421875
1759913725421,1009208677,9546,24,0.781494140625,-0.19659423828125,0.48699951171875
1759913725421,1009208677,9546,25,0.786376953125,-0.19757080078125,0.48431396484375
1759913725421,1009208677,9546,26,0.782958984375,-0.20416259765625,0.48822021484375
1759913725421,1009208677,9546,27,0.779296875,-0.20562744140625,0.48553466796875
1759913725421,1009208677,9546,28,0.776123046875,-0.20953369140625,0.48822021484375
1759913725421,1009208677,9546,29,0.7763671875,-0.21295166015625,0.49334716796875
1759913725421,1009208677,9546,30,0.77099609375,-0.21295166015625,0.49334716796875
1759913725421,1009208677,9546,31,0.7626953125,-0.21661376953125,0.50311279296875
1759913727972,1009211268,9547,0,0.7607421875,-0.21685791015625,0.49969482421875
1759913727972,1009211268,9547,1,0.772216796875,-0.21392822265625,0.49139404296875
1759913727972,1009211268,9547,2,0.77587890625,-0.20928955078125,0.49017333984375
1759913727972,1009211268,9547,3,0.763916015625,-0.21270751953125,0.49725341796875
1759913727972,1009211268,9547,4,0.772705078125,-0.21588134765625,0.48284912109375
1759913727972,1009211268,9547,5,0.776611328125,-0.20855712890625,0.48284912109375
1759913727972,1009211268,9547,6,0.7744140625,-0.21099853515625,0.48748779296875
1759913727972,1009211268,9547,7,0.7763671875,-0.20953369140625,0.49066162109375
1759913727972,1009211268,9547,8,0.77685546875,-0.20782470703125,0.47967529296875
1759913727972,1009211268,9547,9,0.779541015625,-0.20538330078125,0.49163818359375
1759913727972,1009211268,9547,10,0.783203125,-0.20489501953125,0.47650146484375
1759913727972,1009211268,9547,11,0.786865234375,-0.20025634765625,0.47869873046875
1759913727972,1009211268,9547,12,0.781494140625,-0.19512939453125,0.48211669921875
1759913727972,1009211268,9547,13,0.78466796875,-0.19610595703125,0.48284912109375
1759913727972,1009211268,9547,14,0.781494140625,-0.20074462890625,0.48822021484375
1759913727972,1009211268,9547,15,0.774169921875,-0.19976806640625,0.49066162109375
1759913727972,1009211268,9547,16,0.776123046875,-0.19171142578125,0.48797607421875
1759913727972,1009211268,9547,17,0.783935546875,-0.19708251953125,0.48919677734375
1759913730672,1009213859,9548,12,0.860595703125,-0.16925048828125,0.37518310546875
1759913730672,1009213859,9548,13,0.83203125,-0.16851806640625,0.37860107421875
1759913730672,1009213859,9548,14,0.84765625,-0.17974853515625,0.36590576171875
1759913730672,1009213859,9548,15,0.848876953125,-0.17120361328125,0.38128662109375
1759913730672,1009213859,9548,16,0.846923828125,-0.16827392578125,0.37200927734375
1759913730672,1009213859,9548,17,0.84912109375,-0.17071533203125,0.38909912109375
1759913730672,1009213859,9548,18,0.835693359375,-0.16900634765625,0.38470458984375
1759913730672,1009213859,9548,19,0.8466796875,-0.16558837890625,0.37445068359375
1759913730672,1009213859,9548,20,0.85107421875,-0.16851806640625,0.38031005859375
1759913730672,1009213859,9548,21,0.84375,-0.16754150390625,0.38616943359375
1759913730672,1009213859,9548,22,0.841552734375,-0.16436767578125,0.38714599609375
1759913730672,1009213859,9548,23,0.841552734375,-0.16534423828125,0.38909912109375
1759913730672,1009213859,9548,24,0.83837890625,-0.16436767578125,0.39544677734375
1759913730672,1009213859,9548,25,0.8447265625,-0.16192626953125,0.39422607421875
1759913730672,1009213859,9548,26,0.842041015625,-0.16363525390625,0.39959716796875
1759913730672,1009213859,9548,27,0.838134765625,-0.16973876953125,0.41229248046875
1759913730672,1009213859,9548,28,0.828125,-0.16827392578125,0.40081787109375
1759913730672,1009213859,9548,29,0.8291015625,-0.17218017578125,0.40570068359375
1759913730672,1009213859,9548,30,0.82861328125,-0.17559814453125,0.42498779296875
1759913730672,1009213859,9548,31,0.822509765625,-0.17193603515625,0.42156982421875
1759913733224,1009216451,9549,0,0.817626953125,-0.18072509765625,0.43157958984375
1759913733224,1009216451,9549,1,0.817138671875,-0.17926025390625,0.42303466796875
1759913733224,1009216451,9549,2,0.816650390625,-0.18243408203125,0.42742919921875
1759913733224,1009216451,9549,3,0.8115234375,-0.18975830078125,0.42645263671875
1759913733224,1009216451,9549,4,0.816162109375,-0.18902587890625,0.42938232421875
1759913733224,1009216451,9549,5,0.8212890625,-0.18487548828125,0.42156982421875
1759913733224,1009216451,9549,6,0.821044921875,-0.18316650390625,0.42572021484375
1759913733224,1009216451,9549,7,0.82373046875,-0.18365478515625,0.41839599609375
1759913733224,1009216451,9549,8,0.826171875,-0.18438720703125,0.43963623046875
1759913733224,1009216451,9549,9,0.81640625,-0.17633056640625,0.41864013671875
1759913733224,1009216451,9549,10,0.82080078125,-0.18267822265625,0.42376708984375
1759913733224,1009216451,9549,11,0.8212890625,-0.18218994140625,0.43231201171875
1759913733224,1009216451,9549,12,0.822998046875,-0.17584228515625,0.42034912109375
1759913733224,1009216451,9549,13,0.82470703125,-0.17413330078125,0.42449951171875
1759913733224,1009216451,9549,14,0.81982421875,-0.17755126953125,0.42620849609375
1759913733224,1009216451,9549,15,0.819580078125,-0.17388916015625,0.42596435546875
1759913733224,1009216451,9549,16,0.818115234375,-0.17315673828125,0.43255615234375
1759913733224,1009216451,9549,17,0.819091796875,-0.17218017578125,0.42962646484375
1759913733224,1009216451,9549,18,0.81787109375,-0.17510986328125,0.43011474609375
1759913733224,1009216451,9549,19,0.81982421875,-0.17193603515625,0.43499755859375
1759913733224,1009216451,9549,20,0.81591796875,-0.16973876953125,0.42523193359375
1759913733224,1009216451,9549,21,0.814208984375,-0.17218017578125,0.43084716796875
1759913733224,1009216451,9549,22,0.8203125,-0.17193603515625,0.42596435546875
1759913733224,1009216451,9549,23,0.83154296875,-0.17926025390625,0.42376708984375
1759913733224,1009216451,9549,24,0.830078125,-0.17364501953125,0.39764404296875
1759913733224,1009216451,9549,25,0.837158203125,-0.16314697265625,0.41522216796875
1759913733224,1009216451,9549,26,0.828857421875,-0.17315673828125,0.41058349609375
1759913733224,1009216451,9549,27,0.8251953125,-0.17877197265625,0.40252685546875
1759913733224,1009216451,9549,28,0.8251953125,-0.17926025390625,0.40399169921875
1759913733224,1009216451,9549,29,0.823974609375,-0.17364501953125,0.41497802734375
1759913733224,1009216451,9549,30,0.82568359375,-0.16754150390625,0.41864013671875
1759913733224,1009216451,9549,31,0.828857421875,-0.16802978515625,0.42279052734375
1759913735772,1009219042,9550,0,0.83447265625,-0.16632080078125,0.41204833984375
1759913735772,1009219042,9550,1,0.83447265625,-0.17022705078125,0.40594482421875
1759913735772,1009219042,9550,2,0.830322265625,-0.16680908203125,0.41522216796875
1759913735772,1009219042,9550,3,0.828857421875,-0.16949462890625,0.41693115234375
1759913735772,1009219042,9550,4,0.821044921875,-0.16534423828125,0.42010498046875
1759913735772,1009219042,9550,5,0.8212890625,-0.16510009765625,0.42694091796875
1759913735772,1009219042,9550,6,0.81884765625,-0.16290283203125,0.42376708984375
1759913735772,1009219042,9550,7,0.830810546875,-0.16412353515625,0.42596435546875
1759913735772,1009219042,9550,8,0.831298828125,-0.16534423828125,0.40814208984375
1759913735772,1009219042,9550,9,0.83056640625,-0.16241455078125,0.42083740234375
1759913735772,1009219042,9550,10,0.833740234375,-0.16265869140625,0.42449951171875
1759913735772,1009219042,9550,11,0.822265625,-0.16314697265625,0.42230224609375
1759913735772,1009219042,9550,12,0.822509765625,-0.16265869140625,0.42425537109375
1759913735772,1009219042,9550,13,0.81298828125,-0.16314697265625,0.42742919921875
1759913735772,1009219042,9550,14,0.81982421875,-0.15631103515625,0.43304443359375
1759913735772,1009219042,9550,15,0.819580078125,-0.16094970703125,0.43426513671875
1759913735772,1009219042,9550,16,0.822509765625,-0.15972900390625,0.42889404296875
1759913735772,1009219042,9550,17,0.82568359375,-0.16046142578125,0.42889404296875
1759913735772,1009219042,9550,18,0.8232421875,-0.16192626953125,0.43206787109375
1759913735772,1009219042,9550,19,0.81982421875,-0.15826416015625,0.43084716796875
1759913735772,1009219042,9550,20,0.8212890625,-0.15972900390625,0.42791748046875
1759913735772,1009219042,9550,21,0.815185546875,-0.16290283203125,0.43890380859375
1759913735772,1009219042,9550,22,0.820068359375,-0.15875244140625,0.43133544921875
1759913735772,1009219042,9550,23,0.819091796875,-0.16046142578125,0.44036865234375
1759913735772,1009219042,9550,24,0.81982421875,-0.15753173828125,0.43963623046875
1759913735772,1009219042,9550,25,0.818603515625,-0.16217041015625,0.43499755859375
1759913735772,1009219042,9550,26,0.81103515625,-0.16290283203125,0.43475341796875
1759913735772,1009219042,9550,27,0.81396484375,-0.16436767578125,0.45428466796875
1759913735772,1009219042,9550,28,0.814453125,-0.16510009765625,0.45184326171875
1759913735772,1009219042,9550,29,0.799560546875,-0.18023681640625,0.44964599609375
1759913735772,1009219042,9550,30,0.801513671875,-0.18389892578125,0.44891357421875
1759913735772,1009219042,9550,31,0.796875,-0.18487548828125,0.44329833984375
1759913738321,1009221633,9551,0,0.803955078125,-0.18731689453125,0.42938232421875
1759913738321,1009221633,9551,1,0.81640625,-0.18804931640625,0.45159912109375
1759913738321,1009221633,9551,2,0.81494140625,-0.18731689453125,0.44427490234375
1759913738321,1009221633,9551,3,0.80908203125,-0.18902587890625,0.43011474609375
1759913738321,1009221633,9551,4,0.809814453125,-0.18658447265625,0.43914794921875
1759913738321,1009221633,9551,5,0.813232421875,-0.18585205078125,0.44378662109375
1759913738321,1009221633,9551,6,0.810791015625,-0.18536376953125,0.43890380859375
1759913738321,1009221633,9551,7,0.8095703125,-0.18170166015625,0.44232177734375
1759913738321,1009221633,9551,8,0.808837890625,-0.18341064453125,0.44207763671875
1759913738321,1009221633,9551,9,0.810791015625,-0.18096923828125,0.44573974609375
1759913738321,1009221633,9551,10,0.80859375,-0.18218994140625,0.44281005859375
1759913738321,1009221633,9551,11,0.81201171875,-0.18096923828125,0.43817138671875
1759913738321,1009221633,9551,12,0.81494140625,-0.18096923828125,0.44158935546875
1759913738321,1009221633,9551,13,0.81005859375,-0.18023681640625,0.43963623046875
1759913738321,1009221633,9551,14,0.81005859375,-0.17877197265625,0.43670654296875
1759913738321,1009221633,9551,15,0.80810546875,-0.17437744140625,0.44598388671875
1759913738321,1009221633,9551,16,0.813232421875,-0.18023681640625,0.43670654296875
1759913738321,1009221633,9551,17,0.816650390625,-0.18316650390625,0.43084716796875
1759913738321,1009221633,9551,18,0.820556640625,-0.17193603515625,0.44427490234375
1759913738321,1009221633,9551,19,0.8134765625,-0.17681884765625,0.43280029296875
1759913738321,1009221633,9551,20,0.814208984375,-0.18389892578125,0.43255615234375
1759913738321,1009221633,9551,21,0.810546875,-0.16827392578125,0.44281005859375
1759913738321,1009221633,9551,22,0.80419921875,-0.17779541015625,0.43939208984375
1759913738321,1009221633,9551,23,0.80322265625,-0.17486572265625,0.43206787109375
1759913738321,1009221633,9551,24,0.8134765625,-0.17413330078125,0.43817138671875
1759913738321,1009221633,9551,25,0.813720703125,-0.17340087890625,0.43524169921875
1759913738321,1009221633,9551,26,0.8134765625,-0.17047119140625,0.43597412109375
1759913738321,1009221633,9551,27,0.81689453125,-0.16510009765625,0.43695068359375
1759913738321,1009221633,9551,28,0.812255859375,-0.16900634765625,0.44598388671875
1759913738321,1009221633,9551,29,0.810546875,-0.16802978515625,0.43646240234375
1759913738321,1009221633,9551,30,0.8095703125,-0.16094970703125,0.45550537109375
1759913738321,1009221633,9551,31,0.809814453125,-0.15972900390625,0.44647216796875
1759913741021,1009224224,9552,0,0.812744140625,-0.16265869140625,0.43914794921875
1759913741021,1009224224,9552,1,0.81591796875,-0.16949462890625,0.43963623046875
1759913741021,1009224224,9552,2,0.822021484375,-0.15802001953125,0.43939208984375
1759913741021,1009224224,9552,3,0.81884765625,-0.16265869140625,0.43670654296875
1759913741021,1009224224,9552,4,0.813232421875,-0.16143798828125,0.44281005859375
1759913741021,1009224224,9552,5,0.812744140625,-0.15997314453125,0.44256591796875
1759913741021,1009224224,9552,6,0.810546875,-0.15875244140625,0.44891357421875
1759913741021,1009224224,9552,7,0.8056640625,-0.15924072265625,0.45306396484375
1759913741021,1009224224,9552,8,0.811767578125,-0.16046142578125,0.44525146484375
1759913741021,1009224224,9552,9,0.808349609375,-0.15460205078125,0.45257568359375
1759913741021,1009224224,9552,10,0.8115234375,-0.15777587890625,0.44720458984375
1759913741021,1009224224,9552,11,0.811767578125,-0.15826416015625,0.45037841796875
1759913741021,1009224224,9552,12,0.807373046875,-0.15435791015625,0.45355224609375
1759913741021,1009224224,9552,13,0.80810546875,-0.15167236328125,0.44940185546875
1759913741021,1009224224,9552,14,0.805419921875,-0.15069580078125,0.46038818359375
1759913741021,1009224224,9552,15,0.807861328125,-0.15191650390625,0.45452880859375
1759913741021,1009224224,9552,16,0.811767578125,-0.15972900390625,0.46063232421875
1759913741021,1009224224,9552,17,0.802734375,-0.16412353515625,0.45623779296875
1759913741021,1009224224,9552,18,0.802490234375,-0.16412353515625,0.45989990234375
1759913741021,1009224224,9552,19,0.803466796875,-0.16705322265625,0.46014404296875
1759913741021,1009224224,9552,20,0.796875,-0.17730712890625,0.47308349609375
1759913741021,1009224224,9552,21,0.7958984375,-0.18194580078125,0.46551513671875
1759913741021,1009224224,9552,22,0.786865234375,-0.18072509765625,0.45941162109375
1759913741021,1009224224,9552,23,0.79541015625,-0.18585205078125,0.45526123046875
1759913741021,1009224224,9552,24,0.796875,-0.18048095703125,0.45208740234375
1759913741021,1009224224,9552,25,0.7998046875,-0.18487548828125,0.45941162109375
1759913741021,1009224224,9552,26,0.799560546875,-0.18536376953125,0.45745849609375
1759913741021,1009224224,9552,27,0.796630859375,-0.18341064453125,0.47430419921875
1759913741021,1009224224,9552,28,0.79443359375,-0.18267822265625,0.46624755859375
1759913741021,1009224224,9552,29,0.802001953125,-0.18023681640625,0.45843505859375
1759913741021,1009224224,9552,30,0.80224609375,-0.17413330078125,0.45477294921875
1759913741021,1009224224,9552,31,0.804443359375,-0.17730712890625,0.46234130859375
1759913743571,1009226815,9553,0,0.80126953125,-0.17852783203125,0.45574951171875
1759913743571,1009226815,9553,1,0.80029296875,-0.17681884765625,0.45794677734375
1759913743571,1009226815,9553,2,0.798583984375,-0.17559814453125,0.45379638671875
1759913743571,1009226815,9553,3,0.800048828125,-0.17242431640625,0.46624755859375
1759913743571,1009226815,9553,4,0.7998046875,-0.17242431640625,0.45330810546875
1759913743571,1009226815,9553,5,0.804931640625,-0.17657470703125,0.45477294921875
1759913743571,1009226815,9553,6,0.8076171875,-0.16802978515625,0.45379638671875
1759913743571,1009226815,9553,7,0.806640625,-0.17022705078125,0.44866943359375
1759913743571,1009226815,9553,8,0.806396484375,-0.17608642578125,0.45526123046875
1759913743571,1009226815,9553,9,0.800048828125,-0.17437744140625,0.44647216796875
1759913743571,1009226815,9553,10,0.80615234375,-0.17315673828125,0.44525146484375
1759913743571,1009226815,9553,11,0.8056640625,-0.16729736328125,0.45477294921875
1759913743571,1009226815,9553,12,0.806396484375,-0.17047119140625,0.45452880859375
1759913743571,1009226815,9553,13,0.804443359375,-0.16876220703125,0.45477294921875
1759913743571,1009226815,9553,14,0.810302734375,-0.16851806640625,0.45013427734375
1759913743571,1009226815,9553,15,0.807373046875,-0.16827392578125,0.45281982421875
1759913743571,1009226815,9553,16,0.8056640625,-0.16827392578125,0.45599365234375
1759913743571,1009226815,9553,17,0.802734375,-0.16680908203125,0.45062255859375
1759913743571,1009226815,9553,18,0.8037109375,-0.16900634765625,0.45208740234375
1759913743571,1009226815,9553,19,0.80322265625,-0.16363525390625,0.44891357421875
1759913743571,1009226815,9553,20,0.809814453125,-0.16387939453125,0.46112060546875
1759913743571,1009226815,9553,21,0.808837890625,-0.17559814453125,0.42645263671875
1759913743571,1009226815,9553,22,0.816650390625,-0.16851806640625,0.43402099609375
1759913743571,1009226815,9553,23,0.8125,-0.16094970703125,0.45477294921875
1759913743571,1009226815,9553,24,0.8154296875,-0.15802001953125,0.46282958984375
1759913743571,1009226815,9553,25,0.81103515625,-0.15386962890625,0.45965576171875
1759913743571,1009226815,9553,26,0.803466796875,-0.16241455078125,0.45257568359375
1759913743571,1009226815,9553,27,0.805908203125,-0.16387939453125,0.45184326171875
1759913743571,1009226815,9553,28,0.806396484375,-0.15777587890625,0.45404052734375
1759913743571,1009226815,9553,29,0.8095703125,-0.15875244140625,0.45208740234375
1759913743571,1009226815,9553,30,0.8125,-0.15972900390625,0.44451904296875
1759913743571,1009226815,9553,31,0.813232421875,-0.16168212890625,0.44671630859375
1759913746123,1009229406,9554,0,0.81005859375,-0.15753173828125,0.45257568359375
1759913746123,1009229406,9554,1,0.80615234375,-0.15899658203125,0.44989013671875
1759913746123,1009229406,9554,2,0.80517578125,-0.16021728515625,0.45086669921875
1759913746123,1009229406,9554,3,0.8056640625,-0.15484619140625,0.45843505859375
1759913746123,1009229406,9554,4,0.805419921875,-0.15704345703125,0.45550537109375
1759913746123,1009229406,9554,5,0.804443359375,-0.15704345703125,0.44915771484375
1759913746123,1009229406,9554,6,0.814208984375,-0.15313720703125,0.44183349609375
1759913746123,1009229406,9554,7,0.8203125,-0.15240478515625,0.44110107421875
1759913746123,1009229406,9554,8,0.815673828125,-0.14947509765625,0.44329833984375
1759913746123,1009229406,9554,9,0.81884765625,-0.15142822265625,0.44158935546875
1759913746123,1009229406,9554,10,0.815673828125,-0.15118408203125,0.44354248046875
1759913746123,1009229406,9554,11,0.811279296875,-0.15289306640625,0.44622802734375
1759913746123,1009229406,9554,12,0.814453125,-0.15167236328125,0.44158935546875
1759913746123,1009229406,9554,13,0.810302734375,-0.15191650390625,0.44281005859375
1759913746123,1009229406,9554,14,0.818359375,-0.15118408203125,0.44549560546875
1759913746123,1009229406,9554,15,0.81298828125,-0.15167236328125,0.44207763671875
1759913746123,1009229406,9554,16,0.811767578125,-0.15118408203125,0.44866943359375
1759913746123,1009229406,9554,17,0.812744140625,-0.14532470703125,0.44696044921875
1759913746123,1009229406,9554,18,0.8115234375,-0.14874267578125,0.44818115234375
1759913746123,1009229406,9554,19,0.811767578125,-0.15289306640625,0.45111083984375
1759913746123,1009229406,9554,20,0.811279296875,-0.15191650390625,0.44476318359375
1759913746123,1009229406,9554,21,0.81005859375,-0.15093994140625,0.45306396484375
1759913746123,1009229406,9554,22,0.812744140625,-0.14849853515625,0.44818115234375
1759913746123,1009229406,9554,23,0.813232421875,-0.15386962890625,0.44891357421875
1759913746123,1009229406,9554,24,0.8173828125,-0.15655517578125,0.46112060546875
1759913746123,1009229406,9554,25,0.81005859375,-0.16265869140625,0.46136474609375
1759913746123,1009229406,9554,26,0.8056640625,-0.17218017578125,0.44696044921875
1759913746123,1009229406,9554,27,0.8046875,-0.18731689453125,0.45526123046875
1759913746123,1009229406,9554,28,0.796875,-0.19903564453125,0.44061279296875
1759913746123,1009229406,9554,29,0.792724609375,-0.19659423828125,0.43133544921875
1759913746123,1009229406,9554,30,0.81103515625,-0.19122314453125,0.43865966796875
1759913746123,1009229406,9554,31,0.81201171875,-0.19293212890625,0.46990966796875
1759913748672,1009231997,9555,0,0.803955078125,-0.17828369140625,0.48699951171875
1759913748672,1009231997,9555,1,0.801513671875,-0.18511962890625,0.44818115234375
1759913748672,1009231997,9555,2,0.809814453125,-0.18902587890625,0.45184326171875
1759913748672,1009231997,9555,3,0.8037109375,-0.17901611328125,0.44891357421875
1759913748672,1009231997,9555,4,0.8046875,-0.18023681640625,0.45965576171875
1759913748672,1009231997,9555,5,0.804443359375,-0.17901611328125,0.44940185546875
1759913748672,1009231997,9555,6,0.802734375,-0.18218994140625,0.45623779296875
1759913748672,1009231997,9555,7,0.80224609375,-0.17730712890625,0.45550537109375
1759913748672,1009231997,9555,8,0.8037109375,-0.17999267578125,0.45184326171875
1759913748672,1009231997,9555,9,0.80078125,-0.17779541015625,0.45770263671875
1759913748672,1009231997,9555,10,0.800048828125,-0.18121337890625,0.45623779296875
1759913748672,1009231997,9555,11,0.8037109375,-0.18487548828125,0.47332763671875
1759913748672,1009231997,9555,12,0.804443359375,-0.18878173828125,0.46502685546875
1759913748672,1009231997,9555,13,0.7978515625,-0.19683837890625,0.45550537109375
1759913748672,1009231997,9555,14,0.799560546875,-0.19781494140625,0.42791748046875
1759913748672,1009231997,9555,15,0.79736328125,-0.20123291015625,0.43353271484375
1759913748672,1009231997,9555,16,0.8037109375,-0.20001220703125,0.47503662109375
1759913748672,1009231997,9555,17,0.79443359375,-0.20977783203125,0.44134521484375
1759913748672,1009231997,9555,18,0.791748046875,-0.20245361328125,0.44232177734375
1759913748672,1009231997,9555,19,0.801025390625,-0.19342041015625,0.48651123046875
1759913748672,1009231997,9555,20,0.8076171875,-0.18341064453125,0.47796630859375
1759913748672,1009231997,9555,21,0.80615234375,-0.18487548828125,0.46893310546875
1759913748672,1009231997,9555,22,0.8046875,-0.19244384765625,0.45306396484375
1759913748672,1009231997,9555,23,0.804443359375,-0.19561767578125,0.44842529296875
1759913748672,1009231997,9555,24,0.80615234375,-0.18975830078125,0.45379638671875
1759913748672,1009231997,9555,25,0.799560546875,-0.18804931640625,0.44622802734375
1759913748672,1009231997,9555,26,0.795166015625,-0.18853759765625,0.46502685546875
1759913748672,1009231997,9555,27,0.795654296875,-0.18975830078125,0.46087646484375
1759913748672,1009231997,9555,28,0.803466796875,-0.18780517578125,0.45330810546875
1759913748672,1009231997,9555,29,0.802978515625,-0.18560791015625,0.45721435546875
1759913748672,1009231997,9555,30,0.807373046875,-0.18682861328125,0.45159912109375
1759913748672,1009231997,9555,31,0.80615234375,-0.18463134765625,0.45111083984375
1759913751371,1009234589,9556,0,0.807861328125,-0.18585205078125,0.45086669921875
1759913751371,1009234589,9556,1,0.80712890625,-0.18634033203125,0.44427490234375
1759913751371,1009234589,9556,2,0.8095703125,-0.18048095703125,0.45086669921875
1759913751371,1009234589,9556,3,0.8095703125,-0.17901611328125,0.45477294921875
1759913751371,1009234589,9556,4,0.801025390625,-0.18487548828125,0.45013427734375
1759913751371,1009234589,9556,5,0.8017578125,-0.18682861328125,0.45526123046875
1759913751371,1009234589,9556,6,0.80224609375,-0.17608642578125,0.46014404296875
1759913751371,1009234589,9556,7,0.800537109375,-0.17901611328125,0.45404052734375
1759913751371,1009234589,9556,8,0.801513671875,-0.17608642578125,0.45062255859375
1759913751371,1009234589,9556,9,0.801025390625,-0.17413330078125,0.47015380859375
1759913751371,1009234589,9556,10,0.798828125,-0.16925048828125,0.45892333984375
1759913751371,1009234589,9556,11,0.80078125,-0.16607666015625,0.47039794921875
1759913751371,1009234589,9556,12,0.796142578125,-0.16949462890625,0.46697998046875
1759913751371,1009234589,9556,13,0.7958984375,-0.17022705078125,0.46868896484375
1759913751371,1009234589,9556,14,0.796875,-0.16583251953125,0.46917724609375
1759913751371,1009234589,9556,15,0.798583984375,-0.16827392578125,0.46527099609375
1759913751371,1009234589,9556,16,0.803466796875,-0.16998291015625,0.46697998046875
1759913751371,1009234589,9556,17,0.80615234375,-0.17510986328125,0.48138427734375
1759913751371,1009234589,9556,18,0.78955078125,-0.16827392578125,0.45379638671875
1759913751371,1009234589,9556,19,0.80078125,-0.17608642578125,0.47576904296875
1759913751371,1009234589,9556,20,0.788330078125,-0.18048095703125,0.48162841796875
1759913751371,1009234589,9556,21,0.779052734375,-0.19122314453125,0.47967529296875
1759913751371,1009234589,9556,22,0.781982421875,-0.19659423828125,0.47235107421875
1759913751371,1009234589,9556,23,0.78271484375,-0.19610595703125,0.45721435546875
1759913751371,1009234589,9556,24,0.795166015625,-0.19879150390625,0.46405029296875
1759913751371,1009234589,9556,25,0.79833984375,-0.19390869140625,0.47454833984375
1759913751371,1009234589,9556,26,0.797607421875,-0.19146728515625,0.49188232421875
1759913751371,1009234589,9556,27,0.78955078125,-0.19635009765625,0.47479248046875
1759913751371,1009234589,9556,28,0.786865234375,-0.19805908203125,0.47406005859375
1759913751371,1009234589,9556,29,0.792724609375,-0.19366455078125,0.47308349609375
1759913751371,1009234589,9556,30,0.793212890625,-0.18853759765625,0.47235107421875
1759913751371,1009234589,9556,31,0.797119140625,-0.19049072265625,0.46282958984375
1759913753921,1009237180,9557,0,0.795654296875,-0.19097900390625,0.46551513671875
1759913753921,1009237180,9557,1,0.798095703125,-0.18658447265625,0.46575927734375
1759913753921,1009237180,9557,2,0.7958984375,-0.18731689453125,0.45965576171875
1759913753921,1009237180,9557,3,0.794921875,-0.18975830078125,0.46234130859375
1759913753921,1009237180,9557,4,0.79345703125,-0.18560791015625,0.46771240234375
1759913753921,1009237180,9557,5,0.793212890625,-0.18438720703125,0.47039794921875
1759913753921,1009237180,9557,6,0.793212890625,-0.18804931640625,0.47454833984375
1759913753921,1009237180,9557,7,0.7919921875,-0.18560791015625,0.46380615234375
1759913753921,1009237180,9557,8,0.797119140625,-0.18389892578125,0.47039794921875
1759913753921,1009237180,9557,9,0.800048828125,-0.18536376953125,0.45574951171875
1759913753921,1009237180,9557,10,0.801513671875,-0.18511962890625,0.46112060546875
1759913753921,1009237180,9557,11,0.8017578125,-0.18341064453125,0.46697998046875
1759913753921,1009237180,9557,12,0.79345703125,-0.18389892578125,0.44989013671875
1759913753921,1009237180,9557,13,0.79541015625,-0.18780517578125,0.45526123046875
1759913753921,1009237180,9557,14,0.794189453125,-0.18585205078125,0.46990966796875
1759913753921,1009237180,9557,15,0.7978515625,-0.18609619140625,0.45916748046875
1759913753921,1009237180,9557,16,0.79541015625,-0.18438720703125,0.45062255859375
1759913753921,1009237180,9557,17,0.803955078125,-0.18463134765625,0.45086669921875
1759913753921,1009237180,9557,18,0.802734375,-0.17657470703125,0.45745849609375
1759913753921,1009237180,9557,19,0.806396484375,-0.18316650390625,0.45867919921875
1759913753921,1009237180,9557,20,0.802490234375,-0.17974853515625,0.45330810546875
1759913753921,1009237180,9557,21,0.802001953125,-0.17437744140625,0.46112060546875
1759913753921,1009237180,9557,22,0.797119140625,-0.17706298828125,0.46405029296875
1759913753921,1009237180,9557,23,0.80078125,-0.17510986328125,0.46893310546875
1759913753921,1009237180,9557,24,0.798095703125,-0.17828369140625,0.46038818359375
1759913753921,1009237180,9557,25,0.8076171875,-0.17193603515625,0.45111083984375
1759913753921,1009237180,9557,26,0.79931640625,-0.17364501953125,0.45281982421875
1759913753921,1009237180,9557,27,0.804443359375,-0.16363525390625,0.49334716796875
1759913753921,1009237180,9557,28,0.798095703125,-0.16656494140625,0.47869873046875
1759913753921,1009237180,9557,29,0.801025390625,-0.16656494140625,0.47918701171875
1759913753921,1009237180,9557,30,0.801513671875,-0.16290283203125,0.48309326171875
1759913753921,1009237180,9557,31,0.8095703125,-0.16778564453125,0.46600341796875
1759913756466,1009239771,9558,0,0.810546875,-0.17071533203125,0.45452880859375
1759913756466,1009239771,9558,1,0.813720703125,-0.16485595703125,0.44549560546875
1759913756466,1009239771,9558,2,0.804931640625,-0.16876220703125,0.45623779296875
1759913756466,1009239771,9558,3,0.79833984375,-0.16412353515625,0.47479248046875
1759913756466,1009239771,9558,4,0.795654296875,-0.16656494140625,0.46453857421875
1759913756466,1009239771,9558,5,0.796875,-0.16558837890625,0.46600341796875
1759913756466,1009239771,9558,6,0.799560546875,-0.16680908203125,0.46624755859375
1759913756466,1009239771,9558,7,0.804443359375,-0.16510009765625,0.46112060546875
1759913756466,1009239771,9558,8,0.804443359375,-0.16314697265625,0.47039794921875
1759913756466,1009239771,9558,9,0.802001953125,-0.16290283203125,0.45867919921875
1759913756466,1009239771,9558,10,0.802734375,-0.16314697265625,0.46380615234375
1759913756466,1009239771,9558,11,0.7978515625,-0.16339111328125,0.47186279296875
1759913756466,1009239771,9558,12,0.799072265625,-0.16412353515625,0.47283935546875
