receivedPhoneTimestamp,respeckTimestamp,packetSeqNum,sampleSeqNum,accelX,accelY,accelZ
1688364847269,9847108,3787,0,-0.787353515625,0.14447021484375,-0.67950439453125
1688364847269,9847108,3787,1,-0.79052734375,0.14666748046875,-0.67535400390625
1688364847269,9847108,3787,2,-0.784912109375,0.15399169921875,-0.68341064453125
1688364847269,9847108,3787,3,-0.783935546875,0.15692138671875,-0.67510986328125
1688364847269,9847108,3787,4,-0.786376953125,0.15814208984375,-0.67510986328125
1688364847269,9847108,3787,5,-0.787353515625,0.16229248046875,-0.67388916015625
1688364847269,9847108,3787,6,-0.786376953125,0.16912841796875,-0.67388916015625
1688364847269,9847108,3787,7,-0.7841796875,0.17181396484375,-0.67169189453125
1688364847269,9847108,3787,8,-0.781982421875,0.17376708984375,-0.67022705078125
1688364847269,9847108,3787,9,-0.786865234375,0.17449951171875,-0.66925048828125
1688364847269,9847108,3787,10,-0.785888671875,0.16888427734375,-0.67291259765625
1688364847269,9847108,3787,11,-0.784912109375,0.16619873046875,-0.67022705078125
1688364847269,9847108,3787,12,-0.78857421875,0.16473388671875,-0.67242431640625
1688364847269,9847108,3787,13,-0.78662109375,0.16302490234375,-0.66998291015625
1688364847269,9847108,3787,14,-0.785400390625,0.16839599609375,-0.67535400390625
1688364847269,9847108,3787,15,-0.78564453125,0.16253662109375,-0.67169189453125
1688364847269,9847108,3787,16,-0.786376953125,0.16326904296875,-0.66705322265625
1688364847269,9847108,3787,17,-0.785400390625,0.16204833984375,-0.67559814453125
1688364847269,9847108,3787,18,-0.78857421875,0.16351318359375,-0.67535400390625
1688364847269,9847108,3787,19,-0.787109375,0.16009521484375,-0.67022705078125
1688364847269,9847108,3787,20,-0.78515625,0.15911865234375,-0.67388916015625
1688364847269,9847108,3787,21,-0.78369140625,0.15960693359375,-0.67413330078125
1688364847269,9847108,3787,22,-0.787841796875,0.15521240234375,-0.67071533203125
1688364847269,9847108,3787,23,-0.786376953125,0.15423583984375,-0.67022705078125
1688364847269,9847108,3787,24,-0.787109375,0.15570068359375,-0.67413330078125
1688364847269,9847108,3787,25,-0.78857421875,0.15374755859375,-0.67486572265625
1688364847269,9847108,3787,26,-0.78857421875,0.15057373046875,-0.67340087890625
1688364847269,9847108,3787,27,-0.7880859375,0.15106201171875,-0.67144775390625
1688364847269,9847108,3787,28,-0.78857421875,0.14910888671875,-0.67266845703125
1688364847269,9847108,3787,29,-0.7861328125,0.14691162109375,-0.67559814453125
1688364847269,9847108,3787,30,-0.786865234375,0.14739990234375,-0.67535400390625
1688364847269,9847108,3787,31,-0.789794921875,0.14764404296875,-0.67657470703125
1688364849807,9849687,3788,0,-0.78662109375,0.14593505859375,-0.67437744140625
1688364849807,9849687,3788,1,-0.7900390625,0.14569091796875,-0.67755126953125
1688364849807,9849687,3788,2,-0.78662109375,0.14764404296875,-0.67608642578125
1688364849807,9849687,3788,3,-0.787841796875,0.14569091796875,-0.67047119140625
1688364849807,9849687,3788,4,-0.787841796875,0.14569091796875,-0.67803955078125
1688364849807,9849687,3788,5,-0.7880859375,0.14398193359375,-0.67510986328125
1688364849807,9849687,3788,6,-0.787841796875,0.14642333984375,-0.67926025390625
1688364849807,9849687,3788,7,-0.786865234375,0.14447021484375,-0.67315673828125
1688364849807,9849687,3788,8,-0.790771484375,0.14373779296875,-0.68145751953125
1688364849807,9849687,3788,9,-0.788330078125,0.14324951171875,-0.67022705078125
1688364849807,9849687,3788,10,-0.78955078125,0.14080810546875,-0.67413330078125
1688364849807,9849687,3788,11,-0.787353515625,0.14105224609375,-0.67608642578125
1688364849807,9849687,3788,12,-0.784912109375,0.13983154296875,-0.67852783203125
1688364849807,9849687,3788,13,-0.786865234375,0.14447021484375,-0.67730712890625
1688364849807,9849687,3788,14,-0.788330078125,0.14105224609375,-0.67315673828125
1688364849807,9849687,3788,15,-0.78515625,0.14154052734375,-0.67901611328125
1688364849807,9849687,3788,16,-0.78466796875,0.14447021484375,-0.68292236328125
1688364849807,9849687,3788,17,-0.78369140625,0.14202880859375,-0.68267822265625
1688364849807,9849687,3788,18,-0.786376953125,0.14324951171875,-0.67755126953125
1688364849807,9849687,3788,19,-0.78662109375,0.13763427734375,-0.67437744140625
1688364849807,9849687,3788,20,-0.787109375,0.13861083984375,-0.68267822265625
1688364849807,9849687,3788,21,-0.787109375,0.13836669921875,-0.67926025390625
1688364849807,9849687,3788,22,-0.786376953125,0.13909912109375,-0.67828369140625
1688364849807,9849687,3788,23,-0.78369140625,0.14202880859375,-0.68389892578125
1688364849807,9849687,3788,24,-0.78759765625,0.13665771484375,-0.67437744140625
1688364849807,9849687,3788,25,-0.78466796875,0.13714599609375,-0.68267822265625
1688364849807,9849687,3788,26,-0.7841796875,0.13665771484375,-0.68243408203125
1688364849807,9849687,3788,27,-0.78515625,0.13519287109375,-0.67706298828125
1688364849807,9849687,3788,28,-0.785400390625,0.13861083984375,-0.68048095703125
1688364849807,9849687,3788,29,-0.784423828125,0.13690185546875,-0.67657470703125
1688364849807,9849687,3788,30,-0.784912109375,0.13641357421875,-0.67486572265625
1688364849807,9849687,3788,31,-0.787841796875,0.13787841796875,-0.67340087890625
1688364852536,9852266,3789,0,-0.7861328125,0.15155029296875,-0.68096923828125
1688364852536,9852266,3789,1,-0.784423828125,0.15960693359375,-0.67755126953125
1688364852536,9852266,3789,2,-0.782470703125,0.17352294921875,-0.67657470703125
1688364852536,9852266,3789,3,-0.777587890625,0.17401123046875,-0.68072509765625
1688364852536,9852266,3789,4,-0.784423828125,0.16888427734375,-0.66729736328125
1688364852536,9852266,3789,5,-0.78466796875,0.16473388671875,-0.67779541015625
1688364852536,9852266,3789,6,-0.787841796875,0.16619873046875,-0.67071533203125
1688364852536,9852266,3789,7,-0.781982421875,0.16131591796875,-0.67169189453125
1688364852536,9852266,3789,8,-0.7861328125,0.16156005859375,-0.68023681640625
1688364852536,9852266,3789,9,-0.785888671875,0.16326904296875,-0.67388916015625
1688364852536,9852266,3789,10,-0.783447265625,0.16082763671875,-0.67950439453125
1688364852536,9852266,3789,11,-0.78466796875,0.15838623046875,-0.67559814453125
1688364852536,9852266,3789,12,-0.78369140625,0.15814208984375,-0.67242431640625
1688364852536,9852266,3789,13,-0.7841796875,0.15350341796875,-0.67803955078125
1688364852536,9852266,3789,14,-0.785888671875,0.15863037109375,-0.67779541015625
1688364852536,9852266,3789,15,-0.78515625,0.15301513671875,-0.67535400390625
1688364852536,9852266,3789,16,-0.785400390625,0.15106201171875,-0.67486572265625
1688364852536,9852266,3789,17,-0.78564453125,0.15106201171875,-0.67681884765625
1688364852536,9852266,3789,18,-0.78662109375,0.14764404296875,-0.66705322265625
1688364852536,9852266,3789,19,-0.783447265625,0.14959716796875,-0.68438720703125
1688364852536,9852266,3789,20,-0.78564453125,0.14666748046875,-0.67095947265625
1688364852536,9852266,3789,21,-0.787109375,0.14764404296875,-0.68194580078125
1688364852536,9852266,3789,22,-0.7861328125,0.14520263671875,-0.67340087890625
1688364852536,9852266,3789,23,-0.7861328125,0.14373779296875,-0.67803955078125
1688364852536,9852266,3789,24,-0.78955078125,0.14447021484375,-0.67633056640625
1688364852536,9852266,3789,25,-0.78857421875,0.14447021484375,-0.67803955078125
1688364852536,9852266,3789,26,-0.786376953125,0.14105224609375,-0.67559814453125
1688364852536,9852266,3789,27,-0.787353515625,0.14300537109375,-0.68023681640625
1688364852536,9852266,3789,28,-0.787841796875,0.14324951171875,-0.68023681640625
1688364852536,9852266,3789,29,-0.7861328125,0.14300537109375,-0.67730712890625
1688364852536,9852266,3789,30,-0.786865234375,0.14129638671875,-0.67755126953125
1688364852536,9852266,3789,31,-0.788330078125,0.13958740234375,-0.67852783203125
1688364855072,9854845,3790,0,-0.7880859375,0.13983154296875,-0.68511962890625
1688364855072,9854845,3790,1,-0.784423828125,0.13348388671875,-0.67388916015625
1688364855072,9854845,3790,2,-0.78564453125,0.13446044921875,-0.68951416015625
1688364855072,9854845,3790,3,-0.788818359375,0.13153076171875,-0.67584228515625
1688364855072,9854845,3790,4,-0.786376953125,0.13323974609375,-0.67852783203125
1688364855072,9854845,3790,5,-0.78564453125,0.13299560546875,-0.68194580078125
1688364855072,9854845,3790,6,-0.786376953125,0.13055419921875,-0.67803955078125
1688364855072,9854845,3790,7,-0.78662109375,0.13153076171875,-0.67633056640625
1688364855072,9854845,3790,8,-0.78515625,0.13250732421875,-0.68609619140625
1688364855072,9854845,3790,9,-0.78515625,0.13201904296875,-0.67706298828125
1688364855072,9854845,3790,10,-0.786865234375,0.13323974609375,-0.68560791015625
1688364855072,9854845,3790,11,-0.785400390625,0.13055419921875,-0.68243408203125
1688364855072,9854845,3790,12,-0.784912109375,0.12860107421875,-0.68194580078125
1688364855072,9854845,3790,13,-0.786865234375,0.13031005859375,-0.68096923828125
1688364855072,9854845,3790,14,-0.786865234375,0.13275146484375,-0.68145751953125
1688364855072,9854845,3790,15,-0.78564453125,0.13275146484375,-0.67901611328125
1688364855072,9854845,3790,16,-0.786865234375,0.13153076171875,-0.67901611328125
1688364855072,9854845,3790,17,-0.7890625,0.13055419921875,-0.68194580078125
1688364855072,9854845,3790,18,-0.786376953125,0.13397216796875,-0.67901611328125
1688364855072,9854845,3790,19,-0.788330078125,0.13079833984375,-0.68267822265625
1688364855072,9854845,3790,20,-0.7880859375,0.13299560546875,-0.68023681640625
1688364855072,9854845,3790,21,-0.788330078125,0.13226318359375,-0.68438720703125
1688364855072,9854845,3790,22,-0.78515625,0.13031005859375,-0.67950439453125
1688364855072,9854845,3790,23,-0.787841796875,0.13079833984375,-0.67926025390625
1688364855072,9854845,3790,24,-0.78564453125,0.12884521484375,-0.67559814453125
1688364855072,9854845,3790,25,-0.789794921875,0.13616943359375,-0.66973876953125
1688364855072,9854845,3790,26,-0.78857421875,0.14544677734375,-0.68560791015625
1688364855072,9854845,3790,27,-0.788818359375,0.15863037109375,-0.67364501953125
1688364855072,9854845,3790,28,-0.78564453125,0.16571044921875,-0.67608642578125
1688364855072,9854845,3790,29,-0.78857421875,0.16448974609375,-0.67193603515625
1688364855072,9854845,3790,30,-0.785400390625,0.16571044921875,-0.67852783203125
1688364855072,9854845,3790,31,-0.7861328125,0.16497802734375,-0.67364501953125
1688364857606,9857424,3791,0,-0.78369140625,0.16131591796875,-0.67266845703125
1688364857606,9857424,3791,1,-0.78466796875,0.16033935546875,-0.67535400390625
1688364857606,9857424,3791,2,-0.783935546875,0.16082763671875,-0.67364501953125
1688364857606,9857424,3791,3,-0.785400390625,0.15936279296875,-0.67877197265625
1688364857606,9857424,3791,4,-0.78369140625,0.15496826171875,-0.67559814453125
1688364857606,9857424,3791,5,-0.782470703125,0.15496826171875,-0.67559814453125
1688364857606,9857424,3791,6,-0.785400390625,0.15692138671875,-0.66876220703125
1688364857606,9857424,3791,7,-0.783447265625,0.15399169921875,-0.67633056640625
1688364857606,9857424,3791,8,-0.78466796875,0.15350341796875,-0.67510986328125
1688364857606,9857424,3791,9,-0.785400390625,0.15325927734375,-0.67608642578125
1688364857606,9857424,3791,10,-0.783935546875,0.15472412109375,-0.67803955078125
1688364857606,9857424,3791,11,-0.783935546875,0.15032958984375,-0.67706298828125
1688364857606,9857424,3791,12,-0.789306640625,0.15228271484375,-0.67657470703125
1688364857606,9857424,3791,13,-0.78515625,0.15032958984375,-0.68048095703125
1688364857606,9857424,3791,14,-0.7861328125,0.14691162109375,-0.68023681640625
1688364857606,9857424,3791,15,-0.7861328125,0.14691162109375,-0.67755126953125
1688364857606,9857424,3791,16,-0.78564453125,0.14569091796875,-0.67779541015625
1688364857606,9857424,3791,17,-0.7841796875,0.14471435546875,-0.67803955078125
1688364857606,9857424,3791,18,-0.786865234375,0.14544677734375,-0.67828369140625
1688364857606,9857424,3791,19,-0.784912109375,0.14373779296875,-0.67901611328125
1688364857606,9857424,3791,20,-0.783447265625,0.14788818359375,-0.67828369140625
1688364857606,9857424,3791,21,-0.782958984375,0.14276123046875,-0.67950439453125
1688364857606,9857424,3791,22,-0.785888671875,0.14495849609375,-0.67877197265625
1688364857606,9857424,3791,23,-0.784423828125,0.14398193359375,-0.68218994140625
1688364857606,9857424,3791,24,-0.787353515625,0.14398193359375,-0.68511962890625
1688364857606,9857424,3791,25,-0.78369140625,0.14056396484375,-0.67779541015625
1688364857606,9857424,3791,26,-0.782958984375,0.14129638671875,-0.68316650390625
1688364857606,9857424,3791,27,-0.785888671875,0.14227294921875,-0.68048095703125
1688364857606,9857424,3791,28,-0.788330078125,0.14154052734375,-0.68267822265625
1688364857606,9857424,3791,29,-0.781494140625,0.14007568359375,-0.67681884765625
1688364857606,9857424,3791,30,-0.782958984375,0.13714599609375,-0.67901611328125
1688364857606,9857424,3791,31,-0.785400390625,0.13641357421875,-0.68267822265625
1688364860142,9860003,3792,0,-0.7861328125,0.13934326171875,-0.68170166015625
1688364860142,9860003,3792,1,-0.783447265625,0.13665771484375,-0.68072509765625
1688364860142,9860003,3792,2,-0.78564453125,0.13983154296875,-0.68365478515625
1688364860142,9860003,3792,3,-0.783935546875,0.13909912109375,-0.68048095703125
1688364860142,9860003,3792,4,-0.78564453125,0.13592529296875,-0.67901611328125
1688364860142,9860003,3792,5,-0.786376953125,0.13519287109375,-0.67877197265625
1688364860142,9860003,3792,6,-0.783935546875,0.13690185546875,-0.68170166015625
1688364860142,9860003,3792,7,-0.78515625,0.13372802734375,-0.68023681640625
1688364860142,9860003,3792,8,-0.785400390625,0.13714599609375,-0.68218994140625
1688364860142,9860003,3792,9,-0.78271484375,0.13739013671875,-0.68365478515625
1688364860142,9860003,3792,10,-0.78369140625,0.13665771484375,-0.68560791015625
1688364860142,9860003,3792,11,-0.785400390625,0.13690185546875,-0.67877197265625
1688364860142,9860003,3792,12,-0.78369140625,0.13568115234375,-0.68170166015625
1688364860142,9860003,3792,13,-0.787353515625,0.13665771484375,-0.68023681640625
1688364860142,9860003,3792,14,-0.785888671875,0.13641357421875,-0.68096923828125
1688364860142,9860003,3792,15,-0.78271484375,0.13323974609375,-0.68170166015625
1688364860142,9860003,3792,16,-0.782470703125,0.13323974609375,-0.67974853515625
1688364860142,9860003,3792,17,-0.7841796875,0.13323974609375,-0.67388916015625
1688364860142,9860003,3792,18,-0.787353515625,0.14520263671875,-0.68121337890625
1688364860142,9860003,3792,19,-0.7861328125,0.15374755859375,-0.68365478515625
1688364860142,9860003,3792,20,-0.78271484375,0.16912841796875,-0.68243408203125
1688364860142,9860003,3792,21,-0.781982421875,0.17352294921875,-0.67877197265625
1688364860142,9860003,3792,22,-0.784423828125,0.16717529296875,-0.66632080078125
1688364860142,9860003,3792,23,-0.7861328125,0.16912841796875,-0.68170166015625
1688364860142,9860003,3792,24,-0.784423828125,0.16448974609375,-0.67120361328125
1688364860142,9860003,3792,25,-0.78173828125,0.16229248046875,-0.67535400390625
1688364860142,9860003,3792,26,-0.7822265625,0.16522216796875,-0.67926025390625
1688364860142,9860003,3792,27,-0.783447265625,0.16278076171875,-0.67779541015625
1688364860142,9860003,3792,28,-0.77978515625,0.15911865234375,-0.68048095703125
1688364860142,9860003,3792,29,-0.78515625,0.15887451171875,-0.67510986328125
1688364860142,9860003,3792,30,-0.781982421875,0.15545654296875,-0.67877197265625
1688364860142,9860003,3792,31,-0.7841796875,0.15716552734375,-0.67852783203125
1688364863067,9862583,3793,0,-0.782958984375,0.15203857421875,-0.67852783203125
1688364863067,9862583,3793,1,-0.783447265625,0.15277099609375,-0.67828369140625
1688364863067,9862583,3793,2,-0.783935546875,0.15350341796875,-0.67486572265625
1688364863067,9862583,3793,3,-0.78564453125,0.15008544921875,-0.67657470703125
1688364863067,9862583,3793,4,-0.78564453125,0.14862060546875,-0.67755126953125
1688364863067,9862583,3793,5,-0.7841796875,0.14984130859375,-0.67803955078125
1688364863067,9862583,3793,6,-0.784423828125,0.14764404296875,-0.67852783203125
1688364863067,9862583,3793,7,-0.786376953125,0.15106201171875,-0.67291259765625
1688364863067,9862583,3793,8,-0.7841796875,0.14788818359375,-0.67877197265625
1688364863067,9862583,3793,9,-0.784912109375,0.14544677734375,-0.67706298828125
1688364863067,9862583,3793,10,-0.787109375,0.14593505859375,-0.67901611328125
1688364863067,9862583,3793,11,-0.786376953125,0.14300537109375,-0.67681884765625
1688364863067,9862583,3793,12,-0.786865234375,0.14422607421875,-0.67926025390625
1688364863067,9862583,3793,13,-0.784423828125,0.14617919921875,-0.68121337890625
1688364863067,9862583,3793,14,-0.78369140625,0.14324951171875,-0.67828369140625
1688364863067,9862583,3793,15,-0.785888671875,0.14593505859375,-0.67779541015625
1688364863067,9862583,3793,16,-0.783447265625,0.14544677734375,-0.68658447265625
1688364863067,9862583,3793,17,-0.7861328125,0.13983154296875,-0.68023681640625
1688364863067,9862583,3793,18,-0.789306640625,0.13763427734375,-0.68511962890625
1688364863067,9862583,3793,19,-0.784912109375,0.13348388671875,-0.67608642578125
1688364863067,9862583,3793,20,-0.78564453125,0.12933349609375,-0.67779541015625
1688364863067,9862583,3793,21,-0.790283203125,0.13323974609375,-0.68145751953125
1688364863067,9862583,3793,22,-0.784423828125,0.13519287109375,-0.68316650390625
1688364863067,9862583,3793,23,-0.78466796875,0.13372802734375,-0.68365478515625
1688364863067,9862583,3793,24,-0.787109375,0.13519287109375,-0.68121337890625
1688364863067,9862583,3793,25,-0.787841796875,0.13470458984375,-0.67999267578125
1688364863067,9862583,3793,26,-0.78369140625,0.13104248046875,-0.68170166015625
1688364863067,9862583,3793,27,-0.78271484375,0.13568115234375,-0.68414306640625
1688364863067,9862583,3793,28,-0.78466796875,0.13397216796875,-0.68487548828125
1688364863067,9862583,3793,29,-0.783203125,0.13226318359375,-0.68292236328125
1688364863067,9862583,3793,30,-0.784912109375,0.13226318359375,-0.67999267578125
1688364863067,9862583,3793,31,-0.785888671875,0.13519287109375,-0.67999267578125
1688364865601,9865162,3794,0,-0.784912109375,0.13372802734375,-0.68389892578125
1688364865601,9865162,3794,1,-0.781982421875,0.13543701171875,-0.68194580078125
1688364865601,9865162,3794,2,-0.783447265625,0.13543701171875,-0.68536376953125
1688364865601,9865162,3794,3,-0.786865234375,0.13421630859375,-0.68023681640625
1688364865601,9865162,3794,4,-0.78515625,0.13519287109375,-0.68267822265625
1688364865601,9865162,3794,5,-0.783935546875,0.13421630859375,-0.68048095703125
1688364865601,9865162,3794,6,-0.782470703125,0.13177490234375,-0.68267822265625
1688364865601,9865162,3794,7,-0.7841796875,0.13348388671875,-0.68487548828125
1688364865601,9865162,3794,8,-0.78369140625,0.13470458984375,-0.68341064453125
1688364865601,9865162,3794,9,-0.78515625,0.13275146484375,-0.68389892578125
1688364865601,9865162,3794,10,-0.78662109375,0.13323974609375,-0.68267822265625
1688364865601,9865162,3794,11,-0.788330078125,0.13372802734375,-0.67974853515625
1688364865601,9865162,3794,12,-0.78369140625,0.13104248046875,-0.67950439453125
1688364865601,9865162,3794,13,-0.78515625,0.13275146484375,-0.68218994140625
1688364865601,9865162,3794,14,-0.784912109375,0.13079833984375,-0.68365478515625
1688364865601,9865162,3794,15,-0.785400390625,0.12957763671875,-0.67657470703125
1688364865601,9865162,3794,16,-0.7861328125,0.13714599609375,-0.66949462890625
1688364865601,9865162,3794,17,-0.787841796875,0.15716552734375,-0.67999267578125
1688364865601,9865162,3794,18,-0.78271484375,0.16815185546875,-0.68096923828125
1688364865601,9865162,3794,19,-0.77001953125,0.16961669921875,-0.68145751953125
1688364865601,9865162,3794,20,-0.783447265625,0.16546630859375,-0.66265869140625
1688364865601,9865162,3794,21,-0.7841796875,0.17230224609375,-0.67926025390625
1688364865601,9865162,3794,22,-0.78173828125,0.16424560546875,-0.67755126953125
1688364865601,9865162,3794,23,-0.78369140625,0.16375732421875,-0.67657470703125
1688364865601,9865162,3794,24,-0.785400390625,0.16326904296875,-0.67755126953125
1688364865601,9865162,3794,25,-0.78515625,0.16180419921875,-0.67706298828125
1688364865601,9865162,3794,26,-0.78466796875,0.15985107421875,-0.67535400390625
1688364865601,9865162,3794,27,-0.78271484375,0.16009521484375,-0.67950439453125
1688364865601,9865162,3794,28,-0.78369140625,0.15960693359375,-0.67999267578125
1688364865601,9865162,3794,29,-0.785888671875,0.15936279296875,-0.68145751953125
1688364865601,9865162,3794,30,-0.784912109375,0.15350341796875,-0.67413330078125
1688364865601,9865162,3794,31,-0.78369140625,0.15252685546875,-0.67877197265625
1688364867942,9867741,3795,0,-0.783447265625,0.15350341796875,-0.67974853515625
1688364867942,9867741,3795,1,-0.784423828125,0.15106201171875,-0.67877197265625
1688364867942,9867741,3795,2,-0.78466796875,0.15032958984375,-0.67755126953125
1688364867942,9867741,3795,3,-0.787109375,0.14691162109375,-0.67755126953125
1688364867942,9867741,3795,4,-0.783935546875,0.14642333984375,-0.67926025390625
1688364867942,9867741,3795,5,-0.7861328125,0.14471435546875,-0.67926025390625
1688364867942,9867741,3795,6,-0.784912109375,0.14373779296875,-0.67901611328125
1688364867942,9867741,3795,7,-0.78564453125,0.14276123046875,-0.67681884765625
1688364867942,9867741,3795,8,-0.78564453125,0.13909912109375,-0.67608642578125
1688364867942,9867741,3795,9,-0.786376953125,0.14007568359375,-0.67877197265625
1688364867942,9867741,3795,10,-0.7880859375,0.13787841796875,-0.67803955078125
1688364867942,9867741,3795,11,-0.785400390625,0.13983154296875,-0.67730712890625
1688364867942,9867741,3795,12,-0.788330078125,0.14154052734375,-0.66778564453125
1688364867942,9867741,3795,13,-0.7861328125,0.16693115234375,-0.69512939453125
1688364867942,9867741,3795,14,-0.78466796875,0.16278076171875,-0.67364501953125
1688364867942,9867741,3795,15,-0.783203125,0.16009521484375,-0.66851806640625
1688364867942,9867741,3795,16,-0.78857421875,0.15863037109375,-0.67364501953125
1688364867942,9867741,3795,17,-0.788818359375,0.16375732421875,-0.67535400390625
1688364867942,9867741,3795,18,-0.780517578125,0.15765380859375,-0.67071533203125
1688364867942,9867741,3795,19,-0.785400390625,0.16009521484375,-0.67681884765625
1688364867942,9867741,3795,20,-0.78271484375,0.15863037109375,-0.67535400390625
1688364867942,9867741,3795,21,-0.781982421875,0.15643310546875,-0.67535400390625
1688364867942,9867741,3795,22,-0.783935546875,0.15570068359375,-0.67657470703125
1688364867942,9867741,3795,23,-0.781494140625,0.15423583984375,-0.67584228515625
1688364867942,9867741,3795,24,-0.783935546875,0.15692138671875,-0.67999267578125
1688364867942,9867741,3795,25,-0.782958984375,0.15399169921875,-0.67364501953125
1688364867942,9867741,3795,26,-0.78369140625,0.15277099609375,-0.67901611328125
1688364867942,9867741,3795,27,-0.786376953125,0.15008544921875,-0.67486572265625
1688364867942,9867741,3795,28,-0.7861328125,0.15032958984375,-0.68096923828125
1688364867942,9867741,3795,29,-0.78466796875,0.14886474609375,-0.67559814453125
1688364867942,9867741,3795,30,-0.78515625,0.14666748046875,-0.67681884765625
1688364867942,9867741,3795,31,-0.783447265625,0.14715576171875,-0.67755126953125
1688364870473,9870320,3796,0,-0.78271484375,0.14813232421875,-0.68341064453125
1688364870473,9870320,3796,1,-0.781005859375,0.14495849609375,-0.67803955078125
1688364870473,9870320,3796,2,-0.78515625,0.14544677734375,-0.67999267578125
1688364870473,9870320,3796,3,-0.7841796875,0.14520263671875,-0.67779541015625
1688364870473,9870320,3796,4,-0.785400390625,0.14398193359375,-0.67926025390625
1688364870473,9870320,3796,5,-0.7841796875,0.14373779296875,-0.68145751953125
1688364870473,9870320,3796,6,-0.7822265625,0.14251708984375,-0.67828369140625
1688364870473,9870320,3796,7,-0.784423828125,0.14129638671875,-0.68194580078125
1688364870473,9870320,3796,8,-0.78466796875,0.14251708984375,-0.67315673828125
1688364870473,9870320,3796,9,-0.784912109375,0.14837646484375,-0.67755126953125
1688364870473,9870320,3796,10,-0.784423828125,0.16790771484375,-0.68170166015625
1688364870473,9870320,3796,11,-0.776611328125,0.17108154296875,-0.67926025390625
1688364870473,9870320,3796,12,-0.781494140625,0.16229248046875,-0.66680908203125
1688364870473,9870320,3796,13,-0.78369140625,0.16351318359375,-0.68511962890625
1688364870473,9870320,3796,14,-0.78564453125,0.16180419921875,-0.66778564453125
1688364870473,9870320,3796,15,-0.783447265625,0.15472412109375,-0.67657470703125
1688364870473,9870320,3796,16,-0.786865234375,0.15863037109375,-0.68023681640625
1688364870473,9870320,3796,17,-0.782470703125,0.15985107421875,-0.67755126953125
1688364870473,9870320,3796,18,-0.784423828125,0.15643310546875,-0.68463134765625
1688364870473,9870320,3796,19,-0.7841796875,0.15667724609375,-0.67681884765625
1688364870473,9870320,3796,20,-0.783447265625,0.15521240234375,-0.67877197265625
1688364870473,9870320,3796,21,-0.7841796875,0.15570068359375,-0.68023681640625
1688364870473,9870320,3796,22,-0.78466796875,0.15472412109375,-0.67779541015625
1688364870473,9870320,3796,23,-0.784912109375,0.15057373046875,-0.67828369140625
1688364870473,9870320,3796,24,-0.78369140625,0.15228271484375,-0.67730712890625
1688364870473,9870320,3796,25,-0.784423828125,0.15032958984375,-0.67999267578125
1688364870473,9870320,3796,26,-0.782958984375,0.14788818359375,-0.67730712890625
1688364870473,9870320,3796,27,-0.784423828125,0.14886474609375,-0.67779541015625
1688364870473,9870320,3796,28,-0.786376953125,0.14593505859375,-0.67877197265625
1688364870473,9870320,3796,29,-0.78271484375,0.14569091796875,-0.68072509765625
1688364870473,9870320,3796,30,-0.787353515625,0.14666748046875,-0.67999267578125
1688364870473,9870320,3796,31,-0.78662109375,0.14520263671875,-0.67681884765625
1688364873207,9872899,3797,0,-0.7861328125,0.14349365234375,-0.68218994140625
1688364873207,9872899,3797,1,-0.783935546875,0.14227294921875,-0.67926025390625
1688364873207,9872899,3797,2,-0.785888671875,0.14154052734375,-0.68096923828125
1688364873207,9872899,3797,3,-0.786865234375,0.14276123046875,-0.68560791015625
1688364873207,9872899,3797,4,-0.785888671875,0.14129638671875,-0.67315673828125
1688364873207,9872899,3797,5,-0.781982421875,0.14300537109375,-0.67608642578125
1688364873207,9872899,3797,6,-0.786376953125,0.14886474609375,-0.68267822265625
1688364873207,9872899,3797,7,-0.784423828125,0.16302490234375,-0.67510986328125
1688364873207,9872899,3797,8,-0.78271484375,0.16131591796875,-0.68145751953125
1688364873207,9872899,3797,9,-0.787353515625,0.15594482421875,-0.66632080078125
1688364873207,9872899,3797,10,-0.783935546875,0.15545654296875,-0.67755126953125
1688364873207,9872899,3797,11,-0.784423828125,0.15887451171875,-0.67633056640625
1688364873207,9872899,3797,12,-0.78466796875,0.15789794921875,-0.67535400390625
1688364873207,9872899,3797,13,-0.78466796875,0.15643310546875,-0.67803955078125
1688364873207,9872899,3797,14,-0.784912109375,0.15594482421875,-0.67535400390625
1688364873207,9872899,3797,15,-0.78564453125,0.15887451171875,-0.67877197265625
1688364873207,9872899,3797,16,-0.7900390625,0.15203857421875,-0.67950439453125
1688364873207,9872899,3797,17,-0.789794921875,0.14715576171875,-0.66705322265625
1688364873207,9872899,3797,18,-0.797607421875,0.14959716796875,-0.67559814453125
1688364873207,9872899,3797,19,-0.799072265625,0.15130615234375,-0.67584228515625
1688364873207,9872899,3797,20,-0.79296875,0.14129638671875,-0.65435791015625
1688364873207,9872899,3797,21,-0.79150390625,0.14227294921875,-0.65655517578125
1688364873207,9872899,3797,22,-0.79736328125,0.14593505859375,-0.66656494140625
1688364873207,9872899,3797,23,-0.7919921875,0.14739990234375,-0.66339111328125
1688364873207,9872899,3797,24,-0.79248046875,0.14764404296875,-0.67340087890625
1688364873207,9872899,3797,25,-0.792236328125,0.14593505859375,-0.67437744140625
1688364873207,9872899,3797,26,-0.79345703125,0.14910888671875,-0.66778564453125
1688364873207,9872899,3797,27,-0.789794921875,0.14495849609375,-0.66485595703125
1688364873207,9872899,3797,28,-0.794189453125,0.14910888671875,-0.67413330078125
1688364873207,9872899,3797,29,-0.79345703125,0.14642333984375,-0.67022705078125
1688364873207,9872899,3797,30,-0.79052734375,0.14666748046875,-0.67413330078125
1688364873207,9872899,3797,31,-0.7880859375,0.14739990234375,-0.66778564453125
1688364875937,9875478,3798,0,-0.791015625,0.14569091796875,-0.65777587890625
1688364875937,9875478,3798,1,-0.795654296875,0.15350341796875,-0.65557861328125
1688364875937,9875478,3798,2,-0.794921875,0.17034912109375,-0.67462158203125
1688364875937,9875478,3798,3,-0.791259765625,0.17327880859375,-0.65679931640625
1688364875937,9875478,3798,4,-0.788330078125,0.17059326171875,-0.66168212890625
1688364875937,9875478,3798,5,-0.794677734375,0.17474365234375,-0.65728759765625
1688364875937,9875478,3798,6,-0.793701171875,0.17620849609375,-0.66558837890625
1688364875937,9875478,3798,7,-0.791015625,0.16864013671875,-0.65704345703125
1688364875937,9875478,3798,8,-0.79052734375,0.16668701171875,-0.66387939453125
1688364875937,9875478,3798,9,-0.792236328125,0.16619873046875,-0.65777587890625
1688364875937,9875478,3798,10,-0.79150390625,0.16619873046875,-0.66558837890625
1688364875937,9875478,3798,11,-0.793701171875,0.16326904296875,-0.66290283203125
1688364875937,9875478,3798,12,-0.792236328125,0.16473388671875,-0.66192626953125
1688364875937,9875478,3798,13,-0.790283203125,0.16644287109375,-0.66412353515625
1688364875937,9875478,3798,14,-0.7919921875,0.16351318359375,-0.66534423828125
1688364875937,9875478,3798,15,-0.795166015625,0.16180419921875,-0.65875244140625
1688364875937,9875478,3798,16,-0.79296875,0.15911865234375,-0.66314697265625
1688364875937,9875478,3798,17,-0.7939453125,0.16131591796875,-0.66314697265625
1688364875937,9875478,3798,18,-0.79345703125,0.15911865234375,-0.66021728515625
1688364875937,9875478,3798,19,-0.79345703125,0.15667724609375,-0.66143798828125
1688364875937,9875478,3798,20,-0.791259765625,0.15618896484375,-0.65997314453125
1688364875937,9875478,3798,21,-0.7939453125,0.15716552734375,-0.66558837890625
1688364875937,9875478,3798,22,-0.791748046875,0.15545654296875,-0.67120361328125
1688364875937,9875478,3798,23,-0.79248046875,0.15618896484375,-0.66241455078125
1688364875937,9875478,3798,24,-0.7919921875,0.15545654296875,-0.66876220703125
1688364875937,9875478,3798,25,-0.791748046875,0.14984130859375,-0.66143798828125
1688364875937,9875478,3798,26,-0.79150390625,0.14886474609375,-0.66339111328125
1688364875937,9875478,3798,27,-0.79296875,0.14886474609375,-0.66021728515625
1688364875937,9875478,3798,28,-0.79345703125,0.14837646484375,-0.66217041015625
1688364875937,9875478,3798,29,-0.79345703125,0.14886474609375,-0.66168212890625
1688364875937,9875478,3798,30,-0.795654296875,0.14886474609375,-0.65289306640625
1688364875937,9875478,3798,31,-0.80322265625,0.15838623046875,-0.66461181640625
1688364878277,9878057,3799,0,-0.790771484375,0.17523193359375,-0.67120361328125
1688364878277,9878057,3799,1,-0.784423828125,0.16864013671875,-0.66241455078125
1688364878277,9878057,3799,2,-0.789794921875,0.16937255859375,-0.66656494140625
1688364878277,9878057,3799,3,-0.7939453125,0.17352294921875,-0.66119384765625
1688364878277,9878057,3799,4,-0.791748046875,0.16619873046875,-0.65997314453125
1688364878277,9878057,3799,5,-0.7890625,0.16082763671875,-0.66070556640625
1688364878277,9878057,3799,6,-0.792724609375,0.16717529296875,-0.66168212890625
1688364878277,9878057,3799,7,-0.792724609375,0.16375732421875,-0.66119384765625
1688364878277,9878057,3799,8,-0.79052734375,0.16253662109375,-0.66485595703125
1688364878277,9878057,3799,9,-0.793212890625,0.15936279296875,-0.66168212890625
1688364878277,9878057,3799,10,-0.791259765625,0.15960693359375,-0.66387939453125
1688364878277,9878057,3799,11,-0.793212890625,0.15716552734375,-0.66485595703125
1688364878277,9878057,3799,12,-0.79150390625,0.15814208984375,-0.66290283203125
1688364878277,9878057,3799,13,-0.79150390625,0.15447998046875,-0.66827392578125
1688364878277,9878057,3799,14,-0.792236328125,0.15667724609375,-0.67169189453125
1688364878277,9878057,3799,15,-0.7939453125,0.15570068359375,-0.66339111328125
