receivedPhoneTimestamp,respeckTimestamp,packetSeqNum,sampleSeqNum,accelX,accelY,accelZ
1760001558778,1125271094,12358,12,0.01953125,-0.99737548828125,0.02972412109375
1760001558778,1125271094,12358,13,0.03759765625,-0.98590087890625,0.03485107421875
1760001558778,1125271094,12358,14,0.026611328125,-0.99273681640625,0.02215576171875
1760001558778,1125271094,12358,15,0.037841796875,-0.99542236328125,0.02899169921875
1760001558778,1125271094,12358,16,0.042236328125,-0.99151611328125,0.03070068359375
1760001558778,1125271094,12358,17,0.03564453125,-0.98956298828125,0.03533935546875
1760001558778,1125271094,12358,18,0.03173828125,-0.99298095703125,0.03338623046875
1760001558778,1125271094,12358,19,0.028076171875,-0.99395751953125,0.03192138671875
1760001558778,1125271094,12358,20,0.02685546875,-0.99346923828125,0.02679443359375
1760001558778,1125271094,12358,21,0.017333984375,-0.99395751953125,0.03802490234375
1760001558778,1125271094,12358,22,0.015625,-0.99957275390625,0.03387451171875
1760001558778,1125271094,12358,23,0.011962890625,-0.99761962890625,0.03631591796875
1760001558778,1125271094,12358,24,0.014404296875,-0.99468994140625,0.03216552734375
1760001558778,1125271094,12358,25,0.004150390625,-1.00250244140625,0.01776123046875
1760001558778,1125271094,12358,26,0.010009765625,-1.00543212890625,0.01092529296875
1760001558778,1125271094,12358,27,0.008056640625,-0.99615478515625,0.01312255859375
1760001558778,1125271094,12358,28,0.005859375,-1.00982666015625,0.01214599609375
1760001558778,1125271094,12358,29,0.00830078125,-1.00006103515625,0.00140380859375
1760001558778,1125271094,12358,30,0.025634765625,-0.98858642578125,0.01116943359375
1760001558778,1125271094,12358,31,0.019775390625,-0.98345947265625,0.02679443359375
1760001561295,1125273613,12359,0,0.0244140625,-0.98809814453125,0.00994873046875
1760001561295,1125273613,12359,1,0.025634765625,-1.00518798828125,0.01873779296875
1760001561295,1125273613,12359,2,0.021240234375,-0.99981689453125,0.02850341796875
1760001561295,1125273613,12359,3,0.0263671875,-1.00054931640625,0.02655029296875
1760001561295,1125273613,12359,4,0.020263671875,-0.99835205078125,0.03582763671875
1760001561295,1125273613,12359,5,0.0166015625,-1.00006103515625,0.02288818359375
1760001561295,1125273613,12359,6,0.013916015625,-0.99371337890625,0.01947021484375
1760001561295,1125273613,12359,7,0.01611328125,-0.98809814453125,0.00799560546875
1760001561295,1125273613,12359,8,0.0078125,-0.98736572265625,-0.00225830078125
1760001561295,1125273613,12359,9,0.01318359375,-1.00274658203125,0.00213623046875
1760001561295,1125273613,12359,10,0.015380859375,-0.99859619140625,0.00653076171875
1760001561295,1125273613,12359,11,0.0263671875,-0.99273681640625,0.00091552734375
1760001561295,1125273613,12359,12,0.019775390625,-0.99102783203125,0.00286865234375
1760001561295,1125273613,12359,13,0.02197265625,-1.00860595703125,-0.00836181640625
1760001561295,1125273613,12359,14,0.030517578125,-0.99908447265625,-0.00347900390625
1760001561295,1125273613,12359,15,0.025634765625,-0.99517822265625,0.00848388671875
1760001561295,1125273613,12359,16,0.021484375,-0.99859619140625,0.00115966796875
1760001561295,1125273613,12359,17,0.03759765625,-1.00030517578125,0.00189208984375
1760001561295,1125273613,12359,18,0.03759765625,-0.99273681640625,0.00970458984375
1760001561295,1125273613,12359,19,0.028076171875,-0.99371337890625,0.02508544921875
1760001561295,1125273613,12359,20,0.029296875,-0.99127197265625,0.01995849609375
1760001561295,1125273613,12359,21,0.028076171875,-0.99200439453125,0.02191162109375
1760001561295,1125273613,12359,22,0.02001953125,-0.99835205078125,0.01873779296875
1760001561295,1125273613,12359,23,0.019287109375,-0.99395751953125,0.02557373046875
1760001561295,1125273613,12359,24,0.010009765625,-0.99615478515625,0.03363037109375
1760001561295,1125273613,12359,25,0.015625,-0.99957275390625,0.01800537109375
1760001561295,1125273613,12359,26,0.015625,-0.99932861328125,0.01409912109375
1760001561295,1125273613,12359,27,0.017578125,-0.99688720703125,0.02264404296875
1760001561295,1125273613,12359,28,0.015625,-0.99664306640625,0.01873779296875
1760001561295,1125273613,12359,29,0.0205078125,-0.99322509765625,0.02020263671875
1760001561295,1125273613,12359,30,0.0263671875,-0.99664306640625,0.00067138671875
1760001561295,1125273613,12359,31,0.01806640625,-0.99737548828125,0.01458740234375
1760001563636,1125276132,12360,0,0.01806640625,-1.00103759765625,0.01287841796875
1760001563636,1125276132,12360,1,0.021484375,-0.99713134765625,0.00921630859375
1760001563636,1125276132,12360,2,0.0224609375,-0.99761962890625,0.00726318359375
1760001563636,1125276132,12360,3,0.029052734375,-0.99615478515625,0.00506591796875
1760001563636,1125276132,12360,4,0.02978515625,-0.99224853515625,0.01019287109375
1760001563636,1125276132,12360,5,0.03125,-0.99468994140625,0.01629638671875
1760001563636,1125276132,12360,6,0.02880859375,-0.99737548828125,0.01239013671875
1760001563636,1125276132,12360,7,0.027587890625,-0.99810791015625,0.01702880859375
1760001563636,1125276132,12360,8,0.030029296875,-0.99273681640625,0.01873779296875
1760001563636,1125276132,12360,9,0.02734375,-0.99493408203125,0.02215576171875
1760001563636,1125276132,12360,10,0.027099609375,-0.99737548828125,0.02020263671875
1760001563636,1125276132,12360,11,0.02392578125,-0.99639892578125,0.01580810546875
1760001563636,1125276132,12360,12,0.021240234375,-0.99981689453125,0.02508544921875
1760001563636,1125276132,12360,13,0.025146484375,-0.99713134765625,0.02117919921875
1760001563636,1125276132,12360,14,0.03125,-0.99005126953125,0.02239990234375
1760001563636,1125276132,12360,15,0.026611328125,-0.99615478515625,0.02825927734375
1760001563636,1125276132,12360,16,0.0224609375,-0.99420166015625,0.03289794921875
1760001563636,1125276132,12360,17,0.02294921875,-0.99859619140625,0.02972412109375
1760001563636,1125276132,12360,18,0.026611328125,-0.99591064453125,0.03289794921875
1760001563636,1125276132,12360,19,0.022705078125,-0.99273681640625,0.04144287109375
1760001563636,1125276132,12360,20,0.01708984375,-0.99371337890625,0.03924560546875
1760001563636,1125276132,12360,21,0.02490234375,-0.99737548828125,0.03802490234375
1760001563636,1125276132,12360,22,0.019287109375,-0.99346923828125,0.04534912109375
1760001563636,1125276132,12360,23,0.027099609375,-1.00079345703125,0.04193115234375
1760001563636,1125276132,12360,24,0.02001953125,-1.00128173828125,0.02947998046875
1760001563636,1125276132,12360,25,0.023193359375,-1.00372314453125,0.01800537109375
1760001563636,1125276132,12360,26,0.032958984375,-0.99591064453125,0.00701904296875
1760001563636,1125276132,12360,27,0.03271484375,-0.99005126953125,-0.00396728515625
1760001563636,1125276132,12360,28,0.02587890625,-0.98492431640625,-0.01690673828125
1760001563636,1125276132,12360,29,0.028076171875,-0.99566650390625,0.00213623046875
1760001563636,1125276132,12360,30,0.03662109375,-0.99688720703125,-0.00445556640625
1760001563636,1125276132,12360,31,0.033447265625,-1.00128173828125,-0.00177001953125
1760001566156,1125278651,12361,0,0.02880859375,-0.99761962890625,0.00531005859375
1760001566156,1125278651,12361,1,0.028564453125,-0.99444580078125,0.00775146484375
1760001566156,1125278651,12361,2,0.029296875,-0.99566650390625,0.00262451171875
1760001566156,1125278651,12361,3,0.028076171875,-0.99810791015625,0.00653076171875
1760001566156,1125278651,12361,4,0.02734375,-0.99761962890625,0.00921630859375
1760001566156,1125278651,12361,5,0.025390625,-0.99639892578125,0.01385498046875
1760001566156,1125278651,12361,6,0.029052734375,-1.00006103515625,0.00604248046875
1760001566156,1125278651,12361,7,0.030517578125,-0.99542236328125,0.01531982421875
1760001566156,1125278651,12361,8,0.0322265625,-0.99395751953125,0.01873779296875
1760001566156,1125278651,12361,9,0.035400390625,-0.99639892578125,0.01531982421875
1760001566156,1125278651,12361,10,0.039794921875,-0.99346923828125,0.02069091796875
1760001566156,1125278651,12361,11,0.04345703125,-0.98638916015625,0.02947998046875
1760001566156,1125278651,12361,12,0.031494140625,-0.99444580078125,0.03265380859375
1760001566156,1125278651,12361,13,0.035400390625,-0.99908447265625,0.02435302734375
1760001566156,1125278651,12361,14,0.03076171875,-0.99591064453125,0.04461669921875
1760001566156,1125278651,12361,15,0.036865234375,-0.99249267578125,0.03656005859375
1760001566156,1125278651,12361,16,0.033203125,-0.99371337890625,0.03997802734375
1760001566156,1125278651,12361,17,0.029296875,-1.00079345703125,0.03900146484375
1760001566156,1125278651,12361,18,0.03515625,-0.99639892578125,0.04071044921875
1760001566156,1125278651,12361,19,0.03955078125,-0.99884033203125,0.05413818359375
1760001566156,1125278651,12361,20,0.0234375,-0.99127197265625,0.04925537109375
1760001566156,1125278651,12361,21,0.02001953125,-0.99761962890625,0.03631591796875
1760001566156,1125278651,12361,22,0.0283203125,-0.99224853515625,0.01995849609375
1760001566156,1125278651,12361,23,0.022705078125,-0.98834228515625,0.02020263671875
1760001566156,1125278651,12361,24,0.01806640625,-0.98663330078125,0.00946044921875
1760001566156,1125278651,12361,25,0.017578125,-0.99493408203125,0.02362060546875
1760001566156,1125278651,12361,26,0.029296875,-1.00250244140625,0.01263427734375
1760001566156,1125278651,12361,27,0.037353515625,-0.99932861328125,0.00286865234375
1760001566156,1125278651,12361,28,0.03515625,-0.99542236328125,0.00408935546875
1760001566156,1125278651,12361,29,0.029296875,-0.99395751953125,0.01800537109375
1760001566156,1125278651,12361,30,0.033447265625,-0.99810791015625,0.01580810546875
1760001566156,1125278651,12361,31,0.031982421875,-0.99639892578125,0.01629638671875
1760001568679,1125281170,12362,0,0.030029296875,-0.99835205078125,0.02288818359375
1760001568679,1125281170,12362,1,0.033203125,-0.99420166015625,0.01385498046875
1760001568679,1125281170,12362,2,0.028076171875,-0.99615478515625,0.02069091796875
1760001568679,1125281170,12362,3,0.037353515625,-0.99810791015625,0.01922607421875
1760001568679,1125281170,12362,4,0.03125,-0.98907470703125,0.03314208984375
1760001568679,1125281170,12362,5,0.024658203125,-0.99737548828125,0.03363037109375
1760001568679,1125281170,12362,6,0.034423828125,-0.99127197265625,0.02239990234375
1760001568679,1125281170,12362,7,0.03173828125,-0.99444580078125,0.03045654296875
1760001568679,1125281170,12362,8,0.033203125,-0.99615478515625,0.02410888671875
1760001568679,1125281170,12362,9,0.037353515625,-0.99615478515625,0.02484130859375
1760001568679,1125281170,12362,10,0.035888671875,-0.99395751953125,0.01531982421875
1760001568679,1125281170,12362,11,0.0341796875,-0.99566650390625,0.02947998046875
1760001568679,1125281170,12362,12,0.0341796875,-0.99420166015625,0.01971435546875
1760001568679,1125281170,12362,13,0.03662109375,-0.99591064453125,0.01702880859375
1760001568679,1125281170,12362,14,0.033447265625,-0.99273681640625,0.02508544921875
1760001568679,1125281170,12362,15,0.033935546875,-0.99346923828125,0.01458740234375
1760001568679,1125281170,12362,16,0.03076171875,-1.00421142578125,0.02459716796875
1760001568679,1125281170,12362,17,0.03759765625,-0.99102783203125,0.01458740234375
1760001568679,1125281170,12362,18,0.031005859375,-0.99542236328125,0.02801513671875
1760001568679,1125281170,12362,19,0.034423828125,-0.99151611328125,0.02947998046875
1760001568679,1125281170,12362,20,0.03466796875,-0.99468994140625,0.02728271484375
1760001568679,1125281170,12362,21,0.033447265625,-0.99688720703125,0.02679443359375
1760001568679,1125281170,12362,22,0.03125,-0.99102783203125,0.03363037109375
1760001568679,1125281170,12362,23,0.03564453125,-0.99493408203125,0.02532958984375
1760001568679,1125281170,12362,24,0.03515625,-0.99371337890625,0.03143310546875
1760001568679,1125281170,12362,25,0.034423828125,-0.99517822265625,0.02215576171875
1760001568679,1125281170,12362,26,0.035400390625,-0.99176025390625,0.02947998046875
1760001568679,1125281170,12362,27,0.03125,-0.99249267578125,0.02923583984375
1760001568679,1125281170,12362,28,0.03564453125,-0.99371337890625,0.02435302734375
1760001568679,1125281170,12362,29,0.03564453125,-0.99493408203125,0.03118896484375
1760001568679,1125281170,12362,30,0.03466796875,-0.99615478515625,0.03973388671875
1760001568679,1125281170,12362,31,0.02978515625,-0.99835205078125,0.03729248046875
1760001571196,1125283683,12363,0,0.033203125,-0.99542236328125,0.02532958984375
1760001571196,1125283683,12363,1,0.02783203125,-0.99371337890625,0.01922607421875
1760001571196,1125283683,12363,2,0.02978515625,-0.99444580078125,0.00994873046875
1760001571196,1125283683,12363,3,0.02734375,-0.98760986328125,0.00994873046875
1760001571196,1125283683,12363,4,0.03271484375,-0.99615478515625,0.00482177734375
1760001571196,1125283683,12363,5,0.030029296875,-0.99322509765625,0.01190185546875
1760001571196,1125283683,12363,6,0.02490234375,-0.99639892578125,0.00750732421875
1760001571196,1125283683,12363,7,0.03125,-1.01153564453125,-0.00885009765625
1760001571196,1125283683,12363,8,0.028564453125,-0.98980712890625,0.00653076171875
1760001571196,1125283683,12363,9,0.036376953125,-0.99444580078125,0.01019287109375
1760001571196,1125283683,12363,10,0.042236328125,-0.99102783203125,0.00433349609375
1760001571196,1125283683,12363,11,0.029541015625,-0.99517822265625,0.00970458984375
1760001571196,1125283683,12363,12,0.032958984375,-0.99615478515625,0.00628662109375
1760001571196,1125283683,12363,13,0.034423828125,-0.99810791015625,0.00701904296875
1760001571196,1125283683,12363,14,0.0361328125,-0.99639892578125,0.00384521484375
1760001571196,1125283683,12363,15,0.03369140625,-0.99249267578125,0.00604248046875
1760001571196,1125283683,12363,16,0.032958984375,-0.99371337890625,0.01263427734375
1760001571196,1125283683,12363,17,0.03515625,-0.99957275390625,0.00823974609375
1760001571196,1125283683,12363,18,0.036376953125,-0.99493408203125,0.00579833984375
1760001571196,1125283683,12363,19,0.03466796875,-0.99542236328125,0.00238037109375
1760001571196,1125283683,12363,20,0.041259765625,-0.99395751953125,0.00799560546875
1760001571196,1125283683,12363,21,0.037109375,-0.99786376953125,-0.00030517578125
1760001571196,1125283683,12363,22,0.038330078125,-0.99591064453125,-0.00103759765625
1760001571196,1125283683,12363,23,0.042236328125,-0.99688720703125,-0.00030517578125
1760001571196,1125283683,12363,24,0.040283203125,-0.99810791015625,-0.00054931640625
1760001571196,1125283683,12363,25,0.03955078125,-0.99688720703125,0.00848388671875
1760001571196,1125283683,12363,26,0.039306640625,-0.99273681640625,0.00677490234375
1760001571196,1125283683,12363,27,0.0458984375,-0.99102783203125,0.00360107421875
1760001571196,1125283683,12363,28,0.037109375,-0.99761962890625,0.00628662109375
1760001571196,1125283683,12363,29,0.041015625,-0.99688720703125,0.00726318359375
1760001571196,1125283683,12363,30,0.03369140625,-0.99493408203125,0.00653076171875
1760001571196,1125283683,12363,31,0.04052734375,-1.00421142578125,0.01483154296875
1760001573719,1125286202,12364,0,0.04443359375,-0.99420166015625,0.00262451171875
1760001573719,1125286202,12364,1,0.04248046875,-0.99615478515625,0.02679443359375
1760001573719,1125286202,12364,2,0.04345703125,-0.99346923828125,0.01165771484375
1760001573719,1125286202,12364,3,0.04052734375,-0.99639892578125,0.01629638671875
1760001573719,1125286202,12364,4,0.037353515625,-0.99493408203125,0.01580810546875
1760001573719,1125286202,12364,5,0.03466796875,-0.99249267578125,0.01824951171875
1760001573719,1125286202,12364,6,0.0419921875,-0.99298095703125,0.02044677734375
1760001573719,1125286202,12364,7,0.031494140625,-0.99493408203125,0.01702880859375
1760001573719,1125286202,12364,8,0.03369140625,-0.99273681640625,0.02191162109375
1760001573719,1125286202,12364,9,0.032470703125,-1.00103759765625,0.02117919921875
1760001573719,1125286202,12364,10,0.034912109375,-0.99688720703125,0.01898193359375
1760001573719,1125286202,12364,11,0.04248046875,-0.99176025390625,0.02362060546875
1760001573719,1125286202,12364,12,0.044677734375,-0.99176025390625,0.02191162109375
1760001573719,1125286202,12364,13,0.04541015625,-0.99639892578125,0.02313232421875
1760001573719,1125286202,12364,14,0.040771484375,-0.99420166015625,0.01873779296875
1760001573719,1125286202,12364,15,0.040283203125,-0.99737548828125,0.01654052734375
1760001573719,1125286202,12364,16,0.02880859375,-0.98150634765625,0.02288818359375
1760001573719,1125286202,12364,17,0.04345703125,-0.98663330078125,0.04290771484375
1760001573719,1125286202,12364,18,0.042724609375,-0.99517822265625,0.03216552734375
1760001573719,1125286202,12364,19,0.034912109375,-1.00250244140625,0.03363037109375
1760001573719,1125286202,12364,20,0.043212890625,-0.99566650390625,0.03045654296875
1760001573719,1125286202,12364,21,0.03955078125,-0.99737548828125,0.04119873046875
1760001573719,1125286202,12364,22,0.034912109375,-0.99835205078125,0.04241943359375
1760001573719,1125286202,12364,23,0.03466796875,-0.99200439453125,0.03607177734375
1760001573719,1125286202,12364,24,0.033203125,-0.99615478515625,0.03485107421875
1760001573719,1125286202,12364,25,0.03076171875,-0.99615478515625,0.02532958984375
1760001573719,1125286202,12364,26,0.030517578125,-0.99127197265625,0.01434326171875
1760001573719,1125286202,12364,27,0.036865234375,-0.99444580078125,0.00384521484375
1760001573719,1125286202,12364,28,0.031005859375,-0.98809814453125,-6.103515625e-05
1760001573719,1125286202,12364,29,0.028076171875,-0.99468994140625,0.00897216796875
1760001573719,1125286202,12364,30,0.03173828125,-0.99713134765625,0.01068115234375
1760001573719,1125286202,12364,31,0.036865234375,-0.99981689453125,0.00946044921875
1760001576242,1125288721,12365,0,0.03564453125,-0.99981689453125,0.00238037109375
1760001576242,1125288721,12365,1,0.036865234375,-0.99664306640625,0.01605224609375
1760001576242,1125288721,12365,2,0.02880859375,-0.98907470703125,0.01483154296875
1760001576242,1125288721,12365,3,0.021728515625,-0.99810791015625,0.00701904296875
1760001576242,1125288721,12365,4,0.023193359375,-0.99908447265625,0.01190185546875
1760001576242,1125288721,12365,5,0.02392578125,-0.99737548828125,0.00775146484375
1760001576242,1125288721,12365,6,0.032958984375,-0.99468994140625,0.00799560546875
1760001576242,1125288721,12365,7,0.036865234375,-0.99468994140625,0.01019287109375
1760001576242,1125288721,12365,8,0.02978515625,-0.99688720703125,0.01361083984375
1760001576242,1125288721,12365,9,0.031494140625,-0.99542236328125,0.01654052734375
1760001576242,1125288721,12365,10,0.03759765625,-0.99566650390625,0.01531982421875
1760001576242,1125288721,12365,11,0.0302734375,-0.99615478515625,0.01580810546875
1760001576242,1125288721,12365,12,0.034423828125,-0.99493408203125,0.01654052734375
1760001576242,1125288721,12365,13,0.0380859375,-0.99151611328125,0.01922607421875
1760001576242,1125288721,12365,14,0.026611328125,-0.99639892578125,0.02947998046875
1760001576242,1125288721,12365,15,0.038330078125,-0.99493408203125,0.01287841796875
1760001576242,1125288721,12365,16,0.033203125,-0.99884033203125,0.03143310546875
1760001576242,1125288721,12365,17,0.022705078125,-0.99908447265625,0.02703857421875
1760001576242,1125288721,12365,18,0.02734375,-0.99884033203125,0.02581787109375
1760001576242,1125288721,12365,19,0.031005859375,-0.99151611328125,0.02972412109375
1760001576242,1125288721,12365,20,0.0283203125,-0.99127197265625,0.04364013671875
1760001576242,1125288721,12365,21,0.029296875,-0.99591064453125,0.04315185546875
1760001576242,1125288721,12365,22,0.02490234375,-0.99517822265625,0.05242919921875
1760001576242,1125288721,12365,23,0.030029296875,-0.99298095703125,0.06463623046875
1760001576242,1125288721,12365,24,0.032470703125,-0.99639892578125,0.05755615234375
1760001576242,1125288721,12365,25,0.02392578125,-0.99395751953125,0.06610107421875
1760001576242,1125288721,12365,26,0.0205078125,-0.99176025390625,0.03900146484375
1760001576242,1125288721,12365,27,0.02294921875,-0.98956298828125,0.01824951171875
1760001576242,1125288721,12365,28,0.03466796875,-0.99493408203125,0.00311279296875
1760001576242,1125288721,12365,29,0.029541015625,-0.98516845703125,0.01312255859375
1760001576242,1125288721,12365,30,0.037841796875,-0.99200439453125,0.02166748046875
1760001576242,1125288721,12365,31,0.056640625,-1.00860595703125,0.00115966796875
1760001578746,1125291240,12366,0,0.046875,-1.00006103515625,0.00213623046875
1760001578746,1125291240,12366,1,0.046875,-0.99615478515625,0.00238037109375
1760001578746,1125291240,12366,2,0.050537109375,-0.98907470703125,0.00653076171875
1760001578746,1125291240,12366,3,0.042724609375,-0.99713134765625,0.01629638671875
1760001578746,1125291240,12366,4,0.052734375,-0.99688720703125,0.01068115234375
1760001578746,1125291240,12366,5,0.04736328125,-0.98834228515625,0.02020263671875
1760001578746,1125291240,12366,6,0.036376953125,-0.99053955078125,0.02923583984375
1760001578746,1125291240,12366,7,0.041259765625,-0.99737548828125,0.03289794921875
1760001578746,1125291240,12366,8,0.044189453125,-0.99737548828125,0.02435302734375
1760001578746,1125291240,12366,9,0.04150390625,-0.98687744140625,0.03289794921875
1760001578746,1125291240,12366,10,0.035400390625,-0.99688720703125,0.03436279296875
1760001578746,1125291240,12366,11,0.041259765625,-0.99420166015625,0.03167724609375
1760001578746,1125291240,12366,12,0.033935546875,-0.99151611328125,0.03997802734375
1760001578746,1125291240,12366,13,0.04150390625,-0.99859619140625,0.02874755859375
1760001578746,1125291240,12366,14,0.034423828125,-0.99444580078125,0.03338623046875
1760001578746,1125291240,12366,15,0.035400390625,-0.99591064453125,0.03411865234375
1760001578746,1125291240,12366,16,0.038330078125,-0.99224853515625,0.02801513671875
1760001578746,1125291240,12366,17,0.0341796875,-0.99200439453125,0.03460693359375
1760001578746,1125291240,12366,18,0.0390625,-0.99859619140625,0.02923583984375
1760001578746,1125291240,12366,19,0.0478515625,-1.00006103515625,0.02606201171875
1760001578746,1125291240,12366,20,0.03857421875,-0.98736572265625,0.03045654296875
1760001578746,1125291240,12366,21,0.038818359375,-0.99835205078125,0.02655029296875
1760001578746,1125291240,12366,22,0.041259765625,-0.98565673828125,0.03045654296875
1760001578746,1125291240,12366,23,0.039794921875,-0.99322509765625,0.03948974609375
1760001578746,1125291240,12366,24,0.033935546875,-0.99713134765625,0.02874755859375
1760001578746,1125291240,12366,25,0.0322265625,-0.99517822265625,0.03607177734375
1760001578746,1125291240,12366,26,0.03955078125,-0.98809814453125,0.03924560546875
1760001578746,1125291240,12366,27,0.037109375,-0.99005126953125,0.03802490234375
1760001578746,1125291240,12366,28,0.0361328125,-0.99566650390625,0.03948974609375
1760001578746,1125291240,12366,29,0.037353515625,-0.99444580078125,0.03289794921875
1760001578746,1125291240,12366,30,0.0361328125,-0.99615478515625,0.04046630859375
1760001578746,1125291240,12366,31,0.037841796875,-0.99322509765625,0.04168701171875
1760001581275,1125293759,12367,0,0.036865234375,-0.99468994140625,0.03778076171875
1760001581275,1125293759,12367,1,0.033203125,-0.99493408203125,0.03973388671875
1760001581275,1125293759,12367,2,0.04248046875,-1.00299072265625,0.03900146484375
1760001581275,1125293759,12367,3,0.0341796875,-0.99298095703125,0.04779052734375
1760001581275,1125293759,12367,4,0.02392578125,-0.99078369140625,0.04876708984375
1760001581275,1125293759,12367,5,0.018310546875,-0.98858642578125,0.04119873046875
1760001581275,1125293759,12367,6,0.0205078125,-0.99127197265625,0.03118896484375
1760001581275,1125293759,12367,7,0.02587890625,-0.99102783203125,0.01214599609375
1760001581275,1125293759,12367,8,0.03125,-0.99200439453125,0.00848388671875
1760001581275,1125293759,12367,9,0.036376953125,-0.99151611328125,0.00482177734375
1760001581275,1125293759,12367,10,0.033935546875,-0.99517822265625,0.01434326171875
1760001581275,1125293759,12367,11,0.05029296875,-0.99566650390625,0.00286865234375
1760001581275,1125293759,12367,12,0.04443359375,-0.99566650390625,0.01141357421875
1760001581275,1125293759,12367,13,0.04345703125,-0.99420166015625,0.01995849609375
1760001581275,1125293759,12367,14,0.035400390625,-0.99468994140625,0.02117919921875
1760001581275,1125293759,12367,15,0.037841796875,-0.99639892578125,0.02362060546875
1760001581275,1125293759,12367,16,0.0361328125,-0.99493408203125,0.02825927734375
1760001581275,1125293759,12367,17,0.036376953125,-0.99566650390625,0.02313232421875
1760001581275,1125293759,12367,18,0.0341796875,-0.99468994140625,0.02508544921875
1760001581275,1125293759,12367,19,0.0390625,-0.99176025390625,0.02923583984375
1760001581275,1125293759,12367,20,0.040771484375,-0.99542236328125,0.02337646484375
1760001581275,1125293759,12367,21,0.038818359375,-0.99615478515625,0.02117919921875
1760001581275,1125293759,12367,22,0.03564453125,-0.99835205078125,0.02142333984375
1760001581275,1125293759,12367,23,0.036376953125,-0.99444580078125,0.02093505859375
1760001581275,1125293759,12367,24,0.0400390625,-0.99639892578125,0.02215576171875
1760001581275,1125293759,12367,25,0.036376953125,-0.99273681640625,0.01678466796875
1760001581275,1125293759,12367,26,0.03173828125,-0.99517822265625,0.02777099609375
1760001581275,1125293759,12367,27,0.028564453125,-0.99835205078125,0.01751708984375
1760001581275,1125293759,12367,28,0.023681640625,-0.98907470703125,0.03851318359375
1760001581275,1125293759,12367,29,0.0439453125,-0.98468017578125,0.03582763671875
1760001581275,1125293759,12367,30,0.042236328125,-0.99493408203125,0.05194091796875
1760001581275,1125293759,12367,31,0.01904296875,-0.99688720703125,0.04290771484375
1760001583798,1125296278,12368,0,0.026123046875,-0.99542236328125,0.04193115234375
1760001583798,1125296278,12368,1,0.02294921875,-0.99810791015625,0.04144287109375
1760001583798,1125296278,12368,2,0.013671875,-0.99566650390625,0.04656982421875
1760001583798,1125296278,12368,3,0.0166015625,-0.99468994140625,0.05242919921875
1760001583798,1125296278,12368,4,0.0146484375,-0.99346923828125,0.05096435546875
1760001583798,1125296278,12368,5,0.0244140625,-0.99273681640625,0.05194091796875
1760001583798,1125296278,12368,6,0.017578125,-0.99249267578125,0.06072998046875
1760001583798,1125296278,12368,7,0.00341796875,-0.99078369140625,0.06512451171875
1760001583798,1125296278,12368,8,0.0234375,-0.99053955078125,0.05194091796875
1760001583798,1125296278,12368,9,0.010986328125,-0.99468994140625,0.05120849609375
1760001583798,1125296278,12368,10,0.01318359375,-0.99176025390625,0.05853271484375
1760001583798,1125296278,12368,11,0.00732421875,-0.99810791015625,0.05560302734375
1760001583798,1125296278,12368,12,0.02197265625,-0.99688720703125,0.04705810546875
1760001583798,1125296278,12368,13,0.0107421875,-0.99493408203125,0.05389404296875
1760001583798,1125296278,12368,14,0.01318359375,-0.99005126953125,0.05560302734375
1760001583798,1125296278,12368,15,0.010009765625,-0.99713134765625,0.05804443359375
1760001583798,1125296278,12368,16,0.014892578125,-0.99078369140625,0.06097412109375
1760001583798,1125296278,12368,17,0.015380859375,-0.99249267578125,0.06610107421875
1760001583798,1125296278,12368,18,0.0146484375,-0.99713134765625,0.05902099609375
1760001583798,1125296278,12368,19,0.009765625,-0.99273681640625,0.07147216796875
1760001583798,1125296278,12368,20,0.013916015625,-0.99566650390625,0.05902099609375
1760001583798,1125296278,12368,21,0.00439453125,-0.99884033203125,0.07440185546875
1760001583798,1125296278,12368,22,0.008544921875,-0.99566650390625,0.06683349609375
1760001583798,1125296278,12368,23,0.00048828125,-0.98712158203125,0.09197998046875
1760001583798,1125296278,12368,24,0.010986328125,-1.00494384765625,0.08270263671875
1760001583798,1125296278,12368,25,0.010498046875,-0.98272705078125,0.07806396484375
1760001583798,1125296278,12368,26,0.026123046875,-0.99737548828125,0.08148193359375
1760001583798,1125296278,12368,27,0.023681640625,-0.98785400390625,0.06634521484375
1760001583798,1125296278,12368,28,-0.00048828125,-0.99493408203125,0.02850341796875
1760001583798,1125296278,12368,29,0.0185546875,-0.99273681640625,0.04534912109375
1760001583798,1125296278,12368,30,0.00732421875,-0.99542236328125,0.01116943359375
1760001583798,1125296278,12368,31,0.014892578125,-0.98541259765625,-0.00152587890625
1760001586318,1125298797,12369,0,0.005615234375,-0.98785400390625,0.00872802734375
1760001586318,1125298797,12369,1,0.0126953125,-0.99908447265625,0.02069091796875
1760001586318,1125298797,12369,2,0.0224609375,-1.00103759765625,0.00360107421875
1760001586318,1125298797,12369,3,0.030517578125,-0.99761962890625,0.00262451171875
1760001586318,1125298797,12369,4,0.021728515625,-0.99639892578125,0.01043701171875
1760001586318,1125298797,12369,5,0.02294921875,-0.99639892578125,0.00238037109375
1760001586318,1125298797,12369,6,0.02001953125,-0.99517822265625,0.00726318359375
1760001586318,1125298797,12369,7,0.029052734375,-0.99420166015625,0.00799560546875
1760001586318,1125298797,12369,8,0.03076171875,-0.99224853515625,0.01312255859375
1760001586318,1125298797,12369,9,0.020263671875,-0.99664306640625,0.00848388671875
1760001586318,1125298797,12369,10,0.027099609375,-0.99835205078125,0.00799560546875
1760001586318,1125298797,12369,11,0.025146484375,-0.99664306640625,0.01629638671875
1760001586318,1125298797,12369,12,0.017578125,-0.99737548828125,0.01361083984375
1760001586318,1125298797,12369,13,0.0224609375,-0.99957275390625,0.00848388671875
1760001586318,1125298797,12369,14,0.01806640625,-0.99859619140625,0.00994873046875
1760001586318,1125298797,12369,15,0.0224609375,-0.99298095703125,0.01214599609375
1760001586318,1125298797,12369,16,0.026123046875,-0.99591064453125,0.01849365234375
1760001586318,1125298797,12369,17,0.023681640625,-0.99591064453125,0.01995849609375
1760001586318,1125298797,12369,18,0.025146484375,-0.99713134765625,0.02386474609375
1760001586318,1125298797,12369,19,0.028076171875,-0.99566650390625,0.01361083984375
1760001586318,1125298797,12369,20,0.025634765625,-0.99835205078125,0.01873779296875
1760001586318,1125298797,12369,21,0.02734375,-0.99713134765625,0.02728271484375
1760001586318,1125298797,12369,22,0.024658203125,-0.99224853515625,0.02630615234375
1760001586318,1125298797,12369,23,0.01611328125,-1.00030517578125,0.02557373046875
1760001586318,1125298797,12369,24,0.025634765625,-0.99444580078125,0.02655029296875
1760001586318,1125298797,12369,25,0.025146484375,-0.99908447265625,0.03509521484375
1760001586318,1125298797,12369,26,0.02392578125,-0.99639892578125,0.02337646484375
1760001586318,1125298797,12369,27,0.04345703125,-0.99468994140625,0.03533935546875
1760001586318,1125298797,12369,28,0.045166015625,-0.99810791015625,0.02020263671875
1760001586318,1125298797,12369,29,0.029296875,-0.99737548828125,0.03387451171875
1760001586318,1125298797,12369,30,0.02978515625,-1.00006103515625,0.02532958984375
1760001586318,1125298797,12369,31,0.0263671875,-0.99322509765625,0.02972412109375
1760001588823,1125301316,12370,0,0.042236328125,-0.99200439453125,0.03167724609375
1760001588823,1125301316,12370,1,0.04345703125,-0.98834228515625,0.04998779296875
1760001588823,1125301316,12370,2,0.046630859375,-0.98980712890625,0.05267333984375
