receivedPhoneTimestamp,respeckTimestamp,packetSeqNum,sampleSeqNum,accelX,accelY,accelZ
1759747738163,935037642,29474,0,0.174072265625,-0.10552978515625,-0.99176025390625
1759747738163,935037642,29474,1,0.177490234375,-0.10748291015625,-0.99517822265625
1759747738163,935037642,29474,2,0.175537109375,-0.10919189453125,-0.99664306640625
1759747738163,935037642,29474,3,0.177734375,-0.10748291015625,-0.99786376953125
1759747738163,935037642,29474,4,0.177978515625,-0.10772705078125,-0.99591064453125
1759747738163,935037642,29474,5,0.17578125,-0.10552978515625,-0.99908447265625
1759747738163,935037642,29474,6,0.176513671875,-0.10650634765625,-0.99957275390625
1759747738163,935037642,29474,7,0.181396484375,-0.10333251953125,-0.99493408203125
1759747738163,935037642,29474,8,0.180908203125,-0.10260009765625,-0.99371337890625
1759747738163,935037642,29474,9,0.17724609375,-0.10626220703125,-0.99688720703125
1759747738163,935037642,29474,10,0.178466796875,-0.10675048828125,-1.00299072265625
1759747738163,935037642,29474,11,0.18017578125,-0.10528564453125,-1.00103759765625
1759747738163,935037642,29474,12,0.180419921875,-0.10528564453125,-0.99761962890625
1759747738163,935037642,29474,13,0.17578125,-0.10455322265625,-0.99493408203125
1759747738163,935037642,29474,14,0.17578125,-0.10430908203125,-1.00177001953125
1759747738163,935037642,29474,15,0.177978515625,-0.10479736328125,-0.99835205078125
1759747738163,935037642,29474,16,0.176025390625,-0.10479736328125,-0.99371337890625
1759747738163,935037642,29474,17,0.174072265625,-0.10479736328125,-0.99835205078125
1759747738163,935037642,29474,18,0.174560546875,-0.11016845703125,-1.00299072265625
1759747738163,935037642,29474,19,0.1748046875,-0.10430908203125,-1.00177001953125
1759747738163,935037642,29474,20,0.175048828125,-0.10333251953125,-0.99371337890625
1759747738163,935037642,29474,21,0.17626953125,-0.10333251953125,-0.99859619140625
1759747738163,935037642,29474,22,0.1796875,-0.10699462890625,-1.00079345703125
1759747738163,935037642,29474,23,0.1767578125,-0.10699462890625,-0.99786376953125
1759747738163,935037642,29474,24,0.17529296875,-0.10382080078125,-0.99371337890625
1759747738163,935037642,29474,25,0.17578125,-0.10479736328125,-0.99786376953125
1759747738163,935037642,29474,26,0.17919921875,-0.10723876953125,-0.99835205078125
1759747738163,935037642,29474,27,0.177490234375,-0.10601806640625,-0.99786376953125
1759747738163,935037642,29474,28,0.176513671875,-0.10577392578125,-0.99664306640625
1759747738163,935037642,29474,29,0.1787109375,-0.10797119140625,-0.99859619140625
1759747738163,935037642,29474,30,0.177978515625,-0.10845947265625,-0.99884033203125
1759747738163,935037642,29474,31,0.177001953125,-0.11114501953125,-0.99761962890625
1759747740503,935040185,29475,0,0.173828125,-0.10968017578125,-0.99517822265625
1759747740503,935040185,29475,1,0.1708984375,-0.10919189453125,-0.99444580078125
1759747740503,935040185,29475,2,0.17041015625,-0.10992431640625,-0.99615478515625
1759747740503,935040185,29475,3,0.17431640625,-0.11065673828125,-0.99859619140625
1759747740503,935040185,29475,4,0.17822265625,-0.10943603515625,-0.99908447265625
1759747740503,935040185,29475,5,0.1767578125,-0.10723876953125,-0.99908447265625
1759747740503,935040185,29475,6,0.17822265625,-0.10626220703125,-0.99591064453125
1759747740503,935040185,29475,7,0.17431640625,-0.11407470703125,-0.99639892578125
1759747740503,935040185,29475,8,0.175048828125,-0.11163330078125,-0.99542236328125
1759747740503,935040185,29475,9,0.1806640625,-0.10992431640625,-1.00079345703125
1759747740503,935040185,29475,10,0.17529296875,-0.11114501953125,-0.99468994140625
1759747740503,935040185,29475,11,0.17578125,-0.11041259765625,-0.99713134765625
1759747740503,935040185,29475,12,0.174072265625,-0.10919189453125,-1.00128173828125
1759747740503,935040185,29475,13,0.176025390625,-0.10992431640625,-0.99859619140625
1759747740503,935040185,29475,14,0.17578125,-0.10723876953125,-0.99468994140625
1759747740503,935040185,29475,15,0.177001953125,-0.10992431640625,-0.99713134765625
1759747740503,935040185,29475,16,0.177490234375,-0.11016845703125,-0.99835205078125
1759747740503,935040185,29475,17,0.17578125,-0.11187744140625,-0.99835205078125
1759747740503,935040185,29475,18,0.1787109375,-0.10650634765625,-0.99786376953125
1759747740503,935040185,29475,19,0.177490234375,-0.10943603515625,-0.99761962890625
1759747740503,935040185,29475,20,0.178466796875,-0.11090087890625,-0.99908447265625
1759747740503,935040185,29475,21,0.178466796875,-0.10894775390625,-0.99615478515625
1759747740503,935040185,29475,22,0.176025390625,-0.11090087890625,-0.99639892578125
1759747740503,935040185,29475,23,0.177490234375,-0.11016845703125,-0.99713134765625
1759747740503,935040185,29475,24,0.1767578125,-0.11114501953125,-0.99542236328125
1759747740503,935040185,29475,25,0.179931640625,-0.10821533203125,-0.99737548828125
1759747740503,935040185,29475,26,0.17919921875,-0.11138916015625,-0.99566650390625
1759747740503,935040185,29475,27,0.182373046875,-0.10870361328125,-0.99786376953125
1759747740503,935040185,29475,28,0.18115234375,-0.10772705078125,-0.99639892578125
1759747740503,935040185,29475,29,0.1826171875,-0.10797119140625,-0.99591064453125
1759747740503,935040185,29475,30,0.18115234375,-0.10699462890625,-0.99371337890625
1759747740503,935040185,29475,31,0.18115234375,-0.10675048828125,-0.99591064453125
1759747743038,935042728,29476,0,0.18212890625,-0.11163330078125,-0.99713134765625
1759747743038,935042728,29476,1,0.18115234375,-0.10968017578125,-0.99542236328125
1759747743038,935042728,29476,2,0.178466796875,-0.10845947265625,-0.99468994140625
1759747743038,935042728,29476,3,0.18115234375,-0.10870361328125,-0.99517822265625
1759747743038,935042728,29476,4,0.18115234375,-0.10675048828125,-0.99835205078125
1759747743038,935042728,29476,5,0.181884765625,-0.10870361328125,-0.99713134765625
1759747743038,935042728,29476,6,0.181396484375,-0.10675048828125,-0.99737548828125
1759747743038,935042728,29476,7,0.1806640625,-0.10430908203125,-0.99664306640625
1759747743038,935042728,29476,8,0.181640625,-0.10748291015625,-0.99761962890625
1759747743038,935042728,29476,9,0.18212890625,-0.10528564453125,-0.99566650390625
1759747743038,935042728,29476,10,0.18115234375,-0.10650634765625,-0.99468994140625
1759747743038,935042728,29476,11,0.18310546875,-0.10675048828125,-0.99493408203125
1759747743038,935042728,29476,12,0.179443359375,-0.10845947265625,-0.99688720703125
1759747743038,935042728,29476,13,0.18115234375,-0.10455322265625,-0.99835205078125
1759747743038,935042728,29476,14,0.181640625,-0.10601806640625,-0.99737548828125
1759747743038,935042728,29476,15,0.179931640625,-0.10504150390625,-0.99468994140625
1759747743038,935042728,29476,16,0.18115234375,-0.10626220703125,-0.99932861328125
1759747743038,935042728,29476,17,0.17919921875,-0.10894775390625,-0.99884033203125
1759747743038,935042728,29476,18,0.17919921875,-0.10821533203125,-0.99542236328125
1759747743038,935042728,29476,19,0.180908203125,-0.10845947265625,-0.99859619140625
1759747743038,935042728,29476,20,0.180908203125,-0.11187744140625,-0.99810791015625
1759747743038,935042728,29476,21,0.178466796875,-0.11016845703125,-0.99395751953125
1759747743038,935042728,29476,22,0.180419921875,-0.10723876953125,-0.99566650390625
1759747743038,935042728,29476,23,0.178466796875,-0.10699462890625,-0.99591064453125
1759747743038,935042728,29476,24,0.178466796875,-0.10943603515625,-0.99444580078125
1759747743038,935042728,29476,25,0.17822265625,-0.10748291015625,-0.99932861328125
1759747743038,935042728,29476,26,0.181396484375,-0.10748291015625,-0.99932861328125
1759747743038,935042728,29476,27,0.178466796875,-0.10748291015625,-0.99542236328125
1759747743038,935042728,29476,28,0.180908203125,-0.10845947265625,-0.99615478515625
1759747743038,935042728,29476,29,0.18115234375,-0.10845947265625,-0.99859619140625
1759747743038,935042728,29476,30,0.177490234375,-0.10992431640625,-0.99615478515625
1759747743038,935042728,29476,31,0.182373046875,-0.10772705078125,-0.99566650390625
1759747745573,935045271,29477,0,0.18017578125,-0.10577392578125,-0.99761962890625
1759747745573,935045271,29477,1,0.180908203125,-0.10723876953125,-0.99566650390625
1759747745573,935045271,29477,2,0.18408203125,-0.11016845703125,-0.99566650390625
1759747745573,935045271,29477,3,0.182373046875,-0.10821533203125,-0.99761962890625
1759747745573,935045271,29477,4,0.180419921875,-0.10650634765625,-0.99664306640625
1759747745573,935045271,29477,5,0.181884765625,-0.10577392578125,-0.99468994140625
1759747745573,935045271,29477,6,0.18115234375,-0.10723876953125,-0.99542236328125
1759747745573,935045271,29477,7,0.182373046875,-0.10772705078125,-0.99761962890625
1759747745573,935045271,29477,8,0.184814453125,-0.10894775390625,-0.99786376953125
1759747745573,935045271,29477,9,0.181640625,-0.10797119140625,-0.99053955078125
1759747745573,935045271,29477,10,0.1826171875,-0.11163330078125,-0.99566650390625
1759747745573,935045271,29477,11,0.181396484375,-0.11138916015625,-0.99737548828125
1759747745573,935045271,29477,12,0.18115234375,-0.11090087890625,-0.99639892578125
1759747745573,935045271,29477,13,0.18017578125,-0.10968017578125,-0.99493408203125
1759747745573,935045271,29477,14,0.185302734375,-0.11212158203125,-0.99664306640625
1759747745573,935045271,29477,15,0.181884765625,-0.11090087890625,-0.99737548828125
1759747745573,935045271,29477,16,0.1826171875,-0.10968017578125,-0.99566650390625
1759747745573,935045271,29477,17,0.181396484375,-0.10797119140625,-0.99566650390625
1759747745573,935045271,29477,18,0.181396484375,-0.10943603515625,-0.99859619140625
1759747745573,935045271,29477,19,0.18212890625,-0.10870361328125,-0.99395751953125
1759747745573,935045271,29477,20,0.181396484375,-0.10968017578125,-0.99468994140625
1759747745573,935045271,29477,21,0.18115234375,-0.11163330078125,-0.99761962890625
1759747745573,935045271,29477,22,0.18212890625,-0.10992431640625,-0.99957275390625
1759747745573,935045271,29477,23,0.180908203125,-0.10772705078125,-0.99932861328125
1759747745573,935045271,29477,24,0.178466796875,-0.11016845703125,-0.99444580078125
1759747745573,935045271,29477,25,0.180908203125,-0.10968017578125,-0.99615478515625
1759747745573,935045271,29477,26,0.18017578125,-0.11163330078125,-0.99884033203125
1759747745573,935045271,29477,27,0.18017578125,-0.10943603515625,-0.99761962890625
1759747745573,935045271,29477,28,0.181396484375,-0.10845947265625,-0.99346923828125
1759747745573,935045271,29477,29,0.181884765625,-0.10748291015625,-0.99566650390625
1759747745573,935045271,29477,30,0.181640625,-0.11041259765625,-0.99542236328125
1759747745573,935045271,29477,31,0.184814453125,-0.11090087890625,-0.99786376953125
1759747748108,935047814,29478,0,0.183349609375,-0.11212158203125,-1.00201416015625
1759747748108,935047814,29478,1,0.179931640625,-0.11383056640625,-0.98907470703125
1759747748108,935047814,29478,2,0.177978515625,-0.11383056640625,-0.99053955078125
1759747748108,935047814,29478,3,0.181396484375,-0.11016845703125,-1.00396728515625
1759747748108,935047814,29478,4,0.177490234375,-0.11309814453125,-0.99688720703125
1759747748108,935047814,29478,5,0.17626953125,-0.11309814453125,-0.99420166015625
1759747748108,935047814,29478,6,0.181884765625,-0.11090087890625,-0.99932861328125
1759747748108,935047814,29478,7,0.1787109375,-0.11041259765625,-0.99737548828125
1759747748108,935047814,29478,8,0.17822265625,-0.11431884765625,-0.99542236328125
1759747748108,935047814,29478,9,0.177001953125,-0.10992431640625,-0.99688720703125
1759747748108,935047814,29478,10,0.1806640625,-0.10797119140625,-1.00030517578125
1759747748108,935047814,29478,11,0.1796875,-0.11016845703125,-0.99615478515625
1759747748108,935047814,29478,12,0.178466796875,-0.10821533203125,-0.99761962890625
1759747748108,935047814,29478,13,0.1796875,-0.10968017578125,-0.99737548828125
1759747748108,935047814,29478,14,0.1796875,-0.10992431640625,-0.99957275390625
1759747748108,935047814,29478,15,0.179443359375,-0.10919189453125,-0.99737548828125
1759747748108,935047814,29478,16,0.179931640625,-0.10870361328125,-0.99835205078125
1759747748108,935047814,29478,17,0.17822265625,-0.11041259765625,-0.99688720703125
1759747748108,935047814,29478,18,0.177490234375,-0.11138916015625,-0.99761962890625
1759747748108,935047814,29478,19,0.17822265625,-0.11163330078125,-0.99761962890625
1759747748108,935047814,29478,20,0.179931640625,-0.11138916015625,-0.99420166015625
1759747748108,935047814,29478,21,0.178955078125,-0.10919189453125,-0.99688720703125
1759747748108,935047814,29478,22,0.17822265625,-0.10845947265625,-0.99493408203125
1759747748108,935047814,29478,23,0.17919921875,-0.11041259765625,-0.99688720703125
1759747748108,935047814,29478,24,0.17724609375,-0.10772705078125,-0.99688720703125
1759747748108,935047814,29478,25,0.1767578125,-0.10797119140625,-0.99884033203125
1759747748108,935047814,29478,26,0.17578125,-0.10992431640625,-0.99517822265625
1759747748108,935047814,29478,27,0.1748046875,-0.10845947265625,-0.99688720703125
1759747748108,935047814,29478,28,0.176513671875,-0.10797119140625,-0.99957275390625
1759747748108,935047814,29478,29,0.177490234375,-0.10821533203125,-0.99810791015625
1759747748108,935047814,29478,30,0.17578125,-0.10845947265625,-0.99688720703125
1759747748108,935047814,29478,31,0.176513671875,-0.11187744140625,-0.99664306640625
1759747750644,935050357,29479,0,0.176513671875,-0.11016845703125,-0.99591064453125
1759747750644,935050357,29479,1,0.182861328125,-0.10943603515625,-1.00152587890625
1759747750644,935050357,29479,2,0.179931640625,-0.11065673828125,-0.99713134765625
1759747750644,935050357,29479,3,0.176025390625,-0.11358642578125,-0.99273681640625
1759747750644,935050357,29479,4,0.18017578125,-0.11090087890625,-1.00274658203125
1759747750644,935050357,29479,5,0.179931640625,-0.11358642578125,-0.99908447265625
1759747750644,935050357,29479,6,0.175537109375,-0.11138916015625,-0.99102783203125
1759747750644,935050357,29479,7,0.175048828125,-0.11041259765625,-0.99468994140625
1759747750644,935050357,29479,8,0.1787109375,-0.11163330078125,-1.00689697265625
1759747750644,935050357,29479,9,0.177001953125,-0.10845947265625,-0.99420166015625
1759747750644,935050357,29479,10,0.176025390625,-0.10919189453125,-0.99468994140625
1759747750644,935050357,29479,11,0.1767578125,-0.10894775390625,-0.99542236328125
1759747750644,935050357,29479,12,0.17724609375,-0.11090087890625,-1.00103759765625
1759747750644,935050357,29479,13,0.17724609375,-0.11090087890625,-0.99810791015625
1759747750644,935050357,29479,14,0.177978515625,-0.11016845703125,-0.99688720703125
1759747750644,935050357,29479,15,0.177490234375,-0.10797119140625,-0.99884033203125
1759747750644,935050357,29479,16,0.17431640625,-0.10772705078125,-0.99786376953125
1759747750644,935050357,29479,17,0.1787109375,-0.10968017578125,-0.99908447265625
1759747750644,935050357,29479,18,0.17919921875,-0.10748291015625,-0.99713134765625
1759747750644,935050357,29479,19,0.175537109375,-0.10992431640625,-0.99420166015625
1759747750644,935050357,29479,20,0.1728515625,-0.10821533203125,-0.99688720703125
1759747750644,935050357,29479,21,0.177490234375,-0.11090087890625,-1.00225830078125
1759747750644,935050357,29479,22,0.174072265625,-0.11041259765625,-0.99542236328125
1759747750644,935050357,29479,23,0.17529296875,-0.11016845703125,-0.99664306640625
1759747750644,935050357,29479,24,0.176513671875,-0.11138916015625,-0.99395751953125
1759747750644,935050357,29479,25,0.1748046875,-0.11065673828125,-0.99737548828125
1759747750644,935050357,29479,26,0.173583984375,-0.10943603515625,-0.99639892578125
1759747750644,935050357,29479,27,0.17529296875,-0.10870361328125,-0.99664306640625
1759747750644,935050357,29479,28,0.176025390625,-0.11016845703125,-0.99908447265625
1759747750644,935050357,29479,29,0.1748046875,-0.11212158203125,-0.99298095703125
1759747750644,935050357,29479,30,0.1787109375,-0.11309814453125,-0.99737548828125
1759747750644,935050357,29479,31,0.177001953125,-0.10992431640625,-0.99688720703125
1759747753178,935052900,29480,0,0.177734375,-0.11041259765625,-0.99713134765625
1759747753178,935052900,29480,1,0.174560546875,-0.10821533203125,-0.99591064453125
1759747753178,935052900,29480,2,0.17529296875,-0.11114501953125,-0.99859619140625
1759747753178,935052900,29480,3,0.177978515625,-0.11065673828125,-0.99737548828125
1759747753178,935052900,29480,4,0.176513671875,-0.11065673828125,-0.99713134765625
1759747753178,935052900,29480,5,0.175537109375,-0.10968017578125,-0.99981689453125
1759747753178,935052900,29480,6,0.175537109375,-0.11285400390625,-1.00006103515625
1759747753178,935052900,29480,7,0.176025390625,-0.11236572265625,-0.99835205078125
1759747753178,935052900,29480,8,0.17724609375,-0.11065673828125,-0.99493408203125
1759747753178,935052900,29480,9,0.17822265625,-0.11114501953125,-0.99566650390625
1759747753178,935052900,29480,10,0.175537109375,-0.11163330078125,-0.99517822265625
1759747753178,935052900,29480,11,0.178466796875,-0.11334228515625,-0.99981689453125
1759747753178,935052900,29480,12,0.1787109375,-0.11285400390625,-1.00006103515625
1759747753178,935052900,29480,13,0.17578125,-0.11212158203125,-0.99420166015625
1759747753178,935052900,29480,14,0.175048828125,-0.11285400390625,-0.99859619140625
1759747753178,935052900,29480,15,0.174072265625,-0.11285400390625,-0.99517822265625
1759747753178,935052900,29480,16,0.176025390625,-0.11285400390625,-0.99835205078125
1759747753178,935052900,29480,17,0.177734375,-0.11212158203125,-1.00177001953125
1759747753178,935052900,29480,18,0.17529296875,-0.10919189453125,-0.99395751953125
1759747753178,935052900,29480,19,0.17529296875,-0.11236572265625,-0.99884033203125
1759747753178,935052900,29480,20,0.176025390625,-0.10894775390625,-0.99713134765625
1759747753178,935052900,29480,21,0.17626953125,-0.10992431640625,-0.99835205078125
1759747753178,935052900,29480,22,0.17236328125,-0.11065673828125,-0.99713134765625
1759747753178,935052900,29480,23,0.170654296875,-0.11065673828125,-0.99371337890625
1759747753178,935052900,29480,24,0.17138671875,-0.10797119140625,-0.99737548828125
1759747753178,935052900,29480,25,0.172607421875,-0.11090087890625,-0.99957275390625
1759747753178,935052900,29480,26,0.178466796875,-0.10992431640625,-0.99761962890625
1759747753178,935052900,29480,27,0.174560546875,-0.10968017578125,-0.99761962890625
1759747753178,935052900,29480,28,0.17431640625,-0.10894775390625,-0.99786376953125
1759747753178,935052900,29480,29,0.172119140625,-0.11431884765625,-0.99761962890625
1759747753178,935052900,29480,30,0.174560546875,-0.11187744140625,-0.99566650390625
1759747753178,935052900,29480,31,0.1708984375,-0.11358642578125,-0.99639892578125
1759747755908,935055443,29481,0,0.1708984375,-0.10821533203125,-0.99810791015625
1759747755908,935055443,29481,1,0.175048828125,-0.11090087890625,-0.99835205078125
1759747755908,935055443,29481,2,0.17041015625,-0.11090087890625,-0.99786376953125
1759747755908,935055443,29481,3,0.1708984375,-0.10919189453125,-0.99884033203125
1759747755908,935055443,29481,4,0.1728515625,-0.11212158203125,-0.99664306640625
1759747755908,935055443,29481,5,0.170654296875,-0.10772705078125,-0.99884033203125
1759747755908,935055443,29481,6,0.16796875,-0.10845947265625,-0.99957275390625
1759747755908,935055443,29481,7,0.17041015625,-0.10992431640625,-0.99981689453125
1759747755908,935055443,29481,8,0.168701171875,-0.10943603515625,-0.99810791015625
1759747755908,935055443,29481,9,0.16845703125,-0.11090087890625,-0.99884033203125
1759747755908,935055443,29481,10,0.169921875,-0.11016845703125,-1.00054931640625
1759747755908,935055443,29481,11,0.174560546875,-0.10748291015625,-0.99957275390625
1759747755908,935055443,29481,12,0.173583984375,-0.10699462890625,-0.99981689453125
1759747755908,935055443,29481,13,0.17333984375,-0.10894775390625,-0.99908447265625
1759747755908,935055443,29481,14,0.177490234375,-0.11016845703125,-0.99981689453125
1759747755908,935055443,29481,15,0.17626953125,-0.11016845703125,-1.00006103515625
1759747755908,935055443,29481,16,0.179931640625,-0.11627197265625,-0.99981689453125
1759747755908,935055443,29481,17,0.176025390625,-0.12310791015625,-0.99200439453125
1759747755908,935055443,29481,18,0.174560546875,-0.11895751953125,-0.98736572265625
1759747755908,935055443,29481,19,0.177734375,-0.11676025390625,-1.00006103515625
1759747755908,935055443,29481,20,0.178466796875,-0.12091064453125,-0.99786376953125
1759747755908,935055443,29481,21,0.174072265625,-0.11895751953125,-0.99371337890625
1759747755908,935055443,29481,22,0.17822265625,-0.11285400390625,-0.99884033203125
1759747755908,935055443,29481,23,0.179931640625,-0.11383056640625,-0.99957275390625
1759747755908,935055443,29481,24,0.1767578125,-0.12115478515625,-0.99176025390625
1759747755908,935055443,29481,25,0.176513671875,-0.11602783203125,-0.99102783203125
1759747755908,935055443,29481,26,0.18017578125,-0.11627197265625,-1.00201416015625
1759747755908,935055443,29481,27,0.1806640625,-0.11651611328125,-0.99713134765625
1759747755908,935055443,29481,28,0.1767578125,-0.11700439453125,-0.99102783203125
1759747755908,935055443,29481,29,0.178466796875,-0.11480712890625,-0.99713134765625
1759747755908,935055443,29481,30,0.1826171875,-0.11553955078125,-1.00177001953125
1759747755908,935055443,29481,31,0.18115234375,-0.11627197265625,-0.99493408203125
1759747758247,935057986,29482,0,0.1806640625,-0.11553955078125,-0.99713134765625
1759747758247,935057986,29482,1,0.183837890625,-0.11309814453125,-0.99688720703125
1759747758247,935057986,29482,2,0.181884765625,-0.11431884765625,-0.99835205078125
1759747758247,935057986,29482,3,0.1806640625,-0.11602783203125,-0.99493408203125
1759747758247,935057986,29482,4,0.181640625,-0.11651611328125,-0.99835205078125
1759747758247,935057986,29482,5,0.1826171875,-0.11236572265625,-0.99639892578125
1759747758247,935057986,29482,6,0.182861328125,-0.11285400390625,-0.99591064453125
1759747758247,935057986,29482,7,0.18115234375,-0.11456298828125,-0.99517822265625
1759747758247,935057986,29482,8,0.179931640625,-0.11553955078125,-0.99639892578125
1759747758247,935057986,29482,9,0.183837890625,-0.11505126953125,-0.99908447265625
1759747758247,935057986,29482,10,0.18017578125,-0.11260986328125,-0.99224853515625
1759747758247,935057986,29482,11,0.18310546875,-0.11041259765625,-0.99859619140625
1759747758247,935057986,29482,12,0.184814453125,-0.11285400390625,-1.00054931640625
1759747758247,935057986,29482,13,0.17822265625,-0.11627197265625,-0.99102783203125
1759747758247,935057986,29482,14,0.18115234375,-0.11285400390625,-0.99395751953125
1759747758247,935057986,29482,15,0.178955078125,-0.11260986328125,-0.99859619140625
1759747758247,935057986,29482,16,0.177490234375,-0.11309814453125,-0.99688720703125
1759747758247,935057986,29482,17,0.1787109375,-0.11090087890625,-0.99420166015625
1759747758247,935057986,29482,18,0.18115234375,-0.11285400390625,-0.99908447265625
1759747758247,935057986,29482,19,0.179931640625,-0.11383056640625,-0.99639892578125
1759747758247,935057986,29482,20,0.1787109375,-0.11480712890625,-0.99591064453125
1759747758247,935057986,29482,21,0.180908203125,-0.11309814453125,-0.99737548828125
1759747758247,935057986,29482,22,0.183349609375,-0.11260986328125,-0.99737548828125
1759747758247,935057986,29482,23,0.177734375,-0.11285400390625,-0.99615478515625
1759747758247,935057986,29482,24,0.178955078125,-0.11309814453125,-0.99713134765625
1759747758247,935057986,29482,25,0.178466796875,-0.11065673828125,-0.99468994140625
1759747758247,935057986,29482,26,0.177001953125,-0.11212158203125,-0.99591064453125
1759747758247,935057986,29482,27,0.178466796875,-0.11505126953125,-0.99493408203125
1759747758247,935057986,29482,28,0.17724609375,-0.11090087890625,-0.99908447265625
1759747758247,935057986,29482,29,0.1767578125,-0.11187744140625,-0.99444580078125
1759747758247,935057986,29482,30,0.1787109375,-0.11138916015625,-0.99835205078125
1759747758247,935057986,29482,31,0.18017578125,-0.11114501953125,-0.99859619140625
1759747760783,935060530,29483,0,0.180419921875,-0.11358642578125,-0.99566650390625
1759747760783,935060530,29483,1,0.1796875,-0.11090087890625,-1.00030517578125
1759747760783,935060530,29483,2,0.176025390625,-0.11334228515625,-0.99957275390625
1759747760783,935060530,29483,3,0.1787109375,-0.11407470703125,-0.99493408203125
1759747760783,935060530,29483,4,0.177001953125,-0.11016845703125,-0.99639892578125
1759747760783,935060530,29483,5,0.1767578125,-0.11236572265625,-0.99688720703125
1759747760783,935060530,29483,6,0.1787109375,-0.11138916015625,-0.99639892578125
1759747760783,935060530,29483,7,0.1796875,-0.11480712890625,-0.99761962890625
1759747760783,935060530,29483,8,0.17578125,-0.10943603515625,-0.99298095703125
1759747760783,935060530,29483,9,0.177978515625,-0.11016845703125,-0.99786376953125
1759747760783,935060530,29483,10,0.181640625,-0.11529541015625,-0.99908447265625
1759747760783,935060530,29483,11,0.1796875,-0.11309814453125,-0.99639892578125
1759747760783,935060530,29483,12,0.177978515625,-0.11016845703125,-0.99273681640625
1759747760783,935060530,29483,13,0.1787109375,-0.10968017578125,-0.99713134765625
1759747760783,935060530,29483,14,0.177978515625,-0.11407470703125,-0.99639892578125
1759747760783,935060530,29483,15,0.178955078125,-0.11212158203125,-0.99713134765625
1759747760783,935060530,29483,16,0.1796875,-0.11285400390625,-1.00030517578125
1759747760783,935060530,29483,17,0.1787109375,-0.11041259765625,-0.99615478515625
1759747760783,935060530,29483,18,0.178955078125,-0.11285400390625,-0.99371337890625
1759747760783,935060530,29483,19,0.180419921875,-0.11236572265625,-1.00201416015625
1759747760783,935060530,29483,20,0.18115234375,-0.11553955078125,-0.99151611328125
1759747760783,935060530,29483,21,0.1796875,-0.11260986328125,-0.99200439453125
1759747760783,935060530,29483,22,0.18212890625,-0.10943603515625,-0.99737548828125
1759747760783,935060530,29483,23,0.18359375,-0.11260986328125,-0.99713134765625
1759747760783,935060530,29483,24,0.184326171875,-0.11309814453125,-0.99566650390625
1759747760783,935060530,29483,25,0.18017578125,-0.11553955078125,-0.99664306640625
1759747760783,935060530,29483,26,0.179443359375,-0.11358642578125,-0.99151611328125
1759747760783,935060530,29483,27,0.18408203125,-0.11138916015625,-1.00128173828125
1759747760783,935060530,29483,28,0.177490234375,-0.11749267578125,-0.99591064453125
1759747760783,935060530,29483,29,0.17919921875,-0.11260986328125,-0.99664306640625
1759747760783,935060530,29483,30,0.1787109375,-0.11065673828125,-1.00030517578125
1759747760783,935060530,29483,31,0.177734375,-0.11260986328125,-0.99200439453125
1759747763318,935063073,29484,0,0.179931640625,-0.11212158203125,-0.99517822265625
1759747763318,935063073,29484,1,0.18115234375,-0.11187744140625,-1.00054931640625
1759747763318,935063073,29484,2,0.18115234375,-0.11358642578125,-0.99566650390625
1759747763318,935063073,29484,3,0.179931640625,-0.11041259765625,-0.99517822265625
1759747763318,935063073,29484,4,0.177734375,-0.11285400390625,-0.99688720703125
1759747763318,935063073,29484,5,0.179443359375,-0.11309814453125,-0.99615478515625
1759747763318,935063073,29484,6,0.179931640625,-0.10992431640625,-0.99786376953125
1759747763318,935063073,29484,7,0.17822265625,-0.11383056640625,-0.99517822265625
1759747763318,935063073,29484,8,0.177490234375,-0.11187744140625,-0.99542236328125
1759747763318,935063073,29484,9,0.181640625,-0.10968017578125,-0.99615478515625
1759747763318,935063073,29484,10,0.181640625,-0.11138916015625,-0.99249267578125
1759747763318,935063073,29484,11,0.179443359375,-0.11358642578125,-0.99053955078125
1759747763318,935063073,29484,12,0.181396484375,-0.11187744140625,-0.99859619140625
1759747763318,935063073,29484,13,0.177978515625,-0.10992431640625,-0.99591064453125
1759747763318,935063073,29484,14,0.183349609375,-0.11016845703125,-0.99957275390625
1759747763318,935063073,29484,15,0.180419921875,-0.11309814453125,-0.99468994140625
1759747763318,935063073,29484,16,0.181640625,-0.11212158203125,-0.99053955078125
1759747763318,935063073,29484,17,0.18408203125,-0.10919189453125,-1.00030517578125
1759747763318,935063073,29484,18,0.1826171875,-0.11041259765625,-0.99371337890625
1759747763318,935063073,29484,19,0.177001953125,-0.11407470703125,-0.99151611328125
1759747763318,935063073,29484,20,0.179443359375,-0.11505126953125,-0.99932861328125
1759747763318,935063073,29484,21,0.183349609375,-0.10845947265625,-0.99713134765625
1759747763318,935063073,29484,22,0.1767578125,-0.11187744140625,-0.99029541015625
1759747763318,935063073,29484,23,0.177734375,-0.11236572265625,-0.99444580078125
1759747763318,935063073,29484,24,0.17919921875,-0.11138916015625,-0.99981689453125
1759747763318,935063073,29484,25,0.18310546875,-0.11285400390625,-0.99835205078125
1759747763318,935063073,29484,26,0.178466796875,-0.11407470703125,-0.99200439453125
1759747763318,935063073,29484,27,0.180908203125,-0.11212158203125,-0.99957275390625
1759747763318,935063073,29484,28,0.181640625,-0.11212158203125,-0.99810791015625
1759747763318,935063073,29484,29,0.1796875,-0.11383056640625,-0.99688720703125
