receivedPhoneTimestamp,respeckTimestamp,packetSeqNum,sampleSeqNum,accelX,accelY,accelZ
1759871630147,967100841,6460,25,-0.2490234375,-0.99029541015625,0.10467529296875
1759871630147,967100841,6460,26,-0.272216796875,-1.01593017578125,0.13494873046875
1759871630147,967100841,6460,27,-0.275634765625,-0.98004150390625,0.14910888671875
1759871630147,967100841,6460,28,-0.273681640625,-0.98052978515625,0.18035888671875
1759871630147,967100841,6460,29,-0.2314453125,-0.99639892578125,0.17767333984375
1759871630147,967100841,6460,30,-0.24951171875,-0.99200439453125,0.16888427734375
1759871630147,967100841,6460,31,-0.254638671875,-0.99151611328125,0.16351318359375
1759871632660,967103378,6461,0,-0.265625,-0.99078369140625,0.15692138671875
1759871632660,967103378,6461,1,-0.357666015625,-0.99444580078125,0.13446044921875
1759871632660,967103378,6461,2,-0.230712890625,-0.99395751953125,0.15545654296875
1759871632660,967103378,6461,3,-0.281494140625,-0.99029541015625,0.13153076171875
1759871632660,967103378,6461,4,-0.29052734375,-0.99249267578125,0.16009521484375
1759871632660,967103378,6461,5,-0.24951171875,-0.99786376953125,0.17156982421875
1759871632660,967103378,6461,6,-0.27978515625,-0.96612548828125,0.15911865234375
1759871632660,967103378,6461,7,-0.31591796875,-1.01544189453125,0.13641357421875
1759871632660,967103378,6461,8,-0.2392578125,-0.97833251953125,0.17059326171875
1759871632660,967103378,6461,9,-0.284423828125,-0.99444580078125,0.14422607421875
1759871632660,967103378,6461,10,-0.305908203125,-0.97540283203125,0.17108154296875
1759871632660,967103378,6461,11,-0.302001953125,-0.99200439453125,0.17547607421875
1759871632660,967103378,6461,12,-0.279541015625,-0.97540283203125,0.16009521484375
1759871632660,967103378,6461,13,-0.29345703125,-0.99981689453125,0.16180419921875
1759871632660,967103378,6461,14,-0.321044921875,-0.96441650390625,0.17303466796875
1759871632660,967103378,6461,15,-0.25244140625,-1.00274658203125,0.16107177734375
1759871632660,967103378,6461,16,-0.211181640625,-0.99713134765625,0.15106201171875
1759871632660,967103378,6461,17,-0.286376953125,-0.98907470703125,0.17620849609375
1759871632660,967103378,6461,18,-0.26904296875,-0.99249267578125,0.17205810546875
1759871632660,967103378,6461,19,-0.2412109375,-0.99664306640625,0.16375732421875
1759871632660,967103378,6461,20,-0.263671875,-0.98565673828125,0.17913818359375
1759871632660,967103378,6461,21,-0.256103515625,-0.98907470703125,0.16571044921875
1759871632660,967103378,6461,22,-0.26953125,-1.00201416015625,0.14373779296875
1759871632660,967103378,6461,23,-0.24658203125,-1.00714111328125,0.09759521484375
1759871632660,967103378,6461,24,-0.272216796875,-1.00494384765625,0.07684326171875
1759871632660,967103378,6461,25,-0.275146484375,-1.00152587890625,0.08978271484375
1759871632660,967103378,6461,26,-0.2685546875,-0.99835205078125,0.11395263671875
1759871632660,967103378,6461,27,-0.24365234375,-0.99566650390625,0.14447021484375
1759871632660,967103378,6461,28,-0.228759765625,-1.02105712890625,0.11541748046875
1759871632660,967103378,6461,29,-0.20751953125,-0.99444580078125,0.07220458984375
1759871632660,967103378,6461,30,-0.31982421875,-1.00958251953125,0.14520263671875
1759871632660,967103378,6461,31,-0.250732421875,-0.98516845703125,0.09320068359375
1759871635171,967105915,6462,0,-0.291015625,-1.01007080078125,0.07464599609375
1759871635171,967105915,6462,1,-0.257080078125,-0.95928955078125,0.15130615234375
1759871635171,967105915,6462,2,-0.266845703125,-1.05084228515625,0.13934326171875
1759871635171,967105915,6462,3,-0.33349609375,-0.95977783203125,0.06732177734375
1759871635171,967105915,6462,4,-0.234130859375,-0.98858642578125,0.16131591796875
1759871635171,967105915,6462,5,-0.2236328125,-1.01861572265625,0.13616943359375
1759871635171,967105915,6462,6,-0.298583984375,-0.97955322265625,0.12738037109375
1759871635171,967105915,6462,7,-0.255615234375,-1.01129150390625,0.11590576171875
1759871635171,967105915,6462,8,-0.267822265625,-0.99786376953125,0.11663818359375
1759871635171,967105915,6462,9,-0.276123046875,-1.00006103515625,0.15277099609375
1759871635171,967105915,6462,10,-0.2783203125,-1.01812744140625,0.14349365234375
1759871635171,967105915,6462,11,-0.26611328125,-0.96563720703125,0.09857177734375
1759871635171,967105915,6462,12,-0.279052734375,-1.01300048828125,0.11932373046875
1759871635171,967105915,6462,13,-0.276123046875,-0.98297119140625,0.12786865234375
1759871635171,967105915,6462,14,-0.286865234375,-1.00421142578125,0.13836669921875
1759871635171,967105915,6462,15,-0.270263671875,-1.01226806640625,0.12933349609375
1759871635171,967105915,6462,16,-0.237060546875,-1.00054931640625,0.14031982421875
1759871635171,967105915,6462,17,-0.251220703125,-0.98956298828125,0.15765380859375
1759871635171,967105915,6462,18,-0.1904296875,-0.93829345703125,0.20892333984375
1759871635171,967105915,6462,19,-0.357177734375,-1.05816650390625,0.11566162109375
1759871635171,967105915,6462,20,-0.26171875,-0.94024658203125,0.15301513671875
1759871635171,967105915,6462,21,-0.25634765625,-1.00201416015625,0.16668701171875
1759871635171,967105915,6462,22,-0.306396484375,-1.00372314453125,0.14764404296875
1759871635171,967105915,6462,23,-0.267578125,-0.98175048828125,0.13543701171875
1759871635171,967105915,6462,24,-0.27880859375,-1.00250244140625,0.13421630859375
1759871635171,967105915,6462,25,-0.271728515625,-0.99957275390625,0.14398193359375
1759871635171,967105915,6462,26,-0.28662109375,-0.98907470703125,0.14666748046875
1759871635171,967105915,6462,27,-0.2763671875,-0.99468994140625,0.14715576171875
1759871635171,967105915,6462,28,-0.2724609375,-0.98614501953125,0.14642333984375
1759871635171,967105915,6462,29,-0.2734375,-1.00152587890625,0.15179443359375
1759871635171,967105915,6462,30,-0.295166015625,-0.96636962890625,0.14910888671875
1759871635171,967105915,6462,31,-0.36962890625,-1.00372314453125,0.12030029296875
1759871637713,967108452,6463,0,-0.245849609375,-0.98712158203125,0.14520263671875
1759871637713,967108452,6463,1,-0.252197265625,-0.98663330078125,0.15765380859375
1759871637713,967108452,6463,2,-0.281982421875,-1.00372314453125,0.15643310546875
1759871637713,967108452,6463,3,-0.310302734375,-0.99005126953125,0.13079833984375
1759871637713,967108452,6463,4,-0.288818359375,-0.99591064453125,0.13787841796875
1759871637713,967108452,6463,5,-0.2861328125,-0.99493408203125,0.13739013671875
1759871637713,967108452,6463,6,-0.2373046875,-0.99444580078125,0.15325927734375
1759871637713,967108452,6463,7,-0.2919921875,-0.99444580078125,0.15789794921875
1759871637713,967108452,6463,8,-0.31396484375,-0.98712158203125,0.15179443359375
1759871637713,967108452,6463,9,-0.252685546875,-0.98907470703125,0.14959716796875
1759871637713,967108452,6463,10,-0.2587890625,-0.99761962890625,0.15521240234375
1759871637713,967108452,6463,11,-0.283935546875,-0.98638916015625,0.14617919921875
1759871637713,967108452,6463,12,-0.27001953125,-0.99932861328125,0.13812255859375
1759871637713,967108452,6463,13,-0.23486328125,-0.99053955078125,0.13006591796875
1759871637713,967108452,6463,14,-0.263427734375,-1.00518798828125,0.10443115234375
1759871637713,967108452,6463,15,-0.302001953125,-0.99542236328125,0.10516357421875
1759871637713,967108452,6463,16,-0.268310546875,-0.99786376953125,0.12469482421875
1759871637713,967108452,6463,17,-0.24169921875,-0.99273681640625,0.11395263671875
1759871637713,967108452,6463,18,-0.23583984375,-1.01129150390625,0.09930419921875
1759871637713,967108452,6463,19,-0.373779296875,-1.03179931640625,0.05828857421875
1759871637713,967108452,6463,20,-0.27099609375,-0.96881103515625,0.07171630859375
1759871637713,967108452,6463,21,-0.267578125,-1.00323486328125,0.09661865234375
1759871637713,967108452,6463,22,-0.244384765625,-1.01251220703125,0.13323974609375
1759871637713,967108452,6463,23,-0.225830078125,-0.99810791015625,0.11614990234375
1759871637713,967108452,6463,24,-0.265869140625,-1.02764892578125,0.08978271484375
1759871637713,967108452,6463,25,-0.248779296875,-0.97686767578125,0.08123779296875
1759871637713,967108452,6463,26,-0.2431640625,-1.05377197265625,0.12298583984375
1759871637713,967108452,6463,27,-0.28173828125,-0.95928955078125,0.08612060546875
1759871637713,967108452,6463,28,-0.23486328125,-1.02056884765625,0.14202880859375
1759871637713,967108452,6463,29,-0.233642578125,-1.00469970703125,0.12249755859375
1759871637713,967108452,6463,30,-0.281005859375,-0.97857666015625,0.11395263671875
1759871637713,967108452,6463,31,-0.315185546875,-1.00323486328125,0.14105224609375
1759871640224,967110989,6464,0,-0.24072265625,-1.01470947265625,0.12396240234375
1759871640224,967110989,6464,1,-0.30517578125,-0.98052978515625,0.07806396484375
1759871640224,967110989,6464,2,-0.25634765625,-1.00494384765625,0.12860107421875
1759871640224,967110989,6464,3,-0.22802734375,-0.99224853515625,0.16253662109375
1759871640224,967110989,6464,4,-0.26904296875,-0.98541259765625,0.13201904296875
1759871640224,967110989,6464,5,-0.293212890625,-1.00323486328125,0.14398193359375
1759871640224,967110989,6464,6,-0.22216796875,-1.03326416015625,0.11297607421875
1759871640224,967110989,6464,7,-0.24072265625,-0.98052978515625,0.09613037109375
1759871640224,967110989,6464,8,-0.277587890625,-1.00885009765625,0.16693115234375
1759871640224,967110989,6464,9,-0.308837890625,-0.97906494140625,0.16448974609375
1759871640224,967110989,6464,10,-0.307373046875,-0.96856689453125,0.12908935546875
1759871640224,967110989,6464,11,-0.308837890625,-0.99542236328125,0.12615966796875
1759871640224,967110989,6464,12,-0.319091796875,-0.99029541015625,0.18035888671875
1759871640224,967110989,6464,13,-0.174560546875,-0.98004150390625,0.16326904296875
1759871640224,967110989,6464,14,-0.306640625,-1.01495361328125,0.15130615234375
1759871640224,967110989,6464,15,-0.291015625,-0.97662353515625,0.14593505859375
1759871640224,967110989,6464,16,-0.29345703125,-0.99322509765625,0.14569091796875
1759871640224,967110989,6464,17,-0.301513671875,-0.99371337890625,0.15350341796875
1759871640224,967110989,6464,18,-0.2646484375,-0.99810791015625,0.15423583984375
1759871640224,967110989,6464,19,-0.285888671875,-0.98004150390625,0.16766357421875
1759871640224,967110989,6464,20,-0.298583984375,-0.97320556640625,0.18499755859375
1759871640224,967110989,6464,21,-0.3076171875,-0.98297119140625,0.17767333984375
1759871640224,967110989,6464,22,-0.3056640625,-0.97149658203125,0.19451904296875
1759871640224,967110989,6464,23,-0.25732421875,-0.98077392578125,0.18646240234375
1759871640224,967110989,6464,24,-0.307861328125,-0.99127197265625,0.17279052734375
1759871640224,967110989,6464,25,-0.26416015625,-0.98175048828125,0.16229248046875
1759871640224,967110989,6464,26,-0.309326171875,-0.99346923828125,0.16400146484375
1759871640224,967110989,6464,27,-0.28173828125,-0.97076416015625,0.16986083984375
1759871640224,967110989,6464,28,-0.318603515625,-0.98956298828125,0.14837646484375
1759871640224,967110989,6464,29,-0.323486328125,-0.97222900390625,0.15155029296875
1759871640224,967110989,6464,30,-0.25146484375,-0.99786376953125,0.18109130859375
1759871640224,967110989,6464,31,-0.341796875,-0.97247314453125,0.13787841796875
1759871642734,967113526,6465,0,-0.280517578125,-0.99517822265625,0.15081787109375
1759871642734,967113526,6465,1,-0.28076171875,-0.97442626953125,0.17767333984375
1759871642734,967113526,6465,2,-0.308349609375,-1.00054931640625,0.18377685546875
1759871642734,967113526,6465,3,-0.267333984375,-0.97149658203125,0.15716552734375
1759871642734,967113526,6465,4,-0.286376953125,-1.00982666015625,0.14471435546875
1759871642734,967113526,6465,5,-0.285400390625,-0.97344970703125,0.16375732421875
1759871642734,967113526,6465,6,-0.28466796875,-0.98419189453125,0.17547607421875
1759871642734,967113526,6465,7,-0.2919921875,-0.98272705078125,0.17962646484375
1759871642734,967113526,6465,8,-0.28173828125,-0.99102783203125,0.16644287109375
1759871642734,967113526,6465,9,-0.288818359375,-0.98101806640625,0.17620849609375
1759871642734,967113526,6465,10,-0.298583984375,-0.99078369140625,0.15765380859375
1759871642734,967113526,6465,11,-0.291259765625,-0.99664306640625,0.14178466796875
1759871642734,967113526,6465,12,-0.24560546875,-0.99664306640625,0.13348388671875
1759871642734,967113526,6465,13,-0.314697265625,-0.99224853515625,0.14202880859375
1759871642734,967113526,6465,14,-0.296630859375,-0.98199462890625,0.13690185546875
1759871642734,967113526,6465,15,-0.266357421875,-1.00103759765625,0.11541748046875
1759871642734,967113526,6465,16,-0.268798828125,-1.01519775390625,0.08319091796875
1759871642734,967113526,6465,17,-0.2578125,-0.99591064453125,0.07757568359375
1759871642734,967113526,6465,18,-0.275146484375,-1.00299072265625,0.08685302734375
1759871642734,967113526,6465,19,-0.288330078125,-0.99859619140625,0.07659912109375
1759871642734,967113526,6465,20,-0.271484375,-1.00762939453125,0.09930419921875
1759871642734,967113526,6465,21,-0.309814453125,-0.96221923828125,0.07513427734375
1759871642734,967113526,6465,22,-0.2978515625,-1.05328369140625,0.15692138671875
1759871642734,967113526,6465,23,-0.235107421875,-0.97052001953125,0.02410888671875
1759871642734,967113526,6465,24,-0.231201171875,-1.02178955078125,0.07806396484375
1759871642734,967113526,6465,25,-0.24072265625,-1.03228759765625,0.10101318359375
1759871642734,967113526,6465,26,-0.258544921875,-0.96856689453125,0.10882568359375
1759871642734,967113526,6465,27,-0.2431640625,-1.01715087890625,0.12127685546875
1759871642734,967113526,6465,28,-0.251220703125,-1.00469970703125,0.09271240234375
1759871642734,967113526,6465,29,-0.246337890625,-1.01495361328125,0.08709716796875
1759871642734,967113526,6465,30,-0.25390625,-0.99005126953125,0.09686279296875
1759871642734,967113526,6465,31,-0.361083984375,-0.98419189453125,0.18182373046875
1759871645263,967116063,6466,0,-0.25146484375,-0.99664306640625,0.11956787109375
1759871645263,967116063,6466,1,-0.24609375,-1.00909423828125,0.06634521484375
1759871645263,967116063,6466,2,-0.2568359375,-1.02935791015625,0.06634521484375
1759871645263,967116063,6466,3,-0.267333984375,-0.97393798828125,0.10980224609375
1759871645263,967116063,6466,4,-0.282470703125,-1.01104736328125,0.11517333984375
1759871645263,967116063,6466,5,-0.269287109375,-0.99127197265625,0.07904052734375
1759871645263,967116063,6466,6,-0.262939453125,-0.99298095703125,0.06414794921875
1759871645263,967116063,6466,7,-0.3037109375,-1.01446533203125,0.07366943359375
1759871645263,967116063,6466,8,-0.296875,-1.00592041015625,0.06781005859375
1759871645263,967116063,6466,9,-0.288330078125,-1.00958251953125,0.08758544921875
1759871645263,967116063,6466,10,-0.230712890625,-0.99591064453125,0.06292724609375
1759871645263,967116063,6466,11,-0.251708984375,-1.01104736328125,0.09515380859375
1759871645263,967116063,6466,12,-0.268310546875,-1.00714111328125,0.07244873046875
1759871645263,967116063,6466,13,-0.272216796875,-1.00592041015625,0.08489990234375
1759871645263,967116063,6466,14,-0.285400390625,-1.01446533203125,0.09344482421875
1759871645263,967116063,6466,15,-0.240234375,-0.98004150390625,0.06976318359375
1759871645263,967116063,6466,16,-0.257080078125,-1.01495361328125,0.10711669921875
1759871645263,967116063,6466,17,-0.274169921875,-1.00518798828125,0.09857177734375
1759871645263,967116063,6466,18,-0.26123046875,-1.00811767578125,0.07489013671875
1759871645263,967116063,6466,19,-0.296630859375,-0.99200439453125,0.07855224609375
1759871645263,967116063,6466,20,-0.269287109375,-1.01617431640625,0.13031005859375
1759871645263,967116063,6466,21,-0.248291015625,-0.98638916015625,0.04608154296875
1759871645263,967116063,6466,22,-0.278564453125,-1.01983642578125,0.08929443359375
1759871645263,967116063,6466,23,-0.247802734375,-1.00958251953125,0.10125732421875
1759871645263,967116063,6466,24,-0.254150390625,-1.01593017578125,0.09686279296875
1759871645263,967116063,6466,25,-0.31005859375,-0.97906494140625,0.09735107421875
1759871645263,967116063,6466,26,-0.22705078125,-1.01202392578125,0.13714599609375
1759871645263,967116063,6466,27,-0.2861328125,-0.98175048828125,0.14154052734375
1759871645263,967116063,6466,28,-0.21240234375,-1.00640869140625,0.16546630859375
1759871645263,967116063,6466,29,-0.2734375,-0.97149658203125,0.10931396484375
1759871645263,967116063,6466,30,-0.243896484375,-1.03082275390625,0.14129638671875
1759871645263,967116063,6466,31,-0.31640625,-1.00616455078125,0.10125732421875
1759871647964,967118600,6467,0,-0.248291015625,-0.97711181640625,0.13421630859375
1759871647964,967118600,6467,1,-0.24462890625,-1.00030517578125,0.14764404296875
1759871647964,967118600,6467,2,-0.280029296875,-0.99468994140625,0.17205810546875
1759871647964,967118600,6467,3,-0.23974609375,-0.98785400390625,0.13348388671875
1759871647964,967118600,6467,4,-0.315673828125,-0.99932861328125,0.14544677734375
1759871647964,967118600,6467,5,-0.21435546875,-0.99542236328125,0.10736083984375
1759871647964,967118600,6467,6,-0.284423828125,-1.00201416015625,0.15081787109375
1759871647964,967118600,6467,7,-0.250732421875,-0.99127197265625,0.15106201171875
1759871647964,967118600,6467,8,-0.24951171875,-0.99981689453125,0.14837646484375
1759871647964,967118600,6467,9,-0.277587890625,-0.97247314453125,0.15081787109375
1759871647964,967118600,6467,10,-0.345458984375,-1.01080322265625,0.15081787109375
1759871647964,967118600,6467,11,-0.283935546875,-0.95758056640625,0.15325927734375
1759871647964,967118600,6467,12,-0.23828125,-1.01080322265625,0.16986083984375
1759871647964,967118600,6467,13,-0.198486328125,-0.98101806640625,0.17034912109375
1759871647964,967118600,6467,14,-0.3095703125,-1.02545166015625,0.13934326171875
1759871647964,967118600,6467,15,-0.323974609375,-0.95928955078125,0.13739013671875
1759871647964,967118600,6467,22,-0.203857421875,-1.03033447265625,0.15472412109375
1759871647964,967118600,6467,23,-0.247802734375,-1.00323486328125,0.18011474609375
1759871647964,967118600,6467,24,-0.2666015625,-0.98638916015625,0.12933349609375
1759871647964,967118600,6467,25,-0.345947265625,-0.99005126953125,0.12738037109375
1759871647964,967118600,6467,26,-0.28857421875,-0.98443603515625,0.16424560546875
1759871647964,967118600,6467,27,-0.268798828125,-0.99932861328125,0.16644287109375
1759871647964,967118600,6467,28,-0.244384765625,-0.98834228515625,0.17449951171875
1759871647964,967118600,6467,29,-0.2900390625,-0.98175048828125,0.14105224609375
1759871647964,967118600,6467,30,-0.306396484375,-0.99200439453125,0.17254638671875
1759871647964,967118600,6467,31,-0.33740234375,-0.97296142578125,0.18304443359375
1759871650490,967121137,6468,0,-0.2626953125,-0.97003173828125,0.15740966796875
1759871650490,967121137,6468,1,-0.24072265625,-1.00665283203125,0.20428466796875
1759871650490,967121137,6468,2,-0.294677734375,-0.97833251953125,0.16180419921875
1759871650490,967121137,6468,3,-0.29443359375,-0.98419189453125,0.16546630859375
1759871650490,967121137,6468,4,-0.284423828125,-0.98736572265625,0.16595458984375
1759871650490,967121137,6468,5,-0.309326171875,-0.98272705078125,0.16741943359375
1759871650490,967121137,6468,6,-0.256103515625,-0.99298095703125,0.18231201171875
1759871650490,967121137,6468,7,-0.307373046875,-0.98565673828125,0.16546630859375
1759871650490,967121137,6468,8,-0.297607421875,-0.98077392578125,0.17694091796875
1759871650490,967121137,6468,9,-0.305908203125,-0.96002197265625,0.19183349609375
1759871650490,967121137,6468,10,-0.2841796875,-0.99273681640625,0.18719482421875
1759871650490,967121137,6468,11,-0.3076171875,-0.99371337890625,0.16644287109375
1759871650490,967121137,6468,12,-0.263916015625,-0.97467041015625,0.17840576171875
1759871650490,967121137,6468,13,-0.310302734375,-0.98101806640625,0.19476318359375
1759871650490,967121137,6468,14,-0.28271484375,-0.96710205078125,0.20672607421875
1759871650490,967121137,6468,15,-0.307373046875,-0.96612548828125,0.19647216796875
1759871650490,967121137,6468,16,-0.31787109375,-0.97833251953125,0.18743896484375
1759871650490,967121137,6468,17,-0.28173828125,-0.97271728515625,0.20770263671875
1759871650490,967121137,6468,18,-0.31640625,-0.97247314453125,0.19207763671875
1759871650490,967121137,6468,19,-0.340087890625,-0.93389892578125,0.18768310546875
1759871650490,967121137,6468,20,-0.361083984375,-1.01031494140625,0.20721435546875
1759871650490,967121137,6468,21,-0.263671875,-0.94024658203125,0.18035888671875
1759871650490,967121137,6468,22,-0.30810546875,-0.98028564453125,0.18597412109375
1759871650490,967121137,6468,23,-0.26611328125,-1.01666259765625,0.20355224609375
1759871650490,967121137,6468,24,-0.257568359375,-0.95465087890625,0.15740966796875
1759871650490,967121137,6468,25,-0.260498046875,-1.02252197265625,0.10443115234375
1759871650490,967121137,6468,26,-0.29248046875,-0.97662353515625,0.12982177734375
1759871650490,967121137,6468,27,-0.30224609375,-0.99322509765625,0.13885498046875
1759871650490,967121137,6468,28,-0.28955078125,-0.99591064453125,0.15496826171875
1759871650490,967121137,6468,29,-0.240966796875,-0.99884033203125,0.17889404296875
1759871650490,967121137,6468,30,-0.251708984375,-0.98150634765625,0.16497802734375
1759871650490,967121137,6468,31,-0.282470703125,-1.00225830078125,0.17083740234375
1759871653004,967123668,6469,0,-0.30810546875,-0.99542236328125,0.16253662109375
1759871653004,967123668,6469,1,-0.276611328125,-0.94390869140625,0.14129638671875
1759871653004,967123668,6469,2,-0.328857421875,-1.02935791015625,0.20501708984375
1759871653004,967123668,6469,3,-0.22705078125,-0.93243408203125,0.19427490234375
1759871653004,967123668,6469,4,-0.28076171875,-1.01348876953125,0.16717529296875
1759871653004,967123668,6469,5,-0.2802734375,-0.97515869140625,0.17474365234375
1759871653004,967123668,6469,6,-0.3037109375,-0.98150634765625,0.18109130859375
1759871653004,967123668,6469,7,-0.299560546875,-0.97955322265625,0.18475341796875
1759871653004,967123668,6469,8,-0.290283203125,-0.98785400390625,0.18572998046875
1759871653004,967123668,6469,9,-0.278564453125,-0.98297119140625,0.17645263671875
1759871653004,967123668,6469,10,-0.300537109375,-0.98468017578125,0.18499755859375
1759871653004,967123668,6469,11,-0.3291015625,-0.97418212890625,0.18157958984375
1759871653004,967123668,6469,12,-0.270263671875,-0.97979736328125,0.18841552734375
1759871653004,967123668,6469,13,-0.28369140625,-0.97808837890625,0.18157958984375
1759871653004,967123668,6469,14,-0.28271484375,-0.98834228515625,0.20428466796875
1759871653004,967123668,6469,15,-0.311767578125,-0.97198486328125,0.18499755859375
1759871653004,967123668,6469,16,-0.27685546875,-0.97418212890625,0.19744873046875
1759871653004,967123668,6469,17,-0.27001953125,-0.99053955078125,0.18914794921875
1759871653004,967123668,6469,18,-0.29052734375,-0.98223876953125,0.18914794921875
1759871653004,967123668,6469,19,-0.29931640625,-0.97442626953125,0.18768310546875
1759871653004,967123668,6469,20,-0.322509765625,-0.98199462890625,0.17254638671875
1759871653004,967123668,6469,21,-0.283447265625,-0.97149658203125,0.18548583984375
1759871653004,967123668,6469,22,-0.3095703125,-0.97393798828125,0.19281005859375
1759871653004,967123668,6469,23,-0.262939453125,-1.00177001953125,0.21136474609375
1759871653004,967123668,6469,24,-0.29052734375,-0.96612548828125,0.17816162109375
1759871653004,967123668,6469,25,-0.27978515625,-0.98126220703125,0.20965576171875
1759871653004,967123668,6469,26,-0.294189453125,-0.97515869140625,0.21942138671875
1759871653004,967123668,6469,27,-0.27734375,-0.98419189453125,0.18695068359375
1759871653004,967123668,6469,28,-0.255859375,-0.97686767578125,0.20892333984375
1759871653004,967123668,6469,29,-0.2705078125,-0.98760986328125,0.21258544921875
1759871653004,967123668,6469,30,-0.26708984375,-0.96319580078125,0.21063232421875
1759871653004,967123668,6469,31,-0.27392578125,-0.98175048828125,0.19696044921875
1759871655526,967126205,6470,0,-0.311767578125,-0.99005126953125,0.19549560546875
1759871655526,967126205,6470,1,-0.259521484375,-0.95660400390625,0.18817138671875
1759871655526,967126205,6470,2,-0.359130859375,-0.99786376953125,0.18548583984375
1759871655526,967126205,6470,3,-0.25830078125,-0.98077392578125,0.20941162109375
1759871655526,967126205,6470,4,-0.30126953125,-0.96466064453125,0.21990966796875
1759871655526,967126205,6470,5,-0.2626953125,-0.97271728515625,0.19403076171875
1759871655526,967126205,6470,6,-0.3125,-0.97564697265625,0.20281982421875
1759871655526,967126205,6470,7,-0.156982421875,-0.99420166015625,0.16107177734375
1759871655526,967126205,6470,8,-0.301025390625,-1.01153564453125,0.18841552734375
1759871655526,967126205,6470,9,-0.187744140625,-0.98638916015625,0.12762451171875
1759871655526,967126205,6470,10,-0.240966796875,-1.02130126953125,0.10784912109375
1759871655526,967126205,6470,11,-0.24560546875,-0.99200439453125,0.10760498046875
1759871655526,967126205,6470,12,-0.239990234375,-1.02471923828125,0.07733154296875
1759871655526,967126205,6470,13,-0.31787109375,-0.99053955078125,0.06292724609375
1759871655526,967126205,6470,14,-0.344482421875,-0.98980712890625,0.10516357421875
1759871655526,967126205,6470,15,-0.256591796875,-0.98541259765625,0.19720458984375
1759871655526,967126205,6470,16,-0.18994140625,-1.01715087890625,0.18817138671875
1759871655526,967126205,6470,17,-0.2841796875,-0.97662353515625,0.14788818359375
1759871655526,967126205,6470,18,-0.25537109375,-1.00103759765625,0.13616943359375
1759871655526,967126205,6470,19,-0.286865234375,-0.98248291015625,0.12933349609375
1759871655526,967126205,6470,20,-0.28515625,-1.00958251953125,0.12957763671875
1759871655526,967126205,6470,21,-0.253173828125,-0.99737548828125,0.14202880859375
1759871655526,967126205,6470,22,-0.2265625,-1.01104736328125,0.14300537109375
1759871655526,967126205,6470,23,-0.25634765625,-1.00006103515625,0.12127685546875
1759871655526,967126205,6470,24,-0.315673828125,-0.98809814453125,0.11004638671875
1759871655526,967126205,6470,25,-0.24462890625,-1.00933837890625,0.18548583984375
1759871655526,967126205,6470,26,-0.23486328125,-0.99517822265625,0.08660888671875
1759871655526,967126205,6470,27,-0.250244140625,-1.01593017578125,0.11688232421875
1759871655526,967126205,6470,28,-0.238037109375,-0.99468994140625,0.13446044921875
1759871655526,967126205,6470,29,-0.260498046875,-0.99786376953125,0.14617919921875
1759871655526,967126205,6470,30,-0.266357421875,-1.00030517578125,0.13079833984375
1759871655526,967126205,6470,31,-0.25,-0.98931884765625,0.13909912109375
1759871658046,967128742,6471,0,-0.256103515625,-1.01080322265625,0.13421630859375
1759871658046,967128742,6471,1,-0.268798828125,-0.97100830078125,0.14080810546875
1759871658046,967128742,6471,2,-0.2998046875,-1.03228759765625,0.15740966796875
1759871658046,967128742,6471,3,-0.21484375,-0.96514892578125,0.12640380859375
1759871658046,967128742,6471,4,-0.25,-1.02398681640625,0.13568115234375
1759871658046,967128742,6471,5,-0.260498046875,-0.99371337890625,0.14251708984375
1759871658046,967128742,6471,6,-0.25146484375,-0.99737548828125,0.13006591796875
1759871658046,967128742,6471,7,-0.261962890625,-0.99835205078125,0.14324951171875
1759871658046,967128742,6471,8,-0.2353515625,-1.00372314453125,0.13763427734375
1759871658046,967128742,6471,9,-0.259033203125,-1.00128173828125,0.13641357421875
1759871658046,967128742,6471,10,-0.255615234375,-1.00323486328125,0.15032958984375
1759871658046,967128742,6471,11,-0.259033203125,-0.97540283203125,0.13226318359375
1759871658046,967128742,6471,12,-0.253173828125,-1.04327392578125,0.13836669921875
1759871658046,967128742,6471,13,-0.283447265625,-0.96368408203125,0.11297607421875
1759871658046,967128742,6471,14,-0.224609375,-1.00567626953125,0.15740966796875
1759871658046,967128742,6471,15,-0.243896484375,-1.01129150390625,0.16937255859375
1759871658046,967128742,6471,16,-0.260009765625,-0.98126220703125,0.15252685546875
1759871658046,967128742,6471,17,-0.265869140625,-1.00103759765625,0.14031982421875
1759871658046,967128742,6471,18,-0.257080078125,-0.99639892578125,0.15740966796875
1759871658046,967128742,6471,19,-0.26611328125,-0.99298095703125,0.13421630859375
1759871658046,967128742,6471,20,-0.27001953125,-1.00640869140625,0.14886474609375
1759871658046,967128742,6471,21,-0.2451171875,-0.99542236328125,0.14324951171875
1759871658046,967128742,6471,22,-0.2529296875,-1.00738525390625,0.13519287109375
1759871658046,967128742,6471,23,-0.248046875,-0.98614501953125,0.14471435546875
1759871658046,967128742,6471,24,-0.28466796875,-1.00372314453125,0.15032958984375
1759871658046,967128742,6471,25,-0.2568359375,-0.99151611328125,0.15057373046875
1759871658046,967128742,6471,26,-0.263916015625,-1.00030517578125,0.12957763671875
1759871658046,967128742,6471,27,-0.25048828125,-0.99884033203125,0.13055419921875
1759871658046,967128742,6471,28,-0.265380859375,-1.00177001953125,0.13714599609375
1759871658046,967128742,6471,29,-0.267822265625,-0.99127197265625,0.14178466796875
1759871658046,967128742,6471,30,-0.251220703125,-0.99615478515625,0.13201904296875
1759871658046,967128742,6471,31,-0.250732421875,-1.00543212890625,0.11663818359375
1759871660567,967131279,6472,0,-0.24951171875,-1.00347900390625,0.10418701171875
1759871660567,967131279,6472,1,-0.258056640625,-1.01202392578125,0.09442138671875
1759871660567,967131279,6472,2,-0.25927734375,-0.99957275390625,0.10247802734375
1759871660567,967131279,6472,3,-0.251708984375,-1.00933837890625,0.08026123046875
1759871660567,967131279,6472,4,-0.247802734375,-1.01519775390625,0.06488037109375
1759871660567,967131279,6472,5,-0.269775390625,-1.01300048828125,0.05731201171875
1759871660567,967131279,6472,6,-0.23974609375,-0.99932861328125,0.10931396484375
1759871660567,967131279,6472,7,-0.235107421875,-1.02056884765625,0.09368896484375
1759871660567,967131279,6472,8,-0.2490234375,-1.00299072265625,0.10906982421875
1759871660567,967131279,6472,9,-0.259033203125,-1.01007080078125,0.09246826171875
1759871660567,967131279,6472,10,-0.261962890625,-0.99566650390625,0.10052490234375
1759871660567,967131279,6472,11,-0.2685546875,-0.99786376953125,0.11322021484375
1759871660567,967131279,6472,12,-0.2783203125,-0.99664306640625,0.12811279296875
1759871660567,967131279,6472,13,-0.24951171875,-1.00054931640625,0.13616943359375
1759871660567,967131279,6472,14,-0.234130859375,-1.00543212890625,0.10980224609375
1759871660567,967131279,6472,15,-0.245849609375,-1.01373291015625,0.11395263671875
1759871660567,967131279,6472,16,-0.26318359375,-0.99932861328125,0.11859130859375
1759871660567,967131279,6472,17,-0.2724609375,-0.99517822265625,0.12762451171875
1759871660567,967131279,6472,18,-0.2744140625,-0.98809814453125,0.14691162109375
1759871660567,967131279,6472,19,-0.270751953125,-1.01275634765625,0.13690185546875
1759871660567,967131279,6472,20,-0.236572265625,-0.99908447265625,0.11322021484375
