receivedPhoneTimestamp,respeckTimestamp,packetSeqNum,sampleSeqNum,accelX,accelY,accelZ
1759700832508,828843370,13811,4,0.26708984375,0.02899169921875,-0.99566650390625
1759700832508,828843370,13811,5,0.262451171875,0.02874755859375,-0.99249267578125
1759700832508,828843370,13811,6,0.2646484375,0.02679443359375,-0.99761962890625
1759700832508,828843370,13811,7,0.264892578125,0.02825927734375,-0.99810791015625
1759700832508,828843370,13811,8,0.26611328125,0.02703857421875,-0.99395751953125
1759700832508,828843370,13811,9,0.265625,0.02752685546875,-0.99493408203125
1759700832508,828843370,13811,10,0.26416015625,0.02655029296875,-0.99493408203125
1759700832508,828843370,13811,11,0.26513671875,0.02996826171875,-0.99786376953125
1759700832508,828843370,13811,12,0.26318359375,0.02679443359375,-0.99127197265625
1759700832508,828843370,13811,13,0.263427734375,0.02801513671875,-0.99542236328125
1759700832508,828843370,13811,14,0.26611328125,0.02752685546875,-0.99615478515625
1759700832508,828843370,13811,15,0.263671875,0.02899169921875,-0.99517822265625
1759700832508,828843370,13811,16,0.263671875,0.02777099609375,-0.99761962890625
1759700832508,828843370,13811,17,0.264404296875,0.03070068359375,-0.99761962890625
1759700832508,828843370,13811,18,0.260498046875,0.02972412109375,-0.99713134765625
1759700832508,828843370,13811,19,0.264404296875,0.02728271484375,-1.00225830078125
1759700832508,828843370,13811,20,0.26416015625,0.03021240234375,-0.99542236328125
1759700832508,828843370,13811,21,0.2646484375,0.02972412109375,-0.99908447265625
1759700832508,828843370,13811,22,0.262451171875,0.02850341796875,-0.99468994140625
1759700832508,828843370,13811,23,0.261962890625,0.02557373046875,-0.99688720703125
1759700832508,828843370,13811,24,0.261474609375,0.02850341796875,-0.99615478515625
1759700832508,828843370,13811,25,0.262939453125,0.02777099609375,-0.99517822265625
1759700832508,828843370,13811,26,0.261962890625,0.02899169921875,-0.99615478515625
1759700832508,828843370,13811,27,0.260498046875,0.02728271484375,-0.99493408203125
1759700832508,828843370,13811,28,0.26171875,0.02581787109375,-0.99420166015625
1759700832508,828843370,13811,29,0.263427734375,0.02801513671875,-0.99786376953125
1759700832508,828843370,13811,30,0.26318359375,0.02825927734375,-0.99444580078125
1759700832508,828843370,13811,31,0.2646484375,0.02801513671875,-0.99957275390625
1759700834760,828845943,13812,0,0.261962890625,0.02679443359375,-0.99566650390625
1759700834760,828845943,13812,1,0.266845703125,0.02655029296875,-0.99493408203125
1759700834760,828845943,13812,2,0.2666015625,0.02606201171875,-0.99468994140625
1759700834760,828845943,13812,3,0.26611328125,0.02606201171875,-0.99322509765625
1759700834760,828845943,13812,4,0.266357421875,0.02508544921875,-0.99420166015625
1759700834760,828845943,13812,5,0.267333984375,0.02410888671875,-0.99713134765625
1759700834760,828845943,13812,6,0.2666015625,0.02459716796875,-0.99200439453125
1759700834760,828845943,13812,7,0.265869140625,0.02703857421875,-0.99810791015625
1759700834760,828845943,13812,8,0.26708984375,0.02386474609375,-0.99761962890625
1759700834760,828845943,13812,9,0.2685546875,0.02557373046875,-0.99468994140625
1759700834760,828845943,13812,10,0.269287109375,0.02581787109375,-0.99395751953125
1759700834760,828845943,13812,11,0.26708984375,0.02801513671875,-0.99200439453125
1759700834760,828845943,13812,12,0.26611328125,0.02508544921875,-0.99371337890625
1759700834760,828845943,13812,13,0.267333984375,0.02850341796875,-0.99566650390625
1759700834760,828845943,13812,14,0.264404296875,0.02655029296875,-0.99591064453125
1759700834760,828845943,13812,15,0.26806640625,0.02752685546875,-0.99639892578125
1759700834760,828845943,13812,16,0.265869140625,0.02703857421875,-0.99249267578125
1759700834760,828845943,13812,17,0.267578125,0.02655029296875,-0.99639892578125
1759700834760,828845943,13812,18,0.267578125,0.02655029296875,-0.99542236328125
1759700834760,828845943,13812,19,0.265380859375,0.02728271484375,-0.99468994140625
1759700834760,828845943,13812,20,0.264404296875,0.02703857421875,-0.99053955078125
1759700834760,828845943,13812,21,0.267333984375,0.02655029296875,-0.99053955078125
1759700834760,828845943,13812,22,0.2646484375,0.02630615234375,-0.99444580078125
1759700834760,828845943,13812,23,0.26806640625,0.02728271484375,-0.99298095703125
1759700834760,828845943,13812,24,0.265625,0.02752685546875,-0.99517822265625
1759700834760,828845943,13812,25,0.267822265625,0.02557373046875,-0.99346923828125
1759700834760,828845943,13812,26,0.26611328125,0.02752685546875,-0.99468994140625
1759700834760,828845943,13812,27,0.268310546875,0.02557373046875,-0.99761962890625
1759700834760,828845943,13812,28,0.267578125,0.02752685546875,-0.99786376953125
1759700834760,828845943,13812,29,0.26806640625,0.02728271484375,-0.99591064453125
1759700834760,828845943,13812,30,0.26611328125,0.02655029296875,-0.99542236328125
1759700834760,828845943,13812,31,0.265625,0.02655029296875,-0.99444580078125
1759700837156,828848522,13813,0,0.265380859375,0.02947998046875,-0.99371337890625
1759700837156,828848522,13813,1,0.265869140625,0.02630615234375,-0.99224853515625
1759700837156,828848522,13813,2,0.265380859375,0.02655029296875,-0.99151611328125
1759700837156,828848522,13813,3,0.265625,0.02703857421875,-0.99029541015625
1759700837156,828848522,13813,4,0.265869140625,0.02825927734375,-0.99835205078125
1759700837156,828848522,13813,5,0.2646484375,0.02703857421875,-0.99298095703125
1759700837156,828848522,13813,6,0.265869140625,0.02606201171875,-0.99737548828125
1759700837156,828848522,13813,7,0.265380859375,0.02655029296875,-0.99371337890625
1759700837156,828848522,13813,8,0.265380859375,0.02777099609375,-0.99664306640625
1759700837156,828848522,13813,9,0.262451171875,0.02825927734375,-0.99322509765625
1759700837156,828848522,13813,10,0.265625,0.02972412109375,-0.99664306640625
1759700837156,828848522,13813,11,0.263427734375,0.02630615234375,-0.99395751953125
1759700837156,828848522,13813,12,0.264892578125,0.02996826171875,-0.99371337890625
1759700837156,828848522,13813,13,0.2626953125,0.02899169921875,-0.99346923828125
1759700837156,828848522,13813,14,0.262451171875,0.02899169921875,-0.99737548828125
1759700837156,828848522,13813,15,0.2646484375,0.02947998046875,-0.99468994140625
1759700837156,828848522,13813,16,0.264404296875,0.02777099609375,-0.99835205078125
1759700837156,828848522,13813,17,0.265625,0.02630615234375,-1.00006103515625
1759700837156,828848522,13813,18,0.264892578125,0.02972412109375,-0.99737548828125
1759700837156,828848522,13813,19,0.263671875,0.02703857421875,-0.99932861328125
1759700837156,828848522,13813,20,0.26123046875,0.02703857421875,-0.99395751953125
1759700837156,828848522,13813,21,0.263671875,0.02996826171875,-0.99395751953125
1759700837156,828848522,13813,22,0.263671875,0.02777099609375,-0.99859619140625
1759700837156,828848522,13813,23,0.261962890625,0.02630615234375,-0.99688720703125
1759700837156,828848522,13813,24,0.263916015625,0.02899169921875,-0.99420166015625
1759700837156,828848522,13813,25,0.264404296875,0.02874755859375,-0.99615478515625
1759700837156,828848522,13813,26,0.2626953125,0.02972412109375,-0.99566650390625
1759700837156,828848522,13813,27,0.26025390625,0.02825927734375,-0.99493408203125
1759700837156,828848522,13813,28,0.260498046875,0.03240966796875,-0.99639892578125
1759700837156,828848522,13813,29,0.262939453125,0.03070068359375,-0.99688720703125
1759700837156,828848522,13813,30,0.26171875,0.02947998046875,-1.00006103515625
1759700837156,828848522,13813,31,0.260498046875,0.02850341796875,-0.99664306640625
1759700839858,828851101,13814,0,0.261962890625,0.02874755859375,-0.99835205078125
1759700839858,828851101,13814,1,0.2607421875,0.02679443359375,-0.99761962890625
1759700839858,828851101,13814,2,0.26123046875,0.02825927734375,-0.99493408203125
1759700839858,828851101,13814,3,0.26171875,0.02557373046875,-0.99566650390625
1759700839858,828851101,13814,4,0.26123046875,0.02777099609375,-0.98980712890625
1759700839858,828851101,13814,5,0.2607421875,0.02825927734375,-0.99322509765625
1759700839858,828851101,13814,6,0.26171875,0.02825927734375,-0.99591064453125
1759700839858,828851101,13814,7,0.262451171875,0.02874755859375,-0.99615478515625
1759700839858,828851101,13814,8,0.262939453125,0.02532958984375,-0.98931884765625
1759700839858,828851101,13814,9,0.2646484375,0.02825927734375,-0.99810791015625
1759700839858,828851101,13814,10,0.2646484375,0.02752685546875,-0.99517822265625
1759700839858,828851101,13814,11,0.26171875,0.02825927734375,-0.99102783203125
1759700839858,828851101,13814,12,0.263671875,0.02801513671875,-0.99566650390625
1759700839858,828851101,13814,13,0.26416015625,0.02630615234375,-0.99371337890625
1759700839858,828851101,13814,14,0.26171875,0.02557373046875,-0.99542236328125
1759700839858,828851101,13814,15,0.2626953125,0.02630615234375,-0.99737548828125
1759700839858,828851101,13814,16,0.26220703125,0.02728271484375,-0.99493408203125
1759700839858,828851101,13814,17,0.264404296875,0.02801513671875,-0.99053955078125
1759700839858,828851101,13814,18,0.264404296875,0.02899169921875,-0.99761962890625
1759700839858,828851101,13814,19,0.2626953125,0.02630615234375,-0.99615478515625
1759700839858,828851101,13814,20,0.2626953125,0.02801513671875,-0.99639892578125
1759700839858,828851101,13814,21,0.261962890625,0.02947998046875,-0.99639892578125
1759700839858,828851101,13814,22,0.263671875,0.02606201171875,-0.99810791015625
1759700839858,828851101,13814,23,0.262451171875,0.02679443359375,-0.99395751953125
1759700839858,828851101,13814,24,0.263427734375,0.03045654296875,-0.99517822265625
1759700839858,828851101,13814,25,0.26416015625,0.02899169921875,-0.99664306640625
1759700839858,828851101,13814,26,0.26171875,0.02801513671875,-0.99639892578125
1759700839858,828851101,13814,27,0.26220703125,0.02874755859375,-0.99835205078125
1759700839858,828851101,13814,28,0.26416015625,0.02996826171875,-0.99810791015625
1759700839858,828851101,13814,29,0.262451171875,0.03021240234375,-0.99371337890625
1759700839858,828851101,13814,30,0.262451171875,0.02972412109375,-0.99615478515625
1759700839858,828851101,13814,31,0.26220703125,0.03216552734375,-0.99786376953125
1759700843309,828853680,13815,0,0.26220703125,0.02825927734375,-0.99493408203125
1759700843309,828853680,13815,1,0.2607421875,0.02923583984375,-0.99420166015625
1759700843309,828853680,13815,2,0.26171875,0.03216552734375,-0.99786376953125
1759700843309,828853680,13815,3,0.262939453125,0.02947998046875,-0.99835205078125
1759700843309,828853680,13815,4,0.2607421875,0.03021240234375,-0.99664306640625
1759700843309,828853680,13815,5,0.262939453125,0.03167724609375,-0.99346923828125
1759700843309,828853680,13815,6,0.2607421875,0.03094482421875,-0.99639892578125
1759700843309,828853680,13815,7,0.261962890625,0.03118896484375,-0.99273681640625
1759700843309,828853680,13815,8,0.26123046875,0.02899169921875,-0.99322509765625
1759700843309,828853680,13815,9,0.26318359375,0.02752685546875,-0.99786376953125
1759700843309,828853680,13815,10,0.260986328125,0.02752685546875,-0.99810791015625
1759700843309,828853680,13815,11,0.2578125,0.02801513671875,-0.99639892578125
1759700843309,828853680,13815,12,0.26171875,0.02752685546875,-0.99688720703125
1759700843309,828853680,13815,13,0.262451171875,0.02484130859375,-0.99591064453125
1759700843309,828853680,13815,14,0.264892578125,0.02679443359375,-0.99371337890625
1759700843309,828853680,13815,15,0.265625,0.02508544921875,-0.99688720703125
1759700843309,828853680,13815,16,0.26611328125,0.02703857421875,-0.99713134765625
1759700843309,828853680,13815,17,0.265869140625,0.02899169921875,-0.99493408203125
1759700843309,828853680,13815,18,0.265869140625,0.02752685546875,-0.99127197265625
1759700843309,828853680,13815,19,0.267822265625,0.02557373046875,-0.99566650390625
1759700843309,828853680,13815,20,0.265869140625,0.02777099609375,-0.99493408203125
1759700843309,828853680,13815,21,0.26416015625,0.02557373046875,-0.99395751953125
1759700843309,828853680,13815,22,0.263671875,0.02801513671875,-0.99444580078125
1759700843309,828853680,13815,23,0.264404296875,0.02801513671875,-0.99493408203125
1759700843309,828853680,13815,24,0.262939453125,0.02825927734375,-0.99322509765625
1759700843309,828853680,13815,25,0.265869140625,0.02850341796875,-0.99591064453125
1759700843309,828853680,13815,26,0.263671875,0.02850341796875,-0.99639892578125
1759700843309,828853680,13815,27,0.2646484375,0.02630615234375,-0.99322509765625
1759700843309,828853680,13815,28,0.265380859375,0.02899169921875,-0.99810791015625
1759700843309,828853680,13815,29,0.26513671875,0.03045654296875,-0.99395751953125
1759700843309,828853680,13815,30,0.26416015625,0.02850341796875,-0.99468994140625
1759700843309,828853680,13815,31,0.26318359375,0.02728271484375,-0.99542236328125
1759700844959,828856259,13816,0,0.263427734375,0.02679443359375,-0.99688720703125
1759700844959,828856259,13816,1,0.263427734375,0.02899169921875,-0.99761962890625
1759700844959,828856259,13816,2,0.262939453125,0.02899169921875,-0.99566650390625
1759700844959,828856259,13816,3,0.26220703125,0.02752685546875,-0.99615478515625
1759700844959,828856259,13816,4,0.262939453125,0.02777099609375,-0.99664306640625
1759700844959,828856259,13816,5,0.2626953125,0.03070068359375,-0.99493408203125
1759700844959,828856259,13816,6,0.26318359375,0.02972412109375,-0.99322509765625
1759700844959,828856259,13816,7,0.262939453125,0.02972412109375,-0.99444580078125
1759700844959,828856259,13816,8,0.26220703125,0.02899169921875,-0.99322509765625
1759700844959,828856259,13816,9,0.260986328125,0.02874755859375,-0.99517822265625
1759700844959,828856259,13816,10,0.261474609375,0.02923583984375,-0.99639892578125
1759700844959,828856259,13816,11,0.26220703125,0.02703857421875,-0.99444580078125
1759700844959,828856259,13816,12,0.263427734375,0.02825927734375,-0.99517822265625
1759700844959,828856259,13816,13,0.2626953125,0.02850341796875,-0.99591064453125
1759700844959,828856259,13816,14,0.26318359375,0.02752685546875,-0.99786376953125
1759700844959,828856259,13816,15,0.26171875,0.03045654296875,-0.99688720703125
1759700844959,828856259,13816,16,0.261962890625,0.02850341796875,-0.99713134765625
1759700844959,828856259,13816,17,0.261474609375,0.02801513671875,-0.99493408203125
1759700844959,828856259,13816,18,0.26171875,0.02947998046875,-0.99615478515625
1759700844959,828856259,13816,19,0.262451171875,0.02874755859375,-0.99664306640625
1759700844959,828856259,13816,20,0.260986328125,0.03021240234375,-0.99493408203125
1759700844959,828856259,13816,21,0.261474609375,0.03118896484375,-0.99322509765625
1759700844959,828856259,13816,22,0.26171875,0.03021240234375,-0.99737548828125
1759700844959,828856259,13816,23,0.259765625,0.02874755859375,-0.99761962890625
1759700844959,828856259,13816,24,0.26220703125,0.02825927734375,-0.99664306640625
1759700844959,828856259,13816,25,0.26220703125,0.02874755859375,-0.99468994140625
1759700844959,828856259,13816,26,0.259765625,0.03094482421875,-0.99664306640625
1759700844959,828856259,13816,27,0.25830078125,0.02874755859375,-0.99664306640625
1759700844959,828856259,13816,28,0.25830078125,0.03094482421875,-0.99932861328125
1759700844959,828856259,13816,29,0.259033203125,0.02899169921875,-0.99932861328125
1759700844959,828856259,13816,30,0.25830078125,0.02777099609375,-0.99639892578125
1759700844959,828856259,13816,31,0.25927734375,0.02850341796875,-0.99664306640625
1759700847806,828858838,13817,0,0.259033203125,0.02899169921875,-0.99713134765625
1759700847806,828858838,13817,1,0.259765625,0.03021240234375,-0.99761962890625
1759700847806,828858838,13817,2,0.259521484375,0.02899169921875,-0.99908447265625
1759700847806,828858838,13817,3,0.259521484375,0.03021240234375,-0.99615478515625
1759700847806,828858838,13817,4,0.2587890625,0.02703857421875,-0.99517822265625
1759700847806,828858838,13817,5,0.25927734375,0.02752685546875,-0.99542236328125
1759700847806,828858838,13817,6,0.26123046875,0.02850341796875,-0.99786376953125
1759700847806,828858838,13817,7,0.26123046875,0.02850341796875,-0.99761962890625
1759700847806,828858838,13817,8,0.26220703125,0.02655029296875,-0.99664306640625
1759700847806,828858838,13817,9,0.263671875,0.02581787109375,-0.99346923828125
1759700847806,828858838,13817,10,0.26416015625,0.02899169921875,-0.99468994140625
1759700847806,828858838,13817,11,0.2666015625,0.02801513671875,-0.99664306640625
1759700847806,828858838,13817,12,0.26220703125,0.02825927734375,-0.99200439453125
1759700847806,828858838,13817,13,0.264404296875,0.02777099609375,-0.99542236328125
1759700847806,828858838,13817,14,0.26611328125,0.03094482421875,-0.99908447265625
1759700847806,828858838,13817,15,0.262939453125,0.02825927734375,-0.99444580078125
1759700847806,828858838,13817,16,0.26318359375,0.03143310546875,-0.99786376953125
1759700847806,828858838,13817,17,0.263916015625,0.02801513671875,-0.99468994140625
1759700847806,828858838,13817,18,0.261474609375,0.03021240234375,-0.99615478515625
1759700847806,828858838,13817,19,0.264404296875,0.02947998046875,-0.99615478515625
1759700847806,828858838,13817,20,0.263427734375,0.02874755859375,-0.99346923828125
1759700847806,828858838,13817,21,0.261962890625,0.02899169921875,-0.99615478515625
1759700847806,828858838,13817,22,0.262451171875,0.02581787109375,-0.99591064453125
1759700847806,828858838,13817,23,0.261474609375,0.02947998046875,-0.99395751953125
1759700847806,828858838,13817,24,0.262451171875,0.02972412109375,-0.99517822265625
1759700847806,828858838,13817,25,0.26318359375,0.02777099609375,-0.99932861328125
1759700847806,828858838,13817,26,0.261962890625,0.02825927734375,-0.99468994140625
1759700847806,828858838,13817,27,0.262939453125,0.02923583984375,-0.99639892578125
1759700847806,828858838,13817,28,0.26318359375,0.03118896484375,-0.99908447265625
1759700847806,828858838,13817,29,0.26025390625,0.03118896484375,-0.99688720703125
1759700847806,828858838,13817,30,0.262451171875,0.03070068359375,-0.99566650390625
1759700847806,828858838,13817,31,0.262939453125,0.02947998046875,-0.99908447265625
1759700850059,828861417,13818,0,0.262451171875,0.02655029296875,-0.99786376953125
1759700850059,828861417,13818,1,0.26318359375,0.02850341796875,-0.99542236328125
1759700850059,828861417,13818,2,0.263671875,0.02996826171875,-0.99298095703125
1759700850059,828861417,13818,3,0.26025390625,0.02679443359375,-0.99786376953125
1759700850059,828861417,13818,4,0.26171875,0.02923583984375,-0.99395751953125
1759700850059,828861417,13818,5,0.26171875,0.03045654296875,-0.99664306640625
1759700850059,828861417,13818,6,0.262451171875,0.03045654296875,-0.99468994140625
1759700850059,828861417,13818,7,0.26123046875,0.03045654296875,-0.99444580078125
1759700850059,828861417,13818,8,0.26220703125,0.03070068359375,-0.99981689453125
1759700850059,828861417,13818,9,0.2607421875,0.03167724609375,-0.99200439453125
1759700850059,828861417,13818,10,0.26025390625,0.03118896484375,-0.99884033203125
1759700850059,828861417,13818,11,0.262939453125,0.02947998046875,-0.99664306640625
1759700850059,828861417,13818,12,0.2607421875,0.02874755859375,-0.99273681640625
1759700850059,828861417,13818,13,0.261962890625,0.02947998046875,-0.99688720703125
1759700850059,828861417,13818,14,0.26171875,0.03021240234375,-0.99395751953125
1759700850059,828861417,13818,15,0.25927734375,0.02801513671875,-0.99761962890625
1759700850059,828861417,13818,16,0.2607421875,0.03021240234375,-0.99273681640625
1759700850059,828861417,13818,17,0.2607421875,0.03118896484375,-0.99615478515625
1759700850059,828861417,13818,18,0.259521484375,0.03045654296875,-0.99591064453125
1759700850059,828861417,13818,19,0.26025390625,0.02947998046875,-0.99542236328125
1759700850059,828861417,13818,20,0.26123046875,0.03070068359375,-0.99761962890625
1759700850059,828861417,13818,21,0.26025390625,0.03167724609375,-0.99639892578125
1759700850059,828861417,13818,22,0.260009765625,0.03314208984375,-0.99786376953125
1759700850059,828861417,13818,23,0.25927734375,0.03240966796875,-0.99761962890625
1759700850059,828861417,13818,24,0.260498046875,0.03143310546875,-0.99713134765625
1759700850059,828861417,13818,25,0.259765625,0.02996826171875,-0.99591064453125
1759700850059,828861417,13818,26,0.257568359375,0.03167724609375,-0.99591064453125
1759700850059,828861417,13818,27,0.25927734375,0.02923583984375,-1.00079345703125
1759700850059,828861417,13818,28,0.255859375,0.03265380859375,-0.99884033203125
1759700850059,828861417,13818,29,0.255859375,0.02923583984375,-0.99444580078125
1759700850059,828861417,13818,30,0.258056640625,0.03143310546875,-0.99835205078125
1759700850059,828861417,13818,31,0.257080078125,0.03338623046875,-0.99664306640625
1759700852459,828863997,13819,0,0.256591796875,0.03216552734375,-0.99908447265625
1759700852459,828863997,13819,1,0.257568359375,0.03118896484375,-0.99908447265625
1759700852459,828863997,13819,2,0.2587890625,0.02996826171875,-0.99835205078125
1759700852459,828863997,13819,3,0.260498046875,0.03094482421875,-0.99493408203125
1759700852459,828863997,13819,4,0.260986328125,0.02947998046875,-0.99468994140625
1759700852459,828863997,13819,5,0.26025390625,0.03045654296875,-0.99639892578125
1759700852459,828863997,13819,6,0.256591796875,0.02801513671875,-0.99542236328125
1759700852459,828863997,13819,7,0.259521484375,0.02728271484375,-0.99639892578125
1759700852459,828863997,13819,8,0.260498046875,0.02972412109375,-0.99908447265625
1759700852459,828863997,13819,9,0.259765625,0.02801513671875,-0.99224853515625
1759700852459,828863997,13819,10,0.26220703125,0.02679443359375,-0.99566650390625
1759700852459,828863997,13819,11,0.261474609375,0.02679443359375,-0.99615478515625
1759700852459,828863997,13819,12,0.260009765625,0.02825927734375,-0.99493408203125
1759700852459,828863997,13819,13,0.2646484375,0.02557373046875,-0.99566650390625
1759700852459,828863997,13819,14,0.26220703125,0.02777099609375,-0.99493408203125
1759700852459,828863997,13819,15,0.262451171875,0.02581787109375,-0.99664306640625
1759700852459,828863997,13819,16,0.2646484375,0.02728271484375,-0.99713134765625
1759700852459,828863997,13819,17,0.263671875,0.02484130859375,-0.99444580078125
1759700852459,828863997,13819,18,0.2646484375,0.02459716796875,-0.99859619140625
1759700852459,828863997,13819,19,0.266845703125,0.02435302734375,-0.99322509765625
1759700852459,828863997,13819,20,0.2666015625,0.02239990234375,-0.99468994140625
1759700852459,828863997,13819,21,0.26708984375,0.02532958984375,-0.98858642578125
1759700852459,828863997,13819,22,0.271728515625,0.02508544921875,-0.99761962890625
1759700852459,828863997,13819,23,0.274658203125,0.02166748046875,-0.99737548828125
1759700852459,828863997,13819,24,0.271240234375,0.02313232421875,-0.99005126953125
1759700852459,828863997,13819,25,0.27197265625,0.02532958984375,-0.99517822265625
1759700852459,828863997,13819,26,0.267822265625,0.02410888671875,-0.99517822265625
1759700852459,828863997,13819,27,0.270263671875,0.02288818359375,-0.99298095703125
1759700852459,828863997,13819,28,0.271728515625,0.02362060546875,-0.99249267578125
1759700852459,828863997,13819,29,0.26953125,0.02557373046875,-0.98907470703125
1759700852459,828863997,13819,30,0.27001953125,0.02362060546875,-0.99151611328125
1759700852459,828863997,13819,31,0.269287109375,0.02264404296875,-0.99566650390625
1759700855461,828866576,13820,0,0.26904296875,0.02459716796875,-0.99151611328125
1759700855461,828866576,13820,1,0.2724609375,0.02630615234375,-0.99420166015625
1759700855461,828866576,13820,2,0.2685546875,0.02362060546875,-0.99810791015625
1759700855461,828866576,13820,3,0.269775390625,0.02459716796875,-0.99639892578125
1759700855461,828866576,13820,4,0.26904296875,0.02435302734375,-0.99395751953125
1759700855461,828866576,13820,5,0.268310546875,0.02264404296875,-0.99761962890625
1759700855461,828866576,13820,6,0.267822265625,0.02337646484375,-0.99688720703125
1759700855461,828866576,13820,7,0.267822265625,0.02386474609375,-0.99468994140625
1759700855461,828866576,13820,8,0.268798828125,0.02435302734375,-0.99200439453125
1759700855461,828866576,13820,9,0.2685546875,0.02435302734375,-0.99078369140625
1759700855461,828866576,13820,10,0.268310546875,0.02655029296875,-0.99346923828125
1759700855461,828866576,13820,11,0.26953125,0.02459716796875,-0.99664306640625
1759700855461,828866576,13820,12,0.268310546875,0.02386474609375,-0.99420166015625
1759700855461,828866576,13820,13,0.267333984375,0.02484130859375,-0.99542236328125
1759700855461,828866576,13820,14,0.265380859375,0.02508544921875,-0.99420166015625
1759700855461,828866576,13820,15,0.2666015625,0.02557373046875,-0.99542236328125
1759700855461,828866576,13820,16,0.267822265625,0.02459716796875,-0.99517822265625
1759700855461,828866576,13820,17,0.2666015625,0.02630615234375,-0.99273681640625
1759700855461,828866576,13820,18,0.262451171875,0.02386474609375,-0.99273681640625
1759700855461,828866576,13820,19,0.265869140625,0.02435302734375,-0.99639892578125
1759700855461,828866576,13820,20,0.26513671875,0.02435302734375,-0.99542236328125
1759700855461,828866576,13820,21,0.266357421875,0.02557373046875,-0.99346923828125
1759700855461,828866576,13820,22,0.2666015625,0.02508544921875,-0.99517822265625
1759700855461,828866576,13820,23,0.265869140625,0.02532958984375,-0.99346923828125
1759700855461,828866576,13820,24,0.266845703125,0.02655029296875,-0.99346923828125
1759700855461,828866576,13820,25,0.267333984375,0.02557373046875,-0.99566650390625
1759700855461,828866576,13820,26,0.26611328125,0.02386474609375,-0.99322509765625
1759700855461,828866576,13820,27,0.263427734375,0.02313232421875,-0.99566650390625
1759700855461,828866576,13820,28,0.264404296875,0.02630615234375,-0.99737548828125
1759700855461,828866576,13820,29,0.2646484375,0.02703857421875,-0.99786376953125
1759700855461,828866576,13820,30,0.267822265625,0.02679443359375,-0.99420166015625
1759700855461,828866576,13820,31,0.265380859375,0.02728271484375,-0.99371337890625
1759700857709,828869155,13821,0,0.263427734375,0.02728271484375,-0.99761962890625
1759700857709,828869155,13821,1,0.2646484375,0.02703857421875,-0.99761962890625
1759700857709,828869155,13821,2,0.26318359375,0.02801513671875,-0.99444580078125
1759700857709,828869155,13821,3,0.26416015625,0.02655029296875,-0.99639892578125
1759700857709,828869155,13821,4,0.264404296875,0.02825927734375,-0.99786376953125
1759700857709,828869155,13821,5,0.263671875,0.02679443359375,-0.99517822265625
1759700857709,828869155,13821,6,0.263427734375,0.02703857421875,-0.99566650390625
1759700857709,828869155,13821,7,0.2646484375,0.02679443359375,-0.99639892578125
1759700857709,828869155,13821,8,0.26171875,0.02728271484375,-0.99200439453125
1759700857709,828869155,13821,9,0.262939453125,0.02777099609375,-0.99298095703125
1759700857709,828869155,13821,10,0.26513671875,0.02752685546875,-0.99517822265625
1759700857709,828869155,13821,11,0.26416015625,0.02606201171875,-0.99566650390625
1759700857709,828869155,13821,12,0.26318359375,0.02679443359375,-0.99835205078125
1759700857709,828869155,13821,13,0.261474609375,0.02728271484375,-0.99420166015625
1759700857709,828869155,13821,14,0.26123046875,0.02703857421875,-0.99639892578125
1759700857709,828869155,13821,15,0.26318359375,0.02655029296875,-0.99810791015625
1759700857709,828869155,13821,16,0.262451171875,0.02655029296875,-0.99688720703125
1759700857709,828869155,13821,17,0.262451171875,0.02923583984375,-0.99591064453125
1759700857709,828869155,13821,18,0.26318359375,0.02728271484375,-0.99859619140625
1759700857709,828869155,13821,19,0.261962890625,0.02752685546875,-0.99713134765625
1759700857709,828869155,13821,20,0.26123046875,0.02777099609375,-0.99688720703125
1759700857709,828869155,13821,21,0.260498046875,0.02703857421875,-0.99420166015625
1759700857709,828869155,13821,22,0.26025390625,0.02923583984375,-0.99542236328125
1759700857709,828869155,13821,23,0.259765625,0.02947998046875,-0.99737548828125
1759700857709,828869155,13821,24,0.26171875,0.02801513671875,-0.99517822265625
1759700857709,828869155,13821,25,0.261474609375,0.02777099609375,-0.99566650390625
1759700857709,828869155,13821,26,0.259033203125,0.03045654296875,-0.99420166015625
1759700857709,828869155,13821,27,0.262451171875,0.03045654296875,-0.99688720703125
1759700857709,828869155,13821,28,0.26171875,0.02972412109375,-0.99615478515625
1759700857709,828869155,13821,29,0.26025390625,0.02777099609375,-0.99322509765625
1759700857709,828869155,13821,30,0.26318359375,0.03143310546875,-0.99517822265625
1759700857709,828869155,13821,31,0.2626953125,0.03045654296875,-0.99493408203125
1759700860259,828871734,13822,0,0.26171875,0.02899169921875,-0.99224853515625
1759700860259,828871734,13822,1,0.26220703125,0.02996826171875,-0.99859619140625
1759700860259,828871734,13822,2,0.261962890625,0.02825927734375,-0.99688720703125
1759700860259,828871734,13822,3,0.261962890625,0.02850341796875,-0.99493408203125
1759700860259,828871734,13822,4,0.262939453125,0.02996826171875,-0.99468994140625
1759700860259,828871734,13822,5,0.260009765625,0.03070068359375,-0.99810791015625
1759700860259,828871734,13822,6,0.260986328125,0.02972412109375,-0.99761962890625
1759700860259,828871734,13822,7,0.262939453125,0.02972412109375,-0.99786376953125
1759700860259,828871734,13822,8,0.26318359375,0.03143310546875,-0.99444580078125
1759700860259,828871734,13822,9,0.26318359375,0.03118896484375,-0.99713134765625
1759700860259,828871734,13822,10,0.261474609375,0.02825927734375,-0.99444580078125
1759700860259,828871734,13822,11,0.2626953125,0.02825927734375,-0.99688720703125
1759700860259,828871734,13822,12,0.26220703125,0.02996826171875,-0.99859619140625
1759700860259,828871734,13822,13,0.26123046875,0.02972412109375,-0.99664306640625
1759700860259,828871734,13822,14,0.2607421875,0.02923583984375,-0.99639892578125
1759700860259,828871734,13822,15,0.26123046875,0.02972412109375,-0.99517822265625
1759700860259,828871734,13822,16,0.260986328125,0.02825927734375,-0.99468994140625
1759700860259,828871734,13822,17,0.260986328125,0.03045654296875,-0.99444580078125
1759700860259,828871734,13822,18,0.260009765625,0.03289794921875,-0.99395751953125
1759700860259,828871734,13822,19,0.260986328125,0.02850341796875,-0.99517822265625
1759700860259,828871734,13822,20,0.260986328125,0.02972412109375,-0.99273681640625
1759700860259,828871734,13822,21,0.25927734375,0.02874755859375,-0.99908447265625
1759700860259,828871734,13822,22,0.260498046875,0.03070068359375,-0.99566650390625
1759700860259,828871734,13822,23,0.26123046875,0.02825927734375,-0.99468994140625
1759700860259,828871734,13822,24,0.2607421875,0.02777099609375,-0.99713134765625
1759700860259,828871734,13822,25,0.26171875,0.02899169921875,-0.99786376953125
1759700860259,828871734,13822,26,0.26025390625,0.02947998046875,-0.99835205078125
