receivedPhoneTimestamp,respeckTimestamp,packetSeqNum,sampleSeqNum,accelX,accelY,accelZ
1760044373352,1175272000,14975,29,-0.029052734375,-0.97637939453125,-0.27398681640625
1760044373352,1175272000,14975,30,-0.034423828125,-0.97369384765625,-0.27105712890625
1760044373352,1175272000,14975,31,-0.022705078125,-0.98370361328125,-0.29156494140625
1760044375883,1175274555,14976,0,-0.027587890625,-0.97711181640625,-0.28033447265625
1760044375883,1175274555,14976,1,-0.03564453125,-0.97979736328125,-0.27008056640625
1760044375883,1175274555,14976,2,-0.033203125,-0.97857666015625,-0.26861572265625
1760044375883,1175274555,14976,3,-0.033935546875,-0.98052978515625,-0.28228759765625
1760044375883,1175274555,14976,4,-0.02880859375,-0.97784423828125,-0.28594970703125
1760044375883,1175274555,14976,5,-0.03466796875,-0.97930908203125,-0.27374267578125
1760044375883,1175274555,14976,6,-0.038818359375,-0.98345947265625,-0.26446533203125
1760044375883,1175274555,14976,7,-0.042724609375,-0.98370361328125,-0.25714111328125
1760044375883,1175274555,14976,8,-0.0322265625,-0.98052978515625,-0.27227783203125
1760044375883,1175274555,14976,9,-0.037353515625,-0.98321533203125,-0.26348876953125
1760044375883,1175274555,14976,10,-0.03857421875,-0.98052978515625,-0.26080322265625
1760044375883,1175274555,14976,11,-0.038818359375,-0.98150634765625,-0.25933837890625
1760044375883,1175274555,14976,12,-0.033447265625,-0.98248291015625,-0.27056884765625
1760044375883,1175274555,14976,13,-0.04052734375,-0.98150634765625,-0.26568603515625
1760044375883,1175274555,14976,14,-0.035888671875,-0.98126220703125,-0.26080322265625
1760044375883,1175274555,14976,15,-0.043212890625,-0.98468017578125,-0.26055908203125
1760044375883,1175274555,14976,16,-0.04052734375,-0.98052978515625,-0.26300048828125
1760044375883,1175274555,14976,17,-0.043212890625,-0.98297119140625,-0.25225830078125
1760044375883,1175274555,14976,18,-0.0478515625,-0.98712158203125,-0.25738525390625
1760044375883,1175274555,14976,19,-0.045166015625,-0.98541259765625,-0.24566650390625
1760044375883,1175274555,14976,20,-0.044677734375,-0.98516845703125,-0.24810791015625
1760044375883,1175274555,14976,21,-0.04541015625,-0.98345947265625,-0.24884033203125
1760044375883,1175274555,14976,22,-0.044677734375,-0.98516845703125,-0.24322509765625
1760044375883,1175274555,14976,23,-0.04248046875,-0.98834228515625,-0.23687744140625
1760044375883,1175274555,14976,24,-0.0478515625,-0.98760986328125,-0.23394775390625
1760044375883,1175274555,14976,25,-0.03564453125,-0.97247314453125,-0.27862548828125
1760044375883,1175274555,14976,26,-0.036865234375,-0.98468017578125,-0.26544189453125
1760044375883,1175274555,14976,27,-0.020263671875,-0.97833251953125,-0.30426025390625
1760044375883,1175274555,14976,28,-0.035400390625,-0.98150634765625,-0.27056884765625
1760044375883,1175274555,14976,29,-0.022216796875,-0.98297119140625,-0.29400634765625
1760044375883,1175274555,14976,30,0.001708984375,-0.96417236328125,-0.27740478515625
1760044375883,1175274555,14976,31,0.001708984375,-0.97711181640625,-0.32135009765625
1760044378614,1175277110,14977,0,0.009765625,-0.97247314453125,-0.29132080078125
1760044378614,1175277110,14977,1,-0.006591796875,-0.97515869140625,-0.29156494140625
1760044378614,1175277110,14977,2,-0.009765625,-0.97857666015625,-0.28619384765625
1760044378614,1175277110,14977,3,-0.019287109375,-0.98541259765625,-0.25860595703125
1760044378614,1175277110,14977,4,-0.0234375,-0.98077392578125,-0.23687744140625
1760044378614,1175277110,14977,5,-0.021484375,-0.98980712890625,-0.26959228515625
1760044378614,1175277110,14977,6,-0.020751953125,-0.97882080078125,-0.23956298828125
1760044378614,1175277110,14977,7,-0.02197265625,-0.99127197265625,-0.27056884765625
1760044378614,1175277110,14977,8,-0.021240234375,-0.97711181640625,-0.25030517578125
1760044378614,1175277110,14977,9,-0.0224609375,-0.98760986328125,-0.26129150390625
1760044378614,1175277110,14977,10,-0.021728515625,-0.98638916015625,-0.26080322265625
1760044378614,1175277110,14977,11,-0.021484375,-0.97955322265625,-0.26226806640625
1760044378614,1175277110,14977,12,-0.02197265625,-0.97149658203125,-0.26568603515625
1760044378614,1175277110,14977,13,-0.01953125,-0.98663330078125,-0.27618408203125
1760044378614,1175277110,14977,14,-0.02099609375,-0.99127197265625,-0.27056884765625
1760044378614,1175277110,14977,15,-0.023681640625,-0.97613525390625,-0.26788330078125
1760044378614,1175277110,14977,16,-0.01953125,-0.97808837890625,-0.26251220703125
1760044378614,1175277110,14977,17,-0.018798828125,-0.98028564453125,-0.28131103515625
1760044378614,1175277110,14977,18,-0.015625,-0.98028564453125,-0.28057861328125
1760044378614,1175277110,14977,19,-0.025390625,-0.98712158203125,-0.27056884765625
1760044378614,1175277110,14977,20,-0.022216796875,-0.97491455078125,-0.26837158203125
1760044378614,1175277110,14977,21,-0.021728515625,-0.98370361328125,-0.27471923828125
1760044378614,1175277110,14977,22,-0.022705078125,-0.97637939453125,-0.28302001953125
1760044378614,1175277110,14977,23,-0.0244140625,-0.97979736328125,-0.27667236328125
1760044378614,1175277110,14977,24,-0.023681640625,-0.98370361328125,-0.26324462890625
1760044378614,1175277110,14977,25,-0.027587890625,-0.98028564453125,-0.26959228515625
1760044378614,1175277110,14977,26,-0.02197265625,-0.97906494140625,-0.27716064453125
1760044378614,1175277110,14977,27,-0.0244140625,-0.97760009765625,-0.28131103515625
1760044378614,1175277110,14977,28,-0.026123046875,-0.98468017578125,-0.27154541015625
1760044378614,1175277110,14977,29,-0.026611328125,-0.97735595703125,-0.27032470703125
1760044378614,1175277110,14977,30,-0.025146484375,-0.98443603515625,-0.27398681640625
1760044378614,1175277110,14977,31,-0.02978515625,-0.98297119140625,-0.26641845703125
1760044381147,1175279665,14978,0,-0.024658203125,-0.97589111328125,-0.27569580078125
1760044381147,1175279665,14978,1,-0.030517578125,-0.98126220703125,-0.26519775390625
1760044381147,1175279665,14978,2,-0.027587890625,-0.98760986328125,-0.26934814453125
1760044381147,1175279665,14978,3,-0.028076171875,-0.97906494140625,-0.26959228515625
1760044381147,1175279665,14978,4,-0.02685546875,-0.97662353515625,-0.26885986328125
1760044381147,1175279665,14978,5,-0.0361328125,-0.98956298828125,-0.25006103515625
1760044381147,1175279665,14978,6,-0.0419921875,-0.98590087890625,-0.23687744140625
1760044381147,1175279665,14978,7,-0.032470703125,-0.98541259765625,-0.25445556640625
1760044381147,1175279665,14978,8,-0.03759765625,-0.98077392578125,-0.25152587890625
1760044381147,1175279665,14978,9,-0.034912109375,-0.99005126953125,-0.24395751953125
1760044381147,1175279665,14978,10,-0.04541015625,-0.98638916015625,-0.23199462890625
1760044381147,1175279665,14978,11,-0.036376953125,-0.99346923828125,-0.25421142578125
1760044381147,1175279665,14978,12,-0.0390625,-0.98077392578125,-0.24298095703125
1760044381147,1175279665,14978,13,-0.0400390625,-0.98785400390625,-0.24591064453125
1760044381147,1175279665,14978,14,-0.04296875,-0.98516845703125,-0.23956298828125
1760044381147,1175279665,14978,15,-0.04052734375,-0.98809814453125,-0.24200439453125
1760044381147,1175279665,14978,16,-0.0458984375,-0.98590087890625,-0.24053955078125
1760044381147,1175279665,14978,17,-0.03955078125,-0.98468017578125,-0.23834228515625
1760044381147,1175279665,14978,18,-0.042724609375,-0.99200439453125,-0.23272705078125
1760044381147,1175279665,14978,19,-0.0419921875,-0.98785400390625,-0.23956298828125
1760044381147,1175279665,14978,20,-0.0439453125,-0.98565673828125,-0.22833251953125
1760044381147,1175279665,14978,21,-0.04296875,-0.99810791015625,-0.23931884765625
1760044381147,1175279665,14978,22,-0.052001953125,-0.97564697265625,-0.20416259765625
1760044381147,1175279665,14978,23,-0.037353515625,-0.99517822265625,-0.22686767578125
1760044381147,1175279665,14978,24,-0.03955078125,-0.98809814453125,-0.25030517578125
1760044381147,1175279665,14978,25,-0.040771484375,-0.98980712890625,-0.23785400390625
1760044381147,1175279665,14978,26,-0.04443359375,-0.97906494140625,-0.22808837890625
1760044381147,1175279665,14978,27,-0.042724609375,-0.98760986328125,-0.23370361328125
1760044381147,1175279665,14978,28,-0.04345703125,-0.99395751953125,-0.23004150390625
1760044381147,1175279665,14978,29,-0.04248046875,-0.98492431640625,-0.23468017578125
1760044381147,1175279665,14978,30,-0.0498046875,-0.98712158203125,-0.21832275390625
1760044381147,1175279665,14978,31,-0.0439453125,-0.99151611328125,-0.22052001953125
1760044383686,1175282220,14979,0,-0.046875,-0.99151611328125,-0.23028564453125
1760044383686,1175282220,14979,1,-0.04150390625,-0.98785400390625,-0.21612548828125
1760044383686,1175282220,14979,2,-0.044677734375,-0.98614501953125,-0.22149658203125
1760044383686,1175282220,14979,3,-0.0419921875,-0.99322509765625,-0.21392822265625
1760044383686,1175282220,14979,4,-0.05224609375,-0.99688720703125,-0.21368408203125
1760044383686,1175282220,14979,5,-0.04443359375,-0.98126220703125,-0.22955322265625
1760044383686,1175282220,14979,6,-0.035400390625,-0.97808837890625,-0.25738525390625
1760044383686,1175282220,14979,7,-0.019287109375,-0.98272705078125,-0.30108642578125
1760044383686,1175282220,14979,8,-0.016357421875,-0.96612548828125,-0.33917236328125
1760044383686,1175282220,14979,9,-0.01025390625,-0.97247314453125,-0.31451416015625
1760044383686,1175282220,14979,10,-0.0087890625,-0.96734619140625,-0.31719970703125
1760044383686,1175282220,14979,11,-0.0078125,-0.96246337890625,-0.30352783203125
1760044383686,1175282220,14979,12,-0.01513671875,-0.97613525390625,-0.31475830078125
1760044383686,1175282220,14979,13,-0.015625,-0.98199462890625,-0.30133056640625
1760044383686,1175282220,14979,14,-0.019775390625,-0.97027587890625,-0.28863525390625
1760044383686,1175282220,14979,15,-0.01171875,-0.96856689453125,-0.29840087890625
1760044383686,1175282220,14979,16,-0.014892578125,-0.97735595703125,-0.30743408203125
1760044383686,1175282220,14979,17,-0.01123046875,-0.97930908203125,-0.29351806640625
1760044383686,1175282220,14979,18,-0.01123046875,-0.97076416015625,-0.28863525390625
1760044383686,1175282220,14979,19,-0.020751953125,-0.97393798828125,-0.29351806640625
1760044383686,1175282220,14979,20,-0.01611328125,-0.97613525390625,-0.29547119140625
1760044383686,1175282220,14979,21,-0.019775390625,-0.97686767578125,-0.30108642578125
1760044383686,1175282220,14979,22,-0.020751953125,-0.97662353515625,-0.28521728515625
1760044383686,1175282220,14979,23,-0.01611328125,-0.97052001953125,-0.28253173828125
1760044383686,1175282220,14979,24,-0.015380859375,-0.97833251953125,-0.28839111328125
1760044383686,1175282220,14979,25,-0.01708984375,-0.98077392578125,-0.28619384765625
1760044383686,1175282220,14979,26,-0.018798828125,-0.97833251953125,-0.28350830078125
1760044383686,1175282220,14979,27,-0.028076171875,-0.98541259765625,-0.26348876953125
1760044383686,1175282220,14979,28,-0.019775390625,-0.97467041015625,-0.27716064453125
1760044383686,1175282220,14979,29,-0.022705078125,-0.98248291015625,-0.27862548828125
1760044383686,1175282220,14979,30,-0.017333984375,-0.98199462890625,-0.26617431640625
1760044383686,1175282220,14979,31,-0.02783203125,-0.98272705078125,-0.25518798828125
1760044386221,1175284775,14980,0,-0.026123046875,-0.98541259765625,-0.26007080078125
1760044386221,1175284775,14980,1,-0.026123046875,-0.97857666015625,-0.26934814453125
1760044386221,1175284775,14980,2,-0.02587890625,-0.98052978515625,-0.26641845703125
1760044386221,1175284775,14980,3,-0.030517578125,-0.98223876953125,-0.26300048828125
1760044386221,1175284775,14980,4,-0.025390625,-0.98223876953125,-0.26763916015625
1760044386221,1175284775,14980,5,-0.02978515625,-0.98199462890625,-0.25714111328125
1760044386221,1175284775,14980,6,-0.028076171875,-0.98370361328125,-0.26519775390625
1760044386221,1175284775,14980,7,-0.0263671875,-0.98248291015625,-0.25543212890625
1760044386221,1175284775,14980,8,-0.02490234375,-0.98272705078125,-0.26202392578125
1760044386221,1175284775,14980,9,-0.025146484375,-0.98321533203125,-0.25347900390625
1760044386221,1175284775,14980,10,-0.03759765625,-0.99005126953125,-0.24322509765625
1760044386221,1175284775,14980,11,-0.0341796875,-0.98297119140625,-0.24224853515625
1760044386221,1175284775,14980,12,-0.030517578125,-0.98492431640625,-0.24688720703125
1760044386221,1175284775,14980,13,-0.0361328125,-0.99078369140625,-0.24615478515625
1760044386221,1175284775,14980,14,-0.030517578125,-0.98492431640625,-0.24688720703125
1760044386221,1175284775,14980,15,-0.038330078125,-0.98468017578125,-0.23883056640625
1760044386221,1175284775,14980,16,-0.031494140625,-0.98883056640625,-0.24884033203125
1760044386221,1175284775,14980,17,-0.038330078125,-0.98565673828125,-0.24200439453125
1760044386221,1175284775,14980,18,-0.037841796875,-0.98663330078125,-0.24371337890625
1760044386221,1175284775,14980,19,-0.03125,-0.98150634765625,-0.24444580078125
1760044386221,1175284775,14980,20,-0.037353515625,-0.99176025390625,-0.23492431640625
1760044386221,1175284775,14980,21,-0.026611328125,-0.98492431640625,-0.25494384765625
1760044386221,1175284775,14980,22,-0.028076171875,-0.98248291015625,-0.24664306640625
1760044386221,1175284775,14980,23,-0.038330078125,-0.98785400390625,-0.24371337890625
1760044386221,1175284775,14980,24,-0.036865234375,-0.98590087890625,-0.24151611328125
1760044386221,1175284775,14980,25,-0.0400390625,-0.98785400390625,-0.24249267578125
1760044386221,1175284775,14980,26,-0.03076171875,-0.98785400390625,-0.24542236328125
1760044386221,1175284775,14980,27,-0.037109375,-0.98541259765625,-0.24322509765625
1760044386221,1175284775,14980,28,-0.033203125,-0.98541259765625,-0.23907470703125
1760044386221,1175284775,14980,29,-0.037109375,-0.98760986328125,-0.24322509765625
1760044386221,1175284775,14980,30,-0.033447265625,-0.99053955078125,-0.24176025390625
1760044386221,1175284775,14980,31,-0.034912109375,-0.98443603515625,-0.25103759765625
1760044388711,1175287330,14981,0,-0.0302734375,-0.97808837890625,-0.24542236328125
1760044388711,1175287330,14981,1,-0.032958984375,-0.99176025390625,-0.25128173828125
1760044388711,1175287330,14981,2,-0.039794921875,-0.98199462890625,-0.25421142578125
1760044388711,1175287330,14981,3,-0.0400390625,-0.98126220703125,-0.25054931640625
1760044388711,1175287330,14981,4,-0.04052734375,-0.98150634765625,-0.26593017578125
1760044388711,1175287330,14981,5,-0.037841796875,-0.98101806640625,-0.27325439453125
1760044388711,1175287330,14981,6,-0.04150390625,-0.98077392578125,-0.27691650390625
1760044388711,1175287330,14981,7,-0.0439453125,-0.98614501953125,-0.27520751953125
1760044388711,1175287330,14981,8,-0.04345703125,-0.97198486328125,-0.28326416015625
1760044388711,1175287330,14981,9,-0.048095703125,-0.97882080078125,-0.28009033203125
1760044388711,1175287330,14981,10,-0.05712890625,-0.98712158203125,-0.26446533203125
1760044388711,1175287330,14981,11,-0.04248046875,-0.96905517578125,-0.27032470703125
1760044388711,1175287330,14981,12,-0.0341796875,-0.97320556640625,-0.29376220703125
1760044388711,1175287330,14981,13,-0.024169921875,-0.95318603515625,-0.31256103515625
1760044388711,1175287330,14981,14,-0.0537109375,-1.00250244140625,-0.33306884765625
1760044388711,1175287330,14981,15,-0.025146484375,-0.97296142578125,-0.28277587890625
1760044388711,1175287330,14981,16,-0.010009765625,-0.96075439453125,-0.31500244140625
1760044388711,1175287330,14981,17,-0.015380859375,-0.97637939453125,-0.28277587890625
1760044388711,1175287330,14981,18,-0.010009765625,-0.97149658203125,-0.32745361328125
1760044388711,1175287330,14981,19,0.011962890625,-0.96026611328125,-0.32452392578125
1760044388711,1175287330,14981,20,0.0126953125,-0.96124267578125,-0.34283447265625
1760044388711,1175287330,14981,21,0.00927734375,-0.96856689453125,-0.33526611328125
1760044388711,1175287330,14981,22,-0.003173828125,-0.96295166015625,-0.32257080078125
1760044388711,1175287330,14981,23,-0.0126953125,-0.97198486328125,-0.30645751953125
1760044388711,1175287330,14981,24,-0.00390625,-0.96612548828125,-0.32403564453125
1760044388711,1175287330,14981,25,-0.005615234375,-0.97808837890625,-0.31573486328125
1760044388711,1175287330,14981,26,-0.01123046875,-0.95611572265625,-0.31280517578125
1760044388711,1175287330,14981,27,-0.000244140625,-0.97027587890625,-0.32305908203125
1760044388711,1175287330,14981,28,-0.007080078125,-0.97296142578125,-0.31939697265625
1760044388711,1175287330,14981,29,-0.010986328125,-0.97344970703125,-0.31622314453125
1760044388711,1175287330,14981,30,-0.00634765625,-0.96710205078125,-0.31085205078125
1760044388711,1175287330,14981,31,-0.012939453125,-0.97076416015625,-0.31622314453125
1760044391290,1175289885,14982,0,-0.00732421875,-0.97076416015625,-0.31353759765625
1760044391290,1175289885,14982,1,-0.007080078125,-0.97052001953125,-0.31378173828125
1760044391290,1175289885,14982,2,-0.010009765625,-0.96856689453125,-0.30474853515625
1760044391290,1175289885,14982,3,-0.01025390625,-0.97149658203125,-0.31597900390625
1760044391290,1175289885,14982,4,-0.012939453125,-0.96783447265625,-0.31622314453125
1760044391290,1175289885,14982,5,-0.015625,-0.97174072265625,-0.32452392578125
1760044391290,1175289885,14982,6,-0.015380859375,-0.96832275390625,-0.30792236328125
1760044391290,1175289885,14982,7,-0.005859375,-0.96466064453125,-0.32598876953125
1760044391290,1175289885,14982,8,-0.012451171875,-0.96978759765625,-0.31256103515625
1760044391290,1175289885,14982,9,-0.009765625,-0.96295166015625,-0.32379150390625
1760044391290,1175289885,14982,10,-0.01953125,-0.97662353515625,-0.30450439453125
1760044391290,1175289885,14982,11,-0.010498046875,-0.96295166015625,-0.32061767578125
1760044391290,1175289885,14982,12,-0.0146484375,-0.97198486328125,-0.32330322265625
1760044391290,1175289885,14982,13,-0.01708984375,-0.97247314453125,-0.31353759765625
1760044391290,1175289885,14982,14,-0.01220703125,-0.96441650390625,-0.31842041015625
1760044391290,1175289885,14982,15,-0.0185546875,-0.97076416015625,-0.32281494140625
1760044391290,1175289885,14982,16,-0.018310546875,-0.97222900390625,-0.31329345703125
1760044391290,1175289885,14982,17,-0.015625,-0.96783447265625,-0.31231689453125
1760044391290,1175289885,14982,18,-0.013427734375,-0.97027587890625,-0.31695556640625
1760044391290,1175289885,14982,19,-0.021484375,-0.97369384765625,-0.30694580078125
1760044391290,1175289885,14982,20,-0.02001953125,-0.97174072265625,-0.30572509765625
1760044391290,1175289885,14982,21,-0.017333984375,-0.97344970703125,-0.30816650390625
1760044391290,1175289885,14982,22,-0.021484375,-0.97686767578125,-0.29840087890625
1760044391290,1175289885,14982,23,-0.0205078125,-0.96856689453125,-0.29644775390625
1760044391290,1175289885,14982,24,-0.019287109375,-0.97955322265625,-0.30670166015625
1760044391290,1175289885,14982,25,-0.020263671875,-0.97393798828125,-0.29132080078125
1760044391290,1175289885,14982,26,-0.02099609375,-0.97833251953125,-0.29205322265625
1760044391290,1175289885,14982,27,-0.01806640625,-0.97149658203125,-0.28863525390625
1760044391290,1175289885,14982,28,-0.02685546875,-0.98370361328125,-0.28839111328125
1760044391290,1175289885,14982,29,-0.02490234375,-0.97149658203125,-0.28546142578125
1760044391290,1175289885,14982,30,-0.025146484375,-0.97344970703125,-0.28594970703125
1760044391290,1175289885,14982,31,-0.0224609375,-0.98272705078125,-0.28692626953125
1760044393827,1175292440,14983,0,-0.02294921875,-0.97589111328125,-0.28668212890625
1760044393827,1175292440,14983,1,-0.027587890625,-0.97784423828125,-0.27960205078125
1760044393827,1175292440,14983,2,-0.023681640625,-0.97882080078125,-0.28375244140625
1760044393827,1175292440,14983,3,-0.029296875,-0.98272705078125,-0.28057861328125
1760044393827,1175292440,14983,4,-0.025390625,-0.97955322265625,-0.27545166015625
1760044393827,1175292440,14983,5,-0.02490234375,-0.98565673828125,-0.28033447265625
1760044393827,1175292440,14983,6,-0.03466796875,-0.96490478515625,-0.26080322265625
1760044393827,1175292440,14983,7,-0.025634765625,-0.98150634765625,-0.27813720703125
1760044393827,1175292440,14983,8,-0.03955078125,-0.98541259765625,-0.26983642578125
1760044393827,1175292440,14983,9,-0.02880859375,-0.98565673828125,-0.26544189453125
1760044393827,1175292440,14983,10,-0.032958984375,-0.97637939453125,-0.25421142578125
1760044393827,1175292440,14983,11,-0.03173828125,-0.98004150390625,-0.26226806640625
1760044393827,1175292440,14983,12,-0.034423828125,-0.98345947265625,-0.26153564453125
1760044393827,1175292440,14983,13,-0.033203125,-0.98980712890625,-0.24932861328125
1760044393827,1175292440,14983,14,-0.035888671875,-0.98394775390625,-0.24127197265625
1760044393827,1175292440,14983,15,-0.046630859375,-0.98492431640625,-0.24713134765625
1760044393827,1175292440,14983,16,-0.0166015625,-0.97784423828125,-0.29083251953125
1760044393827,1175292440,14983,17,-0.037353515625,-0.98419189453125,-0.26348876953125
1760044393827,1175292440,14983,18,-0.023681640625,-0.98052978515625,-0.27130126953125
1760044393827,1175292440,14983,19,-0.02197265625,-0.98150634765625,-0.29644775390625
1760044393827,1175292440,14983,20,-0.014404296875,-0.97833251953125,-0.25299072265625
1760044393827,1175292440,14983,21,-0.0185546875,-0.96929931640625,-0.31231689453125
1760044393827,1175292440,14983,22,0.00830078125,-0.97052001953125,-0.31329345703125
1760044393827,1175292440,14983,23,0.001708984375,-0.97052001953125,-0.31158447265625
1760044393827,1175292440,14983,24,-0.008544921875,-0.98126220703125,-0.29229736328125
1760044393827,1175292440,14983,25,-0.010009765625,-0.96929931640625,-0.28717041015625
1760044393827,1175292440,14983,26,-0.01513671875,-0.97760009765625,-0.28717041015625
1760044393827,1175292440,14983,27,-0.008544921875,-0.98223876953125,-0.30133056640625
1760044393827,1175292440,14983,28,-0.01025390625,-0.97149658203125,-0.27740478515625
1760044393827,1175292440,14983,29,-0.011962890625,-0.97442626953125,-0.28253173828125
1760044393827,1175292440,14983,30,-0.006591796875,-0.97833251953125,-0.29425048828125
1760044393827,1175292440,14983,31,-0.013427734375,-0.97735595703125,-0.29083251953125
1760044396362,1175294996,14984,0,-0.01220703125,-0.97906494140625,-0.28424072265625
1760044396362,1175294996,14984,1,-0.011474609375,-0.97149658203125,-0.28863525390625
1760044396362,1175294996,14984,2,-0.0087890625,-0.98175048828125,-0.29302978515625
1760044396362,1175294996,14984,3,-0.011962890625,-0.97613525390625,-0.29107666015625
1760044396362,1175294996,14984,4,-0.01123046875,-0.97540283203125,-0.28887939453125
1760044396362,1175294996,14984,5,-0.0166015625,-0.97955322265625,-0.28009033203125
1760044396362,1175294996,14984,6,-0.0146484375,-0.97686767578125,-0.29351806640625
1760044396362,1175294996,14984,7,-0.014404296875,-0.97564697265625,-0.28863525390625
1760044396362,1175294996,14984,8,-0.01318359375,-0.97540283203125,-0.29351806640625
1760044396362,1175294996,14984,9,-0.015869140625,-0.97564697265625,-0.29229736328125
1760044396362,1175294996,14984,10,-0.009765625,-0.97271728515625,-0.30059814453125
1760044396362,1175294996,14984,11,-0.024658203125,-0.98297119140625,-0.29058837890625
1760044396362,1175294996,14984,12,-0.020751953125,-0.96929931640625,-0.29473876953125
1760044396362,1175294996,14984,13,-0.017578125,-0.97735595703125,-0.29180908203125
1760044396362,1175294996,14984,14,-0.021240234375,-0.97857666015625,-0.29620361328125
1760044396362,1175294996,14984,15,-0.020263671875,-0.97515869140625,-0.28912353515625
1760044396362,1175294996,14984,16,-0.023681640625,-0.97491455078125,-0.29010009765625
1760044396362,1175294996,14984,17,-0.016845703125,-0.97833251953125,-0.29107666015625
1760044396362,1175294996,14984,18,-0.0224609375,-0.97857666015625,-0.28448486328125
1760044396362,1175294996,14984,19,-0.015625,-0.97613525390625,-0.29132080078125
1760044396362,1175294996,14984,20,-0.021728515625,-0.97906494140625,-0.28448486328125
1760044396362,1175294996,14984,21,-0.022705078125,-0.97735595703125,-0.27545166015625
1760044396362,1175294996,14984,22,-0.023193359375,-0.97613525390625,-0.28253173828125
1760044396362,1175294996,14984,23,-0.024169921875,-0.97930908203125,-0.28814697265625
1760044396362,1175294996,14984,24,-0.0244140625,-0.98321533203125,-0.27740478515625
1760044396362,1175294996,14984,25,-0.024169921875,-0.97296142578125,-0.28179931640625
1760044396362,1175294996,14984,26,-0.025146484375,-0.98223876953125,-0.27374267578125
1760044396362,1175294996,14984,27,-0.03271484375,-0.98297119140625,-0.27447509765625
1760044396362,1175294996,14984,28,-0.03125,-0.97711181640625,-0.27496337890625
1760044396362,1175294996,14984,29,-0.02880859375,-0.97882080078125,-0.27569580078125
1760044396362,1175294996,14984,30,-0.033447265625,-0.98565673828125,-0.26153564453125
1760044396362,1175294996,14984,31,-0.028564453125,-0.97857666015625,-0.26593017578125
1760044399090,1175297551,14985,0,-0.02734375,-0.98052978515625,-0.26373291015625
1760044399090,1175297551,14985,1,-0.033203125,-0.98443603515625,-0.26544189453125
1760044399090,1175297551,14985,2,-0.036376953125,-0.98126220703125,-0.26739501953125
1760044399090,1175297551,14985,3,-0.033203125,-0.98223876953125,-0.25982666015625
1760044399090,1175297551,14985,4,-0.030517578125,-0.98883056640625,-0.25885009765625
1760044399090,1175297551,14985,5,-0.05712890625,-0.97003173828125,-0.22662353515625
1760044399090,1175297551,14985,6,-0.0185546875,-0.99249267578125,-0.28936767578125
1760044399090,1175297551,14985,7,-0.014404296875,-0.95001220703125,-0.33551025390625
1760044399090,1175297551,14985,8,0.004638671875,-0.98712158203125,-0.31964111328125
1760044399090,1175297551,14985,9,-0.0244140625,-0.97052001953125,-0.28497314453125
1760044399090,1175297551,14985,10,-0.00537109375,-0.98028564453125,-0.28887939453125
1760044399090,1175297551,14985,11,-0.033203125,-0.97222900390625,-0.27423095703125
1760044399090,1175297551,14985,12,-0.034423828125,-0.97906494140625,-0.27496337890625
1760044399090,1175297551,14985,13,-0.02880859375,-0.98199462890625,-0.28936767578125
1760044399090,1175297551,14985,14,-0.027587890625,-0.97760009765625,-0.27349853515625
1760044399090,1175297551,14985,15,-0.02294921875,-0.98419189453125,-0.27740478515625
1760044399090,1175297551,14985,16,-0.028564453125,-0.97735595703125,-0.26593017578125
1760044399090,1175297551,14985,17,-0.029541015625,-0.98394775390625,-0.26129150390625
1760044399090,1175297551,14985,18,-0.0439453125,-0.98663330078125,-0.28082275390625
1760044399090,1175297551,14985,19,-0.034912109375,-0.98028564453125,-0.28790283203125
1760044399090,1175297551,14985,20,-0.035888671875,-0.97271728515625,-0.28839111328125
1760044399090,1175297551,14985,21,-0.031494140625,-0.94195556640625,-0.25958251953125
1760044399090,1175297551,14985,22,-0.072509765625,-0.99176025390625,-0.26348876953125
1760044399090,1175297551,14985,23,-0.0703125,-1.01373291015625,-0.27740478515625
1760044399090,1175297551,14985,24,-0.05078125,-0.96954345703125,-0.29132080078125
1760044399090,1175297551,14985,25,-0.066650390625,-0.96002197265625,-0.26715087890625
1760044399090,1175297551,14985,26,-0.04150390625,-0.98126220703125,-0.29351806640625
1760044399090,1175297551,14985,27,-0.054931640625,-0.98321533203125,-0.26324462890625
1760044399090,1175297551,14985,28,-0.05126953125,-0.99224853515625,-0.26519775390625
1760044399090,1175297551,14985,29,-0.047119140625,-0.98956298828125,-0.25225830078125
1760044399090,1175297551,14985,30,-0.052001953125,-0.97003173828125,-0.23101806640625
1760044399090,1175297551,14985,31,-0.053955078125,-0.98760986328125,-0.24273681640625
1760044401625,1175300106,14986,0,-0.04248046875,-0.97442626953125,-0.26153564453125
1760044401625,1175300106,14986,1,-0.062255859375,-0.99517822265625,-0.27276611328125
1760044401625,1175300106,14986,2,-0.060546875,-0.97882080078125,-0.26129150390625
1760044401625,1175300106,14986,3,-0.057373046875,-0.99102783203125,-0.25225830078125
1760044401625,1175300106,14986,4,-0.056884765625,-0.97735595703125,-0.26397705078125
1760044401625,1175300106,14986,5,-0.050537109375,-0.98516845703125,-0.25640869140625
1760044401625,1175300106,14986,6,-0.0576171875,-0.98541259765625,-0.25762939453125
1760044401625,1175300106,14986,7,-0.0625,-0.98809814453125,-0.24102783203125
1760044401625,1175300106,14986,8,-0.060302734375,-0.98492431640625,-0.24859619140625
1760044401625,1175300106,14986,9,-0.05615234375,-0.98345947265625,-0.25909423828125
1760044401625,1175300106,14986,10,-0.063232421875,-0.98272705078125,-0.24737548828125
1760044401625,1175300106,14986,11,-0.06298828125,-0.98663330078125,-0.25421142578125
1760044401625,1175300106,14986,12,-0.064697265625,-0.98858642578125,-0.22637939453125
1760044401625,1175300106,14986,13,-0.07275390625,-0.98712158203125,-0.24322509765625
1760044401625,1175300106,14986,14,-0.06591796875,-0.98321533203125,-0.24005126953125
1760044401625,1175300106,14986,15,-0.072998046875,-0.99273681640625,-0.21490478515625
1760044401625,1175300106,14986,16,-0.065673828125,-0.98199462890625,-0.22296142578125
1760044401625,1175300106,14986,17,-0.069091796875,-0.99127197265625,-0.24029541015625
1760044401625,1175300106,14986,18,-0.06982421875,-0.98760986328125,-0.23101806640625
1760044401625,1175300106,14986,19,-0.080810546875,-0.99224853515625,-0.23150634765625
1760044401625,1175300106,14986,20,-0.06982421875,-0.98419189453125,-0.22589111328125
1760044401625,1175300106,14986,21,-0.072021484375,-0.99298095703125,-0.24127197265625
1760044401625,1175300106,14986,22,-0.075439453125,-0.98419189453125,-0.22637939453125
1760044401625,1175300106,14986,23,-0.07666015625,-0.99273681640625,-0.22613525390625
1760044401625,1175300106,14986,24,-0.071044921875,-0.98150634765625,-0.21319580078125
1760044401625,1175300106,14986,25,-0.076904296875,-0.99420166015625,-0.23638916015625
1760044401625,1175300106,14986,26,-0.077392578125,-0.98321533203125,-0.21148681640625
1760044401625,1175300106,14986,27,-0.080078125,-0.99005126953125,-0.22662353515625
1760044401625,1175300106,14986,28,-0.076904296875,-0.98907470703125,-0.22344970703125
1760044401625,1175300106,14986,29,-0.071044921875,-0.98883056640625,-0.23492431640625
1760044401625,1175300106,14986,30,-0.080810546875,-0.99346923828125,-0.21441650390625
1760044401625,1175300106,14986,31,-0.0732421875,-0.98492431640625,-0.22686767578125
1760044404164,1175302661,14987,0,-0.076416015625,-0.99298095703125,-0.21685791015625
1760044404164,1175302661,14987,1,-0.079833984375,-0.98760986328125,-0.21295166015625
1760044404164,1175302661,14987,2,-0.081298828125,-0.99151611328125,-0.21466064453125
1760044404164,1175302661,14987,3,-0.083740234375,-0.99493408203125,-0.21246337890625
1760044404164,1175302661,14987,4,-0.072265625,-0.98736572265625,-0.21856689453125
