receivedPhoneTimestamp,respeckTimestamp,packetSeqNum,sampleSeqNum,accelX,accelY,accelZ
1760106987907,1202452757,19063,30,0.1474609375,-0.11114501953125,-0.99200439453125
1760106987907,1202452757,19063,31,0.151611328125,-0.11041259765625,-0.99444580078125
1760106990098,1202455343,19064,0,0.152587890625,-0.11138916015625,-0.99615478515625
1760106990098,1202455343,19064,1,0.150634765625,-0.11285400390625,-0.99566650390625
1760106990098,1202455343,19064,2,0.1533203125,-0.11260986328125,-0.99688720703125
1760106990098,1202455343,19064,3,0.150634765625,-0.11138916015625,-0.99005126953125
1760106990098,1202455343,19064,4,0.15087890625,-0.11114501953125,-0.99298095703125
1760106990098,1202455343,19064,5,0.149658203125,-0.11163330078125,-0.99444580078125
1760106990098,1202455343,19064,6,0.151611328125,-0.11334228515625,-0.99517822265625
1760106990098,1202455343,19064,7,0.150634765625,-0.11212158203125,-0.99249267578125
1760106990098,1202455343,19064,8,0.1552734375,-0.11041259765625,-0.99468994140625
1760106990098,1202455343,19064,9,0.151611328125,-0.11090087890625,-0.99346923828125
1760106990098,1202455343,19064,10,0.152099609375,-0.11041259765625,-0.99127197265625
1760106990098,1202455343,19064,11,0.150634765625,-0.11090087890625,-0.99713134765625
1760106990098,1202455343,19064,12,0.15087890625,-0.11260986328125,-0.99176025390625
1760106990098,1202455343,19064,13,0.153564453125,-0.11212158203125,-0.99542236328125
1760106990098,1202455343,19064,14,0.1513671875,-0.11114501953125,-0.99346923828125
1760106990098,1202455343,19064,15,0.149658203125,-0.11163330078125,-0.98736572265625
1760106990098,1202455343,19064,16,0.153564453125,-0.11016845703125,-0.99517822265625
1760106990098,1202455343,19064,17,0.15234375,-0.10870361328125,-0.99591064453125
1760106990098,1202455343,19064,18,0.15185546875,-0.11163330078125,-0.99493408203125
1760106990098,1202455343,19064,19,0.15185546875,-0.11090087890625,-0.99395751953125
1760106990098,1202455343,19064,20,0.151123046875,-0.10797119140625,-0.99395751953125
1760106990098,1202455343,19064,21,0.152099609375,-0.11114501953125,-0.99322509765625
1760106990098,1202455343,19064,22,0.151123046875,-0.10943603515625,-0.99273681640625
1760106990098,1202455343,19064,23,0.153076171875,-0.11065673828125,-0.99322509765625
1760106990098,1202455343,19064,24,0.153564453125,-0.11309814453125,-0.99468994140625
1760106990098,1202455343,19064,25,0.15576171875,-0.11090087890625,-0.99444580078125
1760106990098,1202455343,19064,26,0.153076171875,-0.11114501953125,-0.99346923828125
1760106990098,1202455343,19064,27,0.15576171875,-0.10943603515625,-0.99273681640625
1760106990098,1202455343,19064,28,0.156494140625,-0.11187744140625,-0.99298095703125
1760106990098,1202455343,19064,29,0.15478515625,-0.11383056640625,-0.99566650390625
1760106990098,1202455343,19064,30,0.153076171875,-0.10845947265625,-0.99322509765625
1760106990098,1202455343,19064,31,0.152099609375,-0.11163330078125,-0.99127197265625
1760106993075,1202457934,19065,0,0.152587890625,-0.11358642578125,-0.99468994140625
1760106993075,1202457934,19065,1,0.150634765625,-0.10992431640625,-0.99249267578125
1760106993075,1202457934,19065,2,0.14990234375,-0.11163330078125,-0.99493408203125
1760106993075,1202457934,19065,3,0.152587890625,-0.11187744140625,-0.99395751953125
1760106993075,1202457934,19065,4,0.151123046875,-0.11138916015625,-0.99542236328125
1760106993075,1202457934,19065,5,0.153076171875,-0.11212158203125,-0.99346923828125
1760106993075,1202457934,19065,6,0.149658203125,-0.11187744140625,-0.99835205078125
1760106993075,1202457934,19065,7,0.14990234375,-0.10870361328125,-0.99395751953125
1760106993075,1202457934,19065,8,0.146484375,-0.10992431640625,-0.99371337890625
1760106993075,1202457934,19065,9,0.15087890625,-0.11187744140625,-0.99761962890625
1760106993075,1202457934,19065,10,0.1484375,-0.10943603515625,-0.99566650390625
1760106993075,1202457934,19065,11,0.151123046875,-0.10894775390625,-0.99371337890625
1760106993075,1202457934,19065,12,0.15234375,-0.10723876953125,-0.99176025390625
1760106993075,1202457934,19065,13,0.1533203125,-0.11138916015625,-0.99322509765625
1760106993075,1202457934,19065,14,0.154541015625,-0.11212158203125,-0.99371337890625
1760106993075,1202457934,19065,15,0.1572265625,-0.11041259765625,-0.99786376953125
1760106993075,1202457934,19065,16,0.156005859375,-0.10919189453125,-0.99322509765625
1760106993075,1202457934,19065,17,0.156982421875,-0.11236572265625,-0.98980712890625
1760106993075,1202457934,19065,18,0.15771484375,-0.11456298828125,-0.99322509765625
1760106993075,1202457934,19065,19,0.155517578125,-0.11285400390625,-0.99176025390625
1760106993075,1202457934,19065,20,0.156005859375,-0.11480712890625,-0.99420166015625
1760106993075,1202457934,19065,21,0.157470703125,-0.11334228515625,-0.99224853515625
1760106993075,1202457934,19065,22,0.156005859375,-0.11187744140625,-0.99176025390625
1760106993075,1202457934,19065,23,0.155029296875,-0.11187744140625,-0.99371337890625
1760106993075,1202457934,19065,24,0.155517578125,-0.11187744140625,-0.98907470703125
1760106993075,1202457934,19065,25,0.154296875,-0.11431884765625,-0.99176025390625
1760106993075,1202457934,19065,26,0.154052734375,-0.11260986328125,-0.99029541015625
1760106993075,1202457934,19065,27,0.153564453125,-0.11090087890625,-0.99053955078125
1760106993075,1202457934,19065,28,0.157958984375,-0.10870361328125,-0.99566650390625
1760106993075,1202457934,19065,29,0.1552734375,-0.10821533203125,-0.99224853515625
1760106993075,1202457934,19065,30,0.157958984375,-0.11090087890625,-0.99273681640625
1760106993075,1202457934,19065,31,0.15576171875,-0.10748291015625,-0.99249267578125
1760106995263,1202460525,19066,0,0.1533203125,-0.10968017578125,-0.99029541015625
1760106995263,1202460525,19066,1,0.156494140625,-0.10943603515625,-0.99664306640625
1760106995263,1202460525,19066,2,0.153564453125,-0.10992431640625,-0.99078369140625
1760106995263,1202460525,19066,3,0.15380859375,-0.11016845703125,-0.99200439453125
1760106995263,1202460525,19066,4,0.154541015625,-0.10797119140625,-0.99761962890625
1760106995263,1202460525,19066,5,0.152587890625,-0.10992431640625,-0.99102783203125
1760106995263,1202460525,19066,6,0.15234375,-0.11016845703125,-0.99493408203125
1760106995263,1202460525,19066,7,0.15087890625,-0.10821533203125,-0.99493408203125
1760106995263,1202460525,19066,8,0.15185546875,-0.10894775390625,-0.99151611328125
1760106995263,1202460525,19066,9,0.151611328125,-0.10968017578125,-0.99200439453125
1760106995263,1202460525,19066,10,0.155517578125,-0.11041259765625,-0.99493408203125
1760106995263,1202460525,19066,11,0.15283203125,-0.11041259765625,-0.99200439453125
1760106995263,1202460525,19066,12,0.150146484375,-0.10968017578125,-0.99200439453125
1760106995263,1202460525,19066,13,0.151123046875,-0.11041259765625,-0.99200439453125
1760106995263,1202460525,19066,14,0.14990234375,-0.10943603515625,-0.99395751953125
1760106995263,1202460525,19066,15,0.15234375,-0.11090087890625,-0.99566650390625
1760106995263,1202460525,19066,16,0.151123046875,-0.10919189453125,-0.99224853515625
1760106995263,1202460525,19066,17,0.152587890625,-0.10772705078125,-0.99371337890625
1760106995263,1202460525,19066,18,0.152587890625,-0.10870361328125,-0.99493408203125
1760106995263,1202460525,19066,19,0.15576171875,-0.10845947265625,-0.99151611328125
1760106995263,1202460525,19066,20,0.15283203125,-0.10797119140625,-0.99102783203125
1760106995263,1202460525,19066,21,0.153564453125,-0.10870361328125,-0.99542236328125
1760106995263,1202460525,19066,22,0.15478515625,-0.10943603515625,-0.99346923828125
1760106995263,1202460525,19066,23,0.156494140625,-0.10797119140625,-0.99249267578125
1760106995263,1202460525,19066,24,0.156494140625,-0.11016845703125,-0.99346923828125
1760106995263,1202460525,19066,25,0.156982421875,-0.11138916015625,-0.99298095703125
1760106995263,1202460525,19066,26,0.16064453125,-0.10992431640625,-0.99298095703125
1760106995263,1202460525,19066,27,0.15576171875,-0.10870361328125,-0.99151611328125
1760106995263,1202460525,19066,28,0.154541015625,-0.10723876953125,-0.98809814453125
1760106995263,1202460525,19066,29,0.158935546875,-0.11041259765625,-0.98956298828125
1760106995263,1202460525,19066,30,0.157958984375,-0.11285400390625,-0.99127197265625
1760106995263,1202460525,19066,31,0.156494140625,-0.11212158203125,-0.99249267578125
1760106998441,1202463116,19067,0,0.15966796875,-0.11309814453125,-0.99224853515625
1760106998441,1202463116,19067,1,0.161376953125,-0.11260986328125,-0.99224853515625
1760106998441,1202463116,19067,2,0.160888671875,-0.11187744140625,-0.99298095703125
1760106998441,1202463116,19067,3,0.165283203125,-0.11090087890625,-0.99468994140625
1760106998441,1202463116,19067,4,0.164306640625,-0.11309814453125,-0.98834228515625
1760106998441,1202463116,19067,5,0.164794921875,-0.10943603515625,-0.99444580078125
1760106998441,1202463116,19067,6,0.165283203125,-0.11065673828125,-0.99591064453125
1760106998441,1202463116,19067,7,0.1591796875,-0.11260986328125,-0.99249267578125
1760106998441,1202463116,19067,8,0.16064453125,-0.10968017578125,-0.98785400390625
1760106998441,1202463116,19067,9,0.166015625,-0.11138916015625,-0.99200439453125
1760106998441,1202463116,19067,10,0.162109375,-0.11090087890625,-0.99249267578125
1760106998441,1202463116,19067,11,0.1591796875,-0.11016845703125,-0.99322509765625
1760106998441,1202463116,19067,12,0.157958984375,-0.10919189453125,-0.99224853515625
1760106998441,1202463116,19067,13,0.1572265625,-0.11041259765625,-0.99151611328125
1760106998441,1202463116,19067,14,0.159912109375,-0.10894775390625,-0.99176025390625
1760106998441,1202463116,19067,15,0.156982421875,-0.11065673828125,-0.99371337890625
1760106998441,1202463116,19067,16,0.16259765625,-0.11041259765625,-0.99249267578125
1760106998441,1202463116,19067,17,0.156982421875,-0.11016845703125,-0.99029541015625
1760106998441,1202463116,19067,18,0.158447265625,-0.10968017578125,-0.99005126953125
1760106998441,1202463116,19067,19,0.1611328125,-0.11309814453125,-0.99176025390625
1760106998441,1202463116,19067,20,0.161865234375,-0.10992431640625,-0.99493408203125
1760106998441,1202463116,19067,21,0.16015625,-0.11065673828125,-0.98785400390625
1760106998441,1202463116,19067,22,0.162353515625,-0.11163330078125,-0.98907470703125
1760106998441,1202463116,19067,23,0.1640625,-0.11383056640625,-0.99517822265625
1760106998441,1202463116,19067,24,0.162841796875,-0.11358642578125,-0.99224853515625
1760106998441,1202463116,19067,25,0.159423828125,-0.10992431640625,-0.99078369140625
1760106998441,1202463116,19067,26,0.160888671875,-0.11480712890625,-0.99273681640625
1760106998441,1202463116,19067,27,0.162109375,-0.11309814453125,-0.99151611328125
1760106998441,1202463116,19067,28,0.161376953125,-0.11236572265625,-0.99127197265625
1760106998441,1202463116,19067,29,0.16357421875,-0.11260986328125,-0.99395751953125
1760106998441,1202463116,19067,30,0.162109375,-0.11578369140625,-0.99078369140625
1760106998441,1202463116,19067,31,0.164306640625,-0.11505126953125,-0.98834228515625
1760107000429,1202465707,19068,0,0.166015625,-0.11578369140625,-0.99371337890625
1760107000429,1202465707,19068,1,0.16650390625,-0.11553955078125,-0.98956298828125
1760107000429,1202465707,19068,2,0.1650390625,-0.11456298828125,-0.99176025390625
1760107000429,1202465707,19068,3,0.162109375,-0.11578369140625,-0.99224853515625
1760107000429,1202465707,19068,4,0.16455078125,-0.11553955078125,-0.99053955078125
1760107000429,1202465707,19068,5,0.161865234375,-0.11285400390625,-0.98736572265625
1760107000429,1202465707,19068,6,0.166259765625,-0.11236572265625,-0.99322509765625
1760107000429,1202465707,19068,7,0.1650390625,-0.11529541015625,-0.99395751953125
1760107000429,1202465707,19068,8,0.1640625,-0.11236572265625,-0.99176025390625
1760107000429,1202465707,19068,9,0.162841796875,-0.11431884765625,-0.99517822265625
1760107000429,1202465707,19068,10,0.163818359375,-0.11578369140625,-0.99176025390625
1760107000429,1202465707,19068,11,0.16552734375,-0.11724853515625,-0.99200439453125
1760107000429,1202465707,19068,12,0.1640625,-0.11309814453125,-0.98956298828125
1760107000429,1202465707,19068,13,0.1640625,-0.11505126953125,-0.99029541015625
1760107000429,1202465707,19068,14,0.161376953125,-0.11456298828125,-0.99273681640625
1760107000429,1202465707,19068,15,0.162109375,-0.11285400390625,-0.99029541015625
1760107000429,1202465707,19068,16,0.162841796875,-0.11407470703125,-0.99053955078125
1760107000429,1202465707,19068,17,0.16552734375,-0.11383056640625,-0.99005126953125
1760107000429,1202465707,19068,18,0.1630859375,-0.11553955078125,-0.99420166015625
1760107000429,1202465707,19068,19,0.158447265625,-0.11553955078125,-0.98907470703125
1760107000429,1202465707,19068,20,0.160400390625,-0.11505126953125,-0.99395751953125
1760107000429,1202465707,19068,21,0.157958984375,-0.11163330078125,-0.99029541015625
1760107000429,1202465707,19068,22,0.156982421875,-0.10870361328125,-0.98907470703125
1760107000429,1202465707,19068,23,0.158935546875,-0.11212158203125,-0.99493408203125
1760107000429,1202465707,19068,24,0.165771484375,-0.10748291015625,-0.99517822265625
1760107000429,1202465707,19068,25,0.161865234375,-0.10821533203125,-0.98980712890625
1760107000429,1202465707,19068,26,0.160888671875,-0.11163330078125,-0.99053955078125
1760107000429,1202465707,19068,27,0.162109375,-0.11041259765625,-0.99249267578125
1760107000429,1202465707,19068,28,0.164306640625,-0.11260986328125,-0.99371337890625
1760107000429,1202465707,19068,29,0.160400390625,-0.11163330078125,-0.98931884765625
1760107000429,1202465707,19068,30,0.1640625,-0.11090087890625,-0.99224853515625
1760107000429,1202465707,19068,31,0.166015625,-0.10992431640625,-0.99322509765625
1760107003014,1202468298,19069,0,0.1611328125,-0.11285400390625,-0.98907470703125
1760107003014,1202468298,19069,1,0.163330078125,-0.10992431640625,-0.99151611328125
1760107003014,1202468298,19069,2,0.1640625,-0.10894775390625,-0.98956298828125
1760107003014,1202468298,19069,3,0.162841796875,-0.10919189453125,-0.98760986328125
1760107003014,1202468298,19069,4,0.166259765625,-0.11212158203125,-0.99249267578125
1760107003014,1202468298,19069,5,0.16357421875,-0.11505126953125,-0.98956298828125
1760107003014,1202468298,19069,6,0.16455078125,-0.11407470703125,-0.99053955078125
1760107003014,1202468298,19069,7,0.1669921875,-0.11065673828125,-0.98980712890625
1760107003014,1202468298,19069,8,0.166259765625,-0.11065673828125,-0.99224853515625
1760107003014,1202468298,19069,9,0.165283203125,-0.11163330078125,-0.99151611328125
1760107003014,1202468298,19069,10,0.160400390625,-0.11187744140625,-0.99005126953125
1760107003014,1202468298,19069,11,0.15771484375,-0.11187744140625,-0.99298095703125
1760107003014,1202468298,19069,12,0.15869140625,-0.11212158203125,-0.99444580078125
1760107003014,1202468298,19069,13,0.156982421875,-0.11358642578125,-0.99005126953125
1760107003014,1202468298,19069,14,0.158447265625,-0.11065673828125,-0.99395751953125
1760107003014,1202468298,19069,15,0.16064453125,-0.11212158203125,-0.99591064453125
1760107003014,1202468298,19069,16,0.158447265625,-0.11236572265625,-0.99517822265625
1760107003014,1202468298,19069,17,0.16259765625,-0.11236572265625,-0.99249267578125
1760107003014,1202468298,19069,18,0.1611328125,-0.11138916015625,-0.99151611328125
1760107003014,1202468298,19069,19,0.163330078125,-0.11309814453125,-0.99371337890625
1760107003014,1202468298,19069,20,0.16064453125,-0.11212158203125,-0.98883056640625
1760107003014,1202468298,19069,21,0.16650390625,-0.11114501953125,-0.99371337890625
1760107003014,1202468298,19069,22,0.162109375,-0.11138916015625,-0.99224853515625
1760107003014,1202468298,19069,23,0.163330078125,-0.11480712890625,-0.99102783203125
1760107003014,1202468298,19069,24,0.162353515625,-0.11090087890625,-0.99176025390625
1760107003014,1202468298,19069,25,0.162353515625,-0.11163330078125,-0.99273681640625
1760107003014,1202468298,19069,26,0.164306640625,-0.11553955078125,-0.99444580078125
1760107003014,1202468298,19069,27,0.161376953125,-0.11383056640625,-0.98931884765625
1760107003014,1202468298,19069,28,0.1650390625,-0.11383056640625,-0.99273681640625
1760107003014,1202468298,19069,29,0.163818359375,-0.11260986328125,-0.99127197265625
1760107003014,1202468298,19069,30,0.161376953125,-0.11358642578125,-0.99249267578125
1760107003014,1202468298,19069,31,0.16015625,-0.11700439453125,-0.98736572265625
1760107005795,1202470889,19070,0,0.162353515625,-0.11553955078125,-0.99200439453125
1760107005795,1202470889,19070,1,0.162353515625,-0.11456298828125,-0.99224853515625
1760107005795,1202470889,19070,2,0.1630859375,-0.11553955078125,-0.98931884765625
1760107005795,1202470889,19070,3,0.16357421875,-0.11602783203125,-0.99176025390625
1760107005795,1202470889,19070,4,0.16357421875,-0.11431884765625,-0.99444580078125
1760107005795,1202470889,19070,5,0.165771484375,-0.11505126953125,-0.99029541015625
1760107005795,1202470889,19070,6,0.16455078125,-0.11334228515625,-0.98907470703125
1760107005795,1202470889,19070,7,0.16455078125,-0.11505126953125,-0.99127197265625
1760107005795,1202470889,19070,8,0.16650390625,-0.11236572265625,-0.98931884765625
1760107005795,1202470889,19070,9,0.162109375,-0.11505126953125,-0.99127197265625
1760107005795,1202470889,19070,10,0.166015625,-0.11529541015625,-0.99102783203125
1760107005795,1202470889,19070,11,0.161376953125,-0.11260986328125,-0.99298095703125
1760107005795,1202470889,19070,12,0.1650390625,-0.11431884765625,-0.99151611328125
1760107005795,1202470889,19070,13,0.162841796875,-0.11407470703125,-0.99200439453125
1760107005795,1202470889,19070,14,0.16455078125,-0.11285400390625,-0.99298095703125
1760107005795,1202470889,19070,15,0.16552734375,-0.11431884765625,-0.99493408203125
1760107005795,1202470889,19070,16,0.166748046875,-0.11383056640625,-0.98907470703125
1760107005795,1202470889,19070,17,0.163330078125,-0.11114501953125,-0.98590087890625
1760107005795,1202470889,19070,18,0.168212890625,-0.11285400390625,-0.99957275390625
1760107005795,1202470889,19070,19,0.163330078125,-0.11260986328125,-0.98883056640625
1760107005795,1202470889,19070,20,0.163330078125,-0.11163330078125,-0.99005126953125
1760107005795,1202470889,19070,21,0.15966796875,-0.11676025390625,-0.98370361328125
1760107005795,1202470889,19070,22,0.163330078125,-0.11383056640625,-0.99371337890625
1760107005795,1202470889,19070,23,0.165283203125,-0.11090087890625,-0.99005126953125
1760107005795,1202470889,19070,24,0.160888671875,-0.11163330078125,-0.99249267578125
1760107005795,1202470889,19070,25,0.1640625,-0.11236572265625,-0.99249267578125
1760107005795,1202470889,19070,26,0.16357421875,-0.11553955078125,-0.98907470703125
1760107005795,1202470889,19070,27,0.164306640625,-0.11529541015625,-0.99102783203125
1760107005795,1202470889,19070,28,0.162841796875,-0.11163330078125,-0.99053955078125
1760107005795,1202470889,19070,29,0.1650390625,-0.11114501953125,-0.99468994140625
1760107005795,1202470889,19070,30,0.165283203125,-0.11163330078125,-0.99005126953125
1760107005795,1202470889,19070,31,0.164306640625,-0.11236572265625,-0.98931884765625
1760107008177,1202473481,19071,0,0.16552734375,-0.11260986328125,-0.99053955078125
1760107008177,1202473481,19071,1,0.166259765625,-0.11212158203125,-0.99176025390625
1760107008177,1202473481,19071,2,0.1650390625,-0.11334228515625,-0.99151611328125
1760107008177,1202473481,19071,3,0.1650390625,-0.11212158203125,-0.98858642578125
1760107008177,1202473481,19071,4,0.1611328125,-0.11358642578125,-0.99151611328125
1760107008177,1202473481,19071,5,0.163818359375,-0.11309814453125,-0.99005126953125
1760107008177,1202473481,19071,6,0.1630859375,-0.10943603515625,-0.99298095703125
1760107008177,1202473481,19071,7,0.15673828125,-0.11114501953125,-0.98785400390625
1760107008177,1202473481,19071,8,0.159423828125,-0.11212158203125,-0.99420166015625
1760107008177,1202473481,19071,9,0.1650390625,-0.11383056640625,-0.99029541015625
1760107008177,1202473481,19071,10,0.164306640625,-0.11041259765625,-0.98956298828125
1760107008177,1202473481,19071,11,0.166259765625,-0.10943603515625,-0.99176025390625
1760107008177,1202473481,19071,12,0.159912109375,-0.11309814453125,-0.99078369140625
1760107008177,1202473481,19071,13,0.156494140625,-0.11383056640625,-0.99273681640625
1760107008177,1202473481,19071,14,0.160888671875,-0.11163330078125,-0.99371337890625
1760107008177,1202473481,19071,15,0.16259765625,-0.11163330078125,-0.99371337890625
1760107008177,1202473481,19071,16,0.1591796875,-0.11260986328125,-0.99249267578125
1760107008177,1202473481,19071,17,0.158935546875,-0.11187744140625,-0.99102783203125
1760107008177,1202473481,19071,18,0.16162109375,-0.11309814453125,-0.99029541015625
1760107008177,1202473481,19071,19,0.158203125,-0.11334228515625,-0.99249267578125
1760107008177,1202473481,19071,20,0.158447265625,-0.11285400390625,-0.99249267578125
1760107008177,1202473481,19071,21,0.16162109375,-0.11163330078125,-0.99249267578125
1760107008177,1202473481,19071,22,0.16064453125,-0.11065673828125,-0.99053955078125
1760107008177,1202473481,19071,23,0.1572265625,-0.11114501953125,-0.98883056640625
1760107008177,1202473481,19071,24,0.160400390625,-0.11114501953125,-0.99298095703125
1760107008177,1202473481,19071,25,0.1572265625,-0.11212158203125,-0.99151611328125
1760107008177,1202473481,19071,26,0.157958984375,-0.11456298828125,-0.99127197265625
1760107008177,1202473481,19071,27,0.160400390625,-0.11212158203125,-0.99346923828125
1760107008177,1202473481,19071,28,0.159912109375,-0.11114501953125,-0.99053955078125
1760107008177,1202473481,19071,29,0.161865234375,-0.11187744140625,-0.99127197265625
1760107008177,1202473481,19071,30,0.161865234375,-0.11358642578125,-0.99249267578125
1760107008177,1202473481,19071,31,0.158447265625,-0.11114501953125,-0.99273681640625
1760107010765,1202476072,19072,0,0.159912109375,-0.11138916015625,-0.99078369140625
1760107010765,1202476072,19072,1,0.162109375,-0.11407470703125,-0.99322509765625
1760107010765,1202476072,19072,2,0.161865234375,-0.11187744140625,-0.99029541015625
1760107010765,1202476072,19072,3,0.1611328125,-0.11285400390625,-0.98785400390625
1760107010765,1202476072,19072,4,0.157470703125,-0.11212158203125,-0.99249267578125
1760107010765,1202476072,19072,5,0.16064453125,-0.11236572265625,-0.99298095703125
1760107010765,1202476072,19072,6,0.158447265625,-0.11138916015625,-0.98931884765625
1760107010765,1202476072,19072,7,0.16259765625,-0.11236572265625,-0.99273681640625
1760107010765,1202476072,19072,8,0.16455078125,-0.10992431640625,-0.99176025390625
1760107010765,1202476072,19072,9,0.162109375,-0.10992431640625,-0.99029541015625
1760107010765,1202476072,19072,10,0.16357421875,-0.11309814453125,-0.98858642578125
1760107010765,1202476072,19072,11,0.166748046875,-0.11016845703125,-0.98956298828125
1760107010765,1202476072,19072,12,0.163818359375,-0.11114501953125,-0.98883056640625
1760107010765,1202476072,19072,13,0.164794921875,-0.11114501953125,-0.99151611328125
1760107010765,1202476072,19072,14,0.16552734375,-0.11236572265625,-0.99127197265625
1760107010765,1202476072,19072,15,0.164794921875,-0.11334228515625,-0.99249267578125
1760107010765,1202476072,19072,16,0.161376953125,-0.10968017578125,-0.99444580078125
1760107010765,1202476072,19072,17,0.167236328125,-0.11187744140625,-0.99298095703125
1760107010765,1202476072,19072,18,0.163818359375,-0.11334228515625,-0.98883056640625
1760107010765,1202476072,19072,19,0.1640625,-0.11236572265625,-0.98956298828125
1760107010765,1202476072,19072,20,0.163330078125,-0.11016845703125,-0.99127197265625
1760107010765,1202476072,19072,21,0.16259765625,-0.11138916015625,-0.99176025390625
1760107010765,1202476072,19072,22,0.161865234375,-0.11016845703125,-0.98956298828125
1760107010765,1202476072,19072,23,0.160888671875,-0.11016845703125,-0.99151611328125
1760107010765,1202476072,19072,24,0.16357421875,-0.11065673828125,-0.99322509765625
1760107010765,1202476072,19072,25,0.16455078125,-0.11212158203125,-0.99102783203125
1760107010765,1202476072,19072,26,0.160400390625,-0.11358642578125,-0.98931884765625
1760107010765,1202476072,19072,27,0.165771484375,-0.11358642578125,-0.99493408203125
1760107010765,1202476072,19072,28,0.163330078125,-0.10968017578125,-0.99371337890625
1760107010765,1202476072,19072,29,0.1630859375,-0.11138916015625,-0.99127197265625
1760107010765,1202476072,19072,30,0.158935546875,-0.11260986328125,-0.98834228515625
1760107010765,1202476072,19072,31,0.165771484375,-0.11065673828125,-0.99224853515625
1760107013547,1202478663,19073,0,0.1669921875,-0.11553955078125,-0.98687744140625
1760107013547,1202478663,19073,1,0.1689453125,-0.11676025390625,-0.99444580078125
1760107013547,1202478663,19073,2,0.167724609375,-0.12017822265625,-0.98980712890625
1760107013547,1202478663,19073,3,0.1669921875,-0.11627197265625,-0.99395751953125
1760107013547,1202478663,19073,4,0.161376953125,-0.11456298828125,-0.99395751953125
1760107013547,1202478663,19073,5,0.158935546875,-0.11529541015625,-0.99200439453125
1760107013547,1202478663,19073,6,0.156494140625,-0.11578369140625,-0.99127197265625
1760107013547,1202478663,19073,7,0.157470703125,-0.11334228515625,-0.99078369140625
1760107013547,1202478663,19073,8,0.162841796875,-0.11700439453125,-0.99249267578125
1760107013547,1202478663,19073,9,0.16259765625,-0.11480712890625,-0.99591064453125
1760107013547,1202478663,19073,10,0.162353515625,-0.11505126953125,-0.99322509765625
1760107013547,1202478663,19073,11,0.1591796875,-0.11285400390625,-0.98736572265625
1760107013547,1202478663,19073,12,0.16162109375,-0.11480712890625,-0.99615478515625
1760107013547,1202478663,19073,13,0.1552734375,-0.11602783203125,-0.98809814453125
1760107013547,1202478663,19073,14,0.159423828125,-0.11651611328125,-0.99102783203125
1760107013547,1202478663,19073,15,0.158447265625,-0.11700439453125,-0.99371337890625
1760107013547,1202478663,19073,16,0.15478515625,-0.11700439453125,-0.98883056640625
1760107013547,1202478663,19073,17,0.164306640625,-0.11822509765625,-0.99395751953125
1760107013547,1202478663,19073,18,0.163818359375,-0.11505126953125,-0.99371337890625
1760107013547,1202478663,19073,19,0.16162109375,-0.11480712890625,-0.99420166015625
1760107013547,1202478663,19073,20,0.162353515625,-0.11676025390625,-0.98931884765625
1760107013547,1202478663,19073,21,0.161376953125,-0.11822509765625,-0.99102783203125
1760107013547,1202478663,19073,22,0.166015625,-0.11456298828125,-0.99102783203125
1760107013547,1202478663,19073,23,0.16162109375,-0.11749267578125,-0.98931884765625
1760107013547,1202478663,19073,24,0.164306640625,-0.11480712890625,-0.99151611328125
1760107013547,1202478663,19073,25,0.16357421875,-0.11602783203125,-0.99176025390625
1760107013547,1202478663,19073,26,0.163330078125,-0.11749267578125,-0.99102783203125
1760107013547,1202478663,19073,27,0.164794921875,-0.11749267578125,-0.99468994140625
1760107013547,1202478663,19073,28,0.1650390625,-0.11676025390625,-0.98931884765625
1760107013547,1202478663,19073,29,0.16455078125,-0.11627197265625,-0.99053955078125
1760107013547,1202478663,19073,30,0.165771484375,-0.11773681640625,-0.99249267578125
1760107013547,1202478663,19073,31,0.16455078125,-0.11895751953125,-0.99468994140625
1760107015928,1202481254,19074,0,0.162841796875,-0.11846923828125,-0.99029541015625
1760107015928,1202481254,19074,1,0.162109375,-0.11651611328125,-0.98712158203125
1760107015928,1202481254,19074,2,0.163818359375,-0.11627197265625,-0.99615478515625
1760107015928,1202481254,19074,3,0.159912109375,-0.11749267578125,-0.99005126953125
1760107015928,1202481254,19074,4,0.160400390625,-0.11749267578125,-0.99200439453125
1760107015928,1202481254,19074,5,0.15576171875,-0.11822509765625,-0.99127197265625
1760107015928,1202481254,19074,6,0.16015625,-0.11383056640625,-0.98907470703125
1760107015928,1202481254,19074,7,0.1591796875,-0.11212158203125,-0.98687744140625
1760107015928,1202481254,19074,8,0.16357421875,-0.11187744140625,-0.99468994140625
1760107015928,1202481254,19074,9,0.165283203125,-0.10894775390625,-0.99151611328125
1760107015928,1202481254,19074,10,0.16162109375,-0.11090087890625,-0.99249267578125
1760107015928,1202481254,19074,11,0.166015625,-0.11212158203125,-0.99127197265625
1760107015928,1202481254,19074,12,0.166748046875,-0.11407470703125,-0.99200439453125
1760107015928,1202481254,19074,13,0.162353515625,-0.11163330078125,-0.99127197265625
1760107015928,1202481254,19074,14,0.162109375,-0.11236572265625,-0.99224853515625
1760107015928,1202481254,19074,15,0.162353515625,-0.11114501953125,-0.98809814453125
1760107015928,1202481254,19074,16,0.167236328125,-0.11090087890625,-0.99127197265625
1760107015928,1202481254,19074,17,0.166015625,-0.11236572265625,-0.99200439453125
1760107015928,1202481254,19074,18,0.164306640625,-0.11041259765625,-0.99224853515625
1760107015928,1202481254,19074,19,0.164306640625,-0.11187744140625,-0.99273681640625
1760107015928,1202481254,19074,20,0.1630859375,-0.11114501953125,-0.99176025390625
1760107015928,1202481254,19074,21,0.16357421875,-0.11138916015625,-0.99127197265625
1760107015928,1202481254,19074,22,0.1630859375,-0.11114501953125,-0.99151611328125
1760107015928,1202481254,19074,23,0.16552734375,-0.11236572265625,-0.98858642578125
1760107015928,1202481254,19074,24,0.16259765625,-0.11212158203125,-0.99053955078125
1760107015928,1202481254,19074,25,0.16162109375,-0.11114501953125,-0.99395751953125
1760107015928,1202481254,19074,26,0.159912109375,-0.11334228515625,-0.99493408203125
1760107015928,1202481254,19074,27,0.1591796875,-0.11041259765625,-0.99176025390625
1760107015928,1202481254,19074,28,0.15869140625,-0.10992431640625,-0.99102783203125
1760107015928,1202481254,19074,29,0.160888671875,-0.11065673828125,-0.99078369140625
1760107015928,1202481254,19074,30,0.16064453125,-0.11016845703125,-0.99273681640625
1760107015928,1202481254,19074,31,0.157470703125,-0.11090087890625,-0.99273681640625
1760107018516,1202483845,19075,0,0.154296875,-0.10919189453125,-0.98809814453125
1760107018516,1202483845,19075,1,0.1552734375,-0.10968017578125,-0.99078369140625
1760107018516,1202483845,19075,2,0.15966796875,-0.10968017578125,-0.99444580078125
1760107018516,1202483845,19075,3,0.157958984375,-0.10797119140625,-0.98980712890625
1760107018516,1202483845,19075,4,0.15625,-0.11090087890625,-0.99444580078125
1760107018516,1202483845,19075,5,0.15869140625,-0.11163330078125,-0.98931884765625
1760107018516,1202483845,19075,6,0.158935546875,-0.11187744140625,-0.99322509765625
1760107018516,1202483845,19075,7,0.158203125,-0.10943603515625,-0.99053955078125
1760107018516,1202483845,19075,8,0.16015625,-0.10968017578125,-0.99371337890625
1760107018516,1202483845,19075,9,0.15966796875,-0.11138916015625,-0.99102783203125
1760107018516,1202483845,19075,10,0.16064453125,-0.11138916015625,-0.99224853515625
1760107018516,1202483845,19075,11,0.1591796875,-0.11065673828125,-0.99981689453125
1760107018516,1202483845,19075,12,0.155517578125,-0.11138916015625,-0.98809814453125
1760107018516,1202483845,19075,13,0.153076171875,-0.11358642578125,-0.99029541015625
1760107018516,1202483845,19075,14,0.15625,-0.11334228515625,-0.99298095703125
1760107018516,1202483845,19075,15,0.1552734375,-0.11163330078125,-0.99566650390625
1760107018516,1202483845,19075,16,0.15673828125,-0.10968017578125,-0.99078369140625
1760107018516,1202483845,19075,17,0.16162109375,-0.11114501953125,-0.99517822265625
1760107018516,1202483845,19075,18,0.156494140625,-0.11309814453125,-0.99346923828125
1760107018516,1202483845,19075,19,0.15478515625,-0.11431884765625,-0.98980712890625
1760107018516,1202483845,19075,20,0.15283203125,-0.11407470703125,-0.98638916015625
1760107018516,1202483845,19075,21,0.15380859375,-0.11383056640625,-0.98883056640625
1760107018516,1202483845,19075,22,0.156982421875,-0.11065673828125,-0.99908447265625
1760107018516,1202483845,19075,23,0.15771484375,-0.10894775390625,-0.99395751953125
1760107018516,1202483845,19075,24,0.1572265625,-0.10919189453125,-0.99102783203125
1760107018516,1202483845,19075,25,0.16064453125,-0.10968017578125,-0.99444580078125
1760107018516,1202483845,19075,26,0.161376953125,-0.11114501953125,-0.98931884765625
1760107018516,1202483845,19075,27,0.161376953125,-0.10968017578125,-0.99249267578125
1760107018516,1202483845,19075,28,0.16064453125,-0.11260986328125,-0.99249267578125
1760107018516,1202483845,19075,29,0.164306640625,-0.10968017578125,-0.99176025390625
1760107018516,1202483845,19075,30,0.16259765625,-0.11041259765625,-0.99322509765625
1760107018516,1202483845,19075,31,0.161376953125,-0.11309814453125,-0.99029541015625
