receivedPhoneTimestamp,respeckTimestamp,packetSeqNum,sampleSeqNum,accelX,accelY,accelZ
1759337873294,525700109,7001,0,-0.231689453125,-0.96051025390625,0.18280029296875
1759337873294,525700109,7001,1,-0.160888671875,-0.97979736328125,0.19354248046875
1759337873294,525700109,7001,2,-0.1328125,-0.97882080078125,0.19598388671875
1759337873294,525700109,7001,3,-0.1416015625,-0.98687744140625,0.21844482421875
1759337873294,525700109,7001,4,-0.16357421875,-0.98199462890625,0.19427490234375
1759337873294,525700109,7001,5,-0.151611328125,-0.98175048828125,0.22430419921875
1759337873294,525700109,7001,6,-0.141357421875,-0.98443603515625,0.20574951171875
1759337873294,525700109,7001,7,-0.185791015625,-0.97174072265625,0.24017333984375
1759337873294,525700109,7001,8,-0.156982421875,-0.97857666015625,0.21575927734375
1759337873294,525700109,7001,9,-0.185302734375,-0.97906494140625,0.21429443359375
1759337873294,525700109,7001,10,-0.225830078125,-0.99127197265625,0.21527099609375
1759337873294,525700109,7001,11,-0.1826171875,-0.95660400390625,0.20916748046875
1759337873294,525700109,7001,12,-0.14013671875,-0.97027587890625,0.23236083984375
1759337873294,525700109,7001,13,-0.082275390625,-0.98590087890625,0.19940185546875
1759337873294,525700109,7001,14,-0.0654296875,-1.00762939453125,0.18304443359375
1759337873294,525700109,7001,15,-0.140869140625,-0.99005126953125,0.18743896484375
1759337873294,525700109,7001,16,-0.10791015625,-1.02667236328125,0.18426513671875
1759337873294,525700109,7001,17,-0.196533203125,-0.95050048828125,0.14080810546875
1759337873294,525700109,7001,18,0.009765625,-1.05084228515625,0.24285888671875
1759337873294,525700109,7001,19,-0.165283203125,-0.96343994140625,0.10906982421875
1759337873294,525700109,7001,20,-0.0654296875,-1.02593994140625,0.16351318359375
1759337873294,525700109,7001,21,-0.1455078125,-0.95025634765625,0.23870849609375
1759337873294,525700109,7001,22,-0.236572265625,-0.98590087890625,0.23895263671875
1759337873294,525700109,7001,23,-0.1318359375,-0.97418212890625,0.18084716796875
1759337873294,525700109,7001,24,-0.1630859375,-0.99981689453125,0.17254638671875
1759337873294,525700109,7001,25,-0.157958984375,-0.99053955078125,0.22283935546875
1759337873294,525700109,7001,26,-0.188720703125,-0.98175048828125,0.18914794921875
1759337873294,525700109,7001,27,-0.134521484375,-0.98126220703125,0.18328857421875
1759337873294,525700109,7001,28,-0.154296875,-1.00811767578125,0.16619873046875
1759337873294,525700109,7001,29,-0.162353515625,-0.96368408203125,0.21844482421875
1759337873294,525700109,7001,30,-0.14453125,-0.99127197265625,0.19378662109375
1759337873294,525700109,7001,31,-0.134033203125,-0.98419189453125,0.17620849609375
1759337875828,525702688,7002,0,-0.1474609375,-0.98614501953125,0.19183349609375
1759337875828,525702688,7002,1,-0.14501953125,-1.00811767578125,0.16888427734375
1759337875828,525702688,7002,2,-0.1552734375,-0.99127197265625,0.17279052734375
1759337875828,525702688,7002,3,-0.147216796875,-0.99395751953125,0.17742919921875
1759337875828,525702688,7002,4,-0.15478515625,-0.99737548828125,0.17376708984375
1759337875828,525702688,7002,5,-0.1611328125,-0.99029541015625,0.18450927734375
1759337875828,525702688,7002,6,-0.15185546875,-0.99395751953125,0.17181396484375
1759337875828,525702688,7002,7,-0.162353515625,-0.98638916015625,0.16912841796875
1759337875828,525702688,7002,8,-0.170654296875,-0.98345947265625,0.17205810546875
1759337875828,525702688,7002,9,-0.168212890625,-1.00933837890625,0.17669677734375
1759337875828,525702688,7002,10,-0.1552734375,-0.97686767578125,0.18133544921875
1759337875828,525702688,7002,11,-0.15576171875,-0.99346923828125,0.16839599609375
1759337875828,525702688,7002,12,-0.1533203125,-0.98980712890625,0.16571044921875
1759337875828,525702688,7002,13,-0.1611328125,-1.00543212890625,0.19989013671875
1759337875828,525702688,7002,14,-0.164794921875,-0.96417236328125,0.19940185546875
1759337875828,525702688,7002,15,-0.15234375,-1.01983642578125,0.16986083984375
1759337875828,525702688,7002,16,-0.12353515625,-0.98345947265625,0.12445068359375
1759337875828,525702688,7002,17,-0.12890625,-0.99664306640625,0.12860107421875
1759337875828,525702688,7002,18,-0.1748046875,-1.02886962890625,0.15301513671875
1759337875828,525702688,7002,19,-0.126708984375,-0.98028564453125,0.14886474609375
1759337875828,525702688,7002,20,-0.171875,-1.00958251953125,0.15130615234375
1759337875828,525702688,7002,21,-0.1513671875,-0.99078369140625,0.15521240234375
1759337875828,525702688,7002,22,-0.15087890625,-1.00885009765625,0.15423583984375
1759337875828,525702688,7002,23,-0.16064453125,-0.98858642578125,0.16351318359375
1759337875828,525702688,7002,24,-0.142578125,-1.01300048828125,0.13031005859375
1759337875828,525702688,7002,25,-0.1533203125,-0.99346923828125,0.12225341796875
1759337875828,525702688,7002,26,-0.135986328125,-1.00372314453125,0.11492919921875
1759337875828,525702688,7002,27,-0.150634765625,-1.01446533203125,0.12713623046875
1759337875828,525702688,7002,28,-0.13623046875,-1.00274658203125,0.12298583984375
1759337875828,525702688,7002,29,-0.16015625,-1.00909423828125,0.12933349609375
1759337875828,525702688,7002,30,-0.14697265625,-1.00299072265625,0.13690185546875
1759337875828,525702688,7002,31,-0.149169921875,-1.00347900390625,0.13006591796875
1759337878348,525705267,7003,0,-0.15283203125,-0.99884033203125,0.14520263671875
1759337878348,525705267,7003,1,-0.1513671875,-1.00030517578125,0.14862060546875
1759337878348,525705267,7003,2,-0.147216796875,-0.99810791015625,0.14447021484375
1759337878348,525705267,7003,3,-0.146240234375,-1.00079345703125,0.13128662109375
1759337878348,525705267,7003,4,-0.1416015625,-1.00152587890625,0.13006591796875
1759337878348,525705267,7003,5,-0.1533203125,-1.00250244140625,0.11981201171875
1759337878348,525705267,7003,6,-0.162109375,-1.00616455078125,0.13543701171875
1759337878348,525705267,7003,7,-0.146728515625,-0.99493408203125,0.14422607421875
1759337878348,525705267,7003,8,-0.1572265625,-0.99908447265625,0.14300537109375
1759337878348,525705267,7003,9,-0.153076171875,-0.98516845703125,0.14105224609375
1759337878348,525705267,7003,10,-0.156494140625,-1.01446533203125,0.13739013671875
1759337878348,525705267,7003,11,-0.168212890625,-1.00592041015625,0.12249755859375
1759337878348,525705267,7003,12,-0.134521484375,-1.01983642578125,0.11932373046875
1759337878348,525705267,7003,13,-0.14501953125,-1.00909423828125,0.10784912109375
1759337878348,525705267,7003,14,-0.14990234375,-1.00689697265625,0.12127685546875
1759337878348,525705267,7003,15,-0.091552734375,-0.98394775390625,0.11883544921875
1759337878348,525705267,7003,16,-0.1865234375,-1.06964111328125,0.12420654296875
1759337878348,525705267,7003,17,-0.0693359375,-0.96734619140625,0.12713623046875
1759337878348,525705267,7003,18,-0.177734375,-0.99444580078125,0.15765380859375
1759337878348,525705267,7003,19,-0.147216796875,-1.00811767578125,0.14544677734375
1759337878348,525705267,7003,20,-0.1435546875,-0.98565673828125,0.15936279296875
1759337878348,525705267,7003,21,-0.167724609375,-0.99420166015625,0.17547607421875
1759337878348,525705267,7003,22,-0.1513671875,-0.98883056640625,0.15936279296875
1759337878348,525705267,7003,23,-0.115478515625,-1.00201416015625,0.15325927734375
1759337878348,525705267,7003,24,-0.13134765625,-1.01275634765625,0.14056396484375
1759337878348,525705267,7003,25,-0.12353515625,-0.99688720703125,0.14886474609375
1759337878348,525705267,7003,26,-0.143310546875,-0.99835205078125,0.13348388671875
1759337878348,525705267,7003,27,-0.120849609375,-1.00128173828125,0.10760498046875
1759337878348,525705267,7003,28,-0.20654296875,-1.00982666015625,0.18865966796875
1759337878348,525705267,7003,29,-0.150634765625,-0.98077392578125,0.14959716796875
1759337878348,525705267,7003,30,-0.166748046875,-1.01080322265625,0.15277099609375
1759337878348,525705267,7003,31,-0.1650390625,-0.99127197265625,0.14715576171875
1759337881048,525707846,7004,0,-0.15625,-1.01373291015625,0.14569091796875
1759337881048,525707846,7004,1,-0.169677734375,-0.97906494140625,0.16156005859375
1759337881048,525707846,7004,2,-0.1787109375,-0.98931884765625,0.17327880859375
1759337881048,525707846,7004,3,-0.158447265625,-0.99713134765625,0.17132568359375
1759337881048,525707846,7004,4,-0.14453125,-0.99420166015625,0.14691162109375
1759337881048,525707846,7004,5,-0.151123046875,-1.00762939453125,0.15130615234375
1759337881048,525707846,7004,6,-0.141845703125,-1.00006103515625,0.13616943359375
1759337881048,525707846,7004,7,-0.16162109375,-0.99078369140625,0.15447998046875
1759337881048,525707846,7004,8,-0.1552734375,-0.99371337890625,0.14788818359375
1759337881048,525707846,7004,9,-0.1806640625,-1.00933837890625,0.15570068359375
1759337881048,525707846,7004,10,-0.158203125,-0.98468017578125,0.18280029296875
1759337881048,525707846,7004,11,-0.161376953125,-0.98468017578125,0.16204833984375
1759337881048,525707846,7004,12,-0.173095703125,-0.99346923828125,0.18597412109375
1759337881048,525707846,7004,13,-0.162109375,-0.98980712890625,0.16888427734375
1759337881048,525707846,7004,14,-0.168212890625,-0.98541259765625,0.20062255859375
1759337881048,525707846,7004,15,-0.1728515625,-0.97882080078125,0.18377685546875
1759337881048,525707846,7004,16,-0.148681640625,-0.99981689453125,0.17913818359375
1759337881048,525707846,7004,17,-0.15966796875,-1.00372314453125,0.16595458984375
1759337881048,525707846,7004,18,-0.154052734375,-0.98931884765625,0.17547607421875
1759337881048,525707846,7004,19,-0.1494140625,-0.99688720703125,0.16790771484375
1759337881048,525707846,7004,20,-0.148681640625,-0.99395751953125,0.15960693359375
1759337881048,525707846,7004,21,-0.15087890625,-0.99761962890625,0.16326904296875
1759337881048,525707846,7004,22,-0.15625,-0.99102783203125,0.16107177734375
1759337881048,525707846,7004,23,-0.132080078125,-0.99664306640625,0.13909912109375
1759337881048,525707846,7004,24,-0.173828125,-0.99591064453125,0.16497802734375
1759337881048,525707846,7004,25,-0.14990234375,-0.99371337890625,0.16961669921875
1759337881048,525707846,7004,26,-0.172119140625,-0.99517822265625,0.17010498046875
1759337881048,525707846,7004,27,-0.161376953125,-0.98394775390625,0.17596435546875
1759337881048,525707846,7004,28,-0.1416015625,-0.99810791015625,0.16448974609375
1759337881048,525707846,7004,29,-0.160888671875,-1.00372314453125,0.16888427734375
1759337881048,525707846,7004,30,-0.169677734375,-0.98883056640625,0.18157958984375
1759337881048,525707846,7004,31,-0.1650390625,-0.99029541015625,0.18206787109375
1759337883568,525710425,7005,0,-0.134765625,-0.98150634765625,0.17279052734375
1759337883568,525710425,7005,1,-0.155517578125,-1.00347900390625,0.16253662109375
1759337883568,525710425,7005,2,-0.15283203125,-0.99859619140625,0.16229248046875
1759337883568,525710425,7005,3,-0.143798828125,-1.00738525390625,0.15106201171875
1759337883568,525710425,7005,4,-0.14111328125,-1.00225830078125,0.16180419921875
1759337883568,525710425,7005,5,-0.11181640625,-0.99713134765625,0.12493896484375
1759337883568,525710425,7005,6,-0.1748046875,-1.01177978515625,0.12322998046875
1759337883568,525710425,7005,7,-0.145751953125,-1.00543212890625,0.13690185546875
1759337883568,525710425,7005,8,-0.132080078125,-0.99639892578125,0.13592529296875
1759337883568,525710425,7005,9,-0.177001953125,-0.99761962890625,0.14251708984375
1759337883568,525710425,7005,10,-0.153076171875,-1.00006103515625,0.15496826171875
1759337883568,525710425,7005,11,-0.1630859375,-0.98394775390625,0.15472412109375
1759337883568,525710425,7005,12,-0.184814453125,-1.00494384765625,0.16839599609375
1759337883568,525710425,7005,13,-0.15234375,-0.99713134765625,0.16009521484375
1759337883568,525710425,7005,14,-0.166259765625,-0.99444580078125,0.14886474609375
1759337883568,525710425,7005,15,-0.1572265625,-0.98956298828125,0.17718505859375
1759337883568,525710425,7005,16,-0.160888671875,-0.99810791015625,0.14056396484375
1759337883568,525710425,7005,17,-0.147705078125,-0.99200439453125,0.15618896484375
1759337883568,525710425,7005,18,-0.1650390625,-0.99761962890625,0.16009521484375
1759337883568,525710425,7005,19,-0.13916015625,-0.99420166015625,0.14471435546875
1759337883568,525710425,7005,20,-0.157958984375,-1.00250244140625,0.15447998046875
1759337883568,525710425,7005,21,-0.1513671875,-0.99542236328125,0.15301513671875
1759337883568,525710425,7005,22,-0.14990234375,-1.00421142578125,0.15179443359375
1759337883568,525710425,7005,23,-0.149658203125,-0.99908447265625,0.16204833984375
1759337883568,525710425,7005,24,-0.1572265625,-0.99371337890625,0.15789794921875
1759337883568,525710425,7005,25,-0.1494140625,-0.99298095703125,0.15472412109375
1759337883568,525710425,7005,26,-0.15185546875,-0.98883056640625,0.13861083984375
1759337883568,525710425,7005,27,-0.16064453125,-0.99517822265625,0.15447998046875
1759337883568,525710425,7005,28,-0.130859375,-0.99493408203125,0.14080810546875
1759337883568,525710425,7005,29,-0.142333984375,-1.01202392578125,0.13031005859375
1759337883568,525710425,7005,30,-0.151611328125,-1.00201416015625,0.15863037109375
1759337883568,525710425,7005,31,-0.137451171875,-1.00811767578125,0.15301513671875
1759337886088,525713004,7006,0,-0.146240234375,-0.99371337890625,0.15301513671875
1759337886088,525713004,7006,1,-0.14697265625,-0.99371337890625,0.18524169921875
1759337886088,525713004,7006,2,-0.1767578125,-0.98077392578125,0.18035888671875
1759337886088,525713004,7006,3,-0.15625,-0.99566650390625,0.16424560546875
1759337886088,525713004,7006,4,-0.143798828125,-0.98834228515625,0.14886474609375
1759337886088,525713004,7006,5,-0.154296875,-1.00347900390625,0.16009521484375
1759337886088,525713004,7006,6,-0.144775390625,-0.99468994140625,0.14642333984375
1759337886088,525713004,7006,7,-0.16259765625,-0.99908447265625,0.17449951171875
1759337886088,525713004,7006,8,-0.146484375,-1.00128173828125,0.14520263671875
1759337886088,525713004,7006,9,-0.140380859375,-1.00054931640625,0.14544677734375
1759337886088,525713004,7006,10,-0.1376953125,-0.99908447265625,0.14520263671875
1759337886088,525713004,7006,11,-0.1728515625,-0.99884033203125,0.13470458984375
1759337886088,525713004,7006,12,-0.14990234375,-0.99053955078125,0.14910888671875
1759337886088,525713004,7006,13,-0.138427734375,-1.03057861328125,0.16571044921875
1759337886088,525713004,7006,14,-0.18798828125,-0.94097900390625,0.19744873046875
1759337886088,525713004,7006,15,-0.178955078125,-0.99420166015625,0.16497802734375
1759337886088,525713004,7006,16,-0.14404296875,-0.99908447265625,0.15985107421875
1759337886088,525713004,7006,17,-0.15087890625,-1.01202392578125,0.17572021484375
1759337886088,525713004,7006,18,-0.164306640625,-0.98614501953125,0.17425537109375
1759337886088,525713004,7006,19,-0.17724609375,-0.98052978515625,0.18695068359375
1759337886088,525713004,7006,20,-0.13525390625,-0.99615478515625,0.14935302734375
1759337886088,525713004,7006,21,-0.160888671875,-0.99176025390625,0.17791748046875
1759337886088,525713004,7006,22,-0.145263671875,-0.99615478515625,0.16326904296875
1759337886088,525713004,7006,23,-0.15966796875,-0.99981689453125,0.17767333984375
1759337886088,525713004,7006,24,-0.135009765625,-0.99346923828125,0.14984130859375
1759337886088,525713004,7006,25,-0.15087890625,-1.00616455078125,0.15960693359375
1759337886088,525713004,7006,26,-0.135498046875,-0.99127197265625,0.15838623046875
1759337886088,525713004,7006,27,-0.13232421875,-0.98419189453125,0.14813232421875
1759337886088,525713004,7006,28,-0.14013671875,-1.01275634765625,0.13909912109375
1759337886088,525713004,7006,29,-0.14404296875,-0.99713134765625,0.15057373046875
1759337886088,525713004,7006,30,-0.122314453125,-1.01812744140625,0.11297607421875
1759337886088,525713004,7006,31,-0.14013671875,-0.99981689453125,0.14129638671875
1759337888788,525715583,7007,0,-0.138427734375,-0.98345947265625,0.15350341796875
1759337888788,525715583,7007,1,-0.1396484375,-0.99737548828125,0.13104248046875
1759337888788,525715583,7007,2,-0.154541015625,-1.01812744140625,0.15130615234375
1759337888788,525715583,7007,19,-0.149658203125,-1.03424072265625,0.18206787109375
1759337888788,525715583,7007,20,-0.149658203125,-0.94317626953125,0.21380615234375
1759337888788,525715583,7007,21,-0.138427734375,-1.01837158203125,0.19134521484375
1759337888788,525715583,7007,22,-0.158935546875,-0.96856689453125,0.18914794921875
1759337888788,525715583,7007,23,-0.1376953125,-0.99761962890625,0.16888427734375
1759337888788,525715583,7007,24,-0.15771484375,-0.99713134765625,0.21453857421875
1759337888788,525715583,7007,25,-0.1533203125,-0.95245361328125,0.22430419921875
1759337888788,525715583,7007,26,-0.15283203125,-1.00811767578125,0.17742919921875
1759337888788,525715583,7007,27,-0.148681640625,-0.98760986328125,0.18280029296875
1759337888788,525715583,7007,28,-0.160888671875,-0.98590087890625,0.18255615234375
1759337888788,525715583,7007,29,-0.122314453125,-1.00665283203125,0.16326904296875
1759337888788,525715583,7007,30,-0.156494140625,-0.98297119140625,0.18328857421875
1759337888788,525715583,7007,31,-0.14501953125,-0.99664306640625,0.17742919921875
1759337891301,525718163,7008,0,-0.148681640625,-0.99078369140625,0.16619873046875
1759337891301,525718163,7008,1,-0.146484375,-0.99615478515625,0.16156005859375
1759337891301,525718163,7008,2,-0.145751953125,-0.99249267578125,0.16937255859375
1759337891301,525718163,7008,3,-0.153564453125,-0.98687744140625,0.16937255859375
1759337891301,525718163,7008,4,-0.128173828125,-0.99957275390625,0.15155029296875
1759337891301,525718163,7008,5,-0.167724609375,-0.99420166015625,0.15667724609375
1759337891301,525718163,7008,6,-0.1533203125,-0.99859619140625,0.16693115234375
1759337891301,525718163,7008,7,-0.14111328125,-1.00030517578125,0.16961669921875
1759337891301,525718163,7008,8,-0.159423828125,-1.00299072265625,0.16717529296875
1759337891301,525718163,7008,9,-0.1572265625,-0.98638916015625,0.17767333984375
1759337891301,525718163,7008,10,-0.14794921875,-0.98419189453125,0.17791748046875
1759337891301,525718163,7008,11,-0.163330078125,-1.00299072265625,0.17449951171875
1759337891301,525718163,7008,12,-0.167236328125,-0.98126220703125,0.18988037109375
1759337891301,525718163,7008,13,-0.14453125,-0.99346923828125,0.17034912109375
1759337891301,525718163,7008,14,-0.1669921875,-0.98785400390625,0.17376708984375
1759337891301,525718163,7008,15,-0.153564453125,-0.98883056640625,0.17816162109375
1759337891301,525718163,7008,16,-0.15771484375,-0.99273681640625,0.16888427734375
1759337891301,525718163,7008,17,-0.160400390625,-1.00250244140625,0.15985107421875
1759337891301,525718163,7008,18,-0.14208984375,-0.98541259765625,0.18377685546875
1759337891301,525718163,7008,19,-0.150146484375,-1.00543212890625,0.15643310546875
1759337891301,525718163,7008,20,-0.138671875,-0.99444580078125,0.14984130859375
1759337891301,525718163,7008,21,-0.15966796875,-1.00103759765625,0.16595458984375
1759337891301,525718163,7008,22,-0.147705078125,-0.98175048828125,0.15399169921875
1759337891301,525718163,7008,23,-0.149169921875,-0.99981689453125,0.15740966796875
1759337891301,525718163,7008,24,-0.138427734375,-0.99395751953125,0.15936279296875
1759337891301,525718163,7008,25,-0.1416015625,-0.99224853515625,0.15447998046875
1759337891301,525718163,7008,26,-0.15771484375,-1.01348876953125,0.17205810546875
1759337891301,525718163,7008,27,-0.1396484375,-1.00054931640625,0.15985107421875
1759337891301,525718163,7008,28,-0.142578125,-0.99029541015625,0.16448974609375
1759337891301,525718163,7008,29,-0.146484375,-0.99664306640625,0.15130615234375
1759337891301,525718163,7008,30,-0.16796875,-1.00006103515625,0.19427490234375
1759337891301,525718163,7008,31,-0.151611328125,-0.99102783203125,0.17156982421875
1759337893820,525720742,7009,0,-0.1689453125,-0.98370361328125,0.18646240234375
1759337893820,525720742,7009,1,-0.146240234375,-0.99493408203125,0.17108154296875
1759337893820,525720742,7009,2,-0.146240234375,-0.99200439453125,0.17010498046875
1759337893820,525720742,7009,3,-0.15380859375,-0.99273681640625,0.17279052734375
1759337893820,525720742,7009,4,-0.16064453125,-0.99029541015625,0.17889404296875
1759337893820,525720742,7009,5,-0.153564453125,-0.99932861328125,0.16912841796875
1759337893820,525720742,7009,6,-0.127685546875,-1.00274658203125,0.15545654296875
1759337893820,525720742,7009,7,-0.154296875,-0.99884033203125,0.16400146484375
1759337893820,525720742,7009,8,-0.16064453125,-1.01153564453125,0.17279052734375
1759337893820,525720742,7009,9,-0.139892578125,-0.97442626953125,0.16326904296875
1759337893820,525720742,7009,10,-0.130859375,-0.98419189453125,0.17425537109375
1759337893820,525720742,7009,11,-0.146240234375,-0.98931884765625,0.15301513671875
1759337893820,525720742,7009,12,-0.147216796875,-1.00885009765625,0.16400146484375
1759337893820,525720742,7009,13,-0.170654296875,-0.99127197265625,0.17840576171875
1759337893820,525720742,7009,14,-0.1240234375,-1.00811767578125,0.14276123046875
1759337893820,525720742,7009,15,-0.1552734375,-0.98516845703125,0.16351318359375
1759337893820,525720742,7009,16,-0.116455078125,-1.00567626953125,0.16668701171875
1759337893820,525720742,7009,17,-0.164794921875,-1.01593017578125,0.13836669921875
1759337893820,525720742,7009,18,-0.1650390625,-0.98126220703125,0.17742919921875
1759337893820,525720742,7009,19,-0.12060546875,-1.00079345703125,0.17059326171875
1759337893820,525720742,7009,20,-0.157470703125,-0.97344970703125,0.19305419921875
1759337893820,525720742,7009,21,-0.1435546875,-1.00299072265625,0.16912841796875
1759337893820,525720742,7009,22,-0.15625,-0.98345947265625,0.18841552734375
1759337893820,525720742,7009,23,-0.159423828125,-0.99884033203125,0.17449951171875
1759337893820,525720742,7009,24,-0.154296875,-0.98516845703125,0.17498779296875
1759337893820,525720742,7009,25,-0.1669921875,-0.99078369140625,0.17694091796875
1759337893820,525720742,7009,26,-0.1640625,-0.98370361328125,0.19232177734375
1759337893820,525720742,7009,27,-0.146240234375,-1.00225830078125,0.16741943359375
1759337893820,525720742,7009,28,-0.160888671875,-0.98931884765625,0.15765380859375
1759337893820,525720742,7009,29,-0.166015625,-1.00933837890625,0.15423583984375
1759337893820,525720742,7009,30,-0.145263671875,-0.97979736328125,0.15130615234375
1759337893820,525720742,7009,31,-0.154296875,-1.00152587890625,0.15252685546875
1759337896528,525723321,7010,0,-0.138671875,-0.98663330078125,0.14837646484375
1759337896528,525723321,7010,1,-0.176513671875,-1.03228759765625,0.16180419921875
1759337896528,525723321,7010,2,-0.13623046875,-0.97125244140625,0.16546630859375
1759337896528,525723321,7010,3,-0.161376953125,-0.99346923828125,0.17572021484375
1759337896528,525723321,7010,4,-0.12939453125,-0.98565673828125,0.13934326171875
1759337896528,525723321,7010,5,-0.166259765625,-1.01177978515625,0.16058349609375
1759337896528,525723321,7010,6,-0.144287109375,-0.99102783203125,0.16229248046875
1759337896528,525723321,7010,7,-0.152099609375,-0.99981689453125,0.17205810546875
1759337896528,525723321,7010,8,-0.162841796875,-0.98590087890625,0.17279052734375
1759337896528,525723321,7010,9,-0.144287109375,-0.99884033203125,0.17205810546875
1759337896528,525723321,7010,10,-0.1591796875,-0.98760986328125,0.18109130859375
1759337896528,525723321,7010,11,-0.1591796875,-1.00299072265625,0.16131591796875
1759337896528,525723321,7010,12,-0.15771484375,-0.98736572265625,0.15960693359375
1759337896528,525723321,7010,13,-0.14599609375,-0.99517822265625,0.14666748046875
1759337896528,525723321,7010,14,-0.122314453125,-1.00762939453125,0.17034912109375
1759337896528,525723321,7010,15,-0.165283203125,-0.98541259765625,0.16156005859375
1759337896528,525723321,7010,16,-0.13330078125,-1.00616455078125,0.14520263671875
1759337896528,525723321,7010,17,-0.112060546875,-0.98712158203125,0.13739013671875
1759337896528,525723321,7010,18,-0.169921875,-1.02105712890625,0.16668701171875
1759337896528,525723321,7010,19,-0.1171875,-0.98956298828125,0.13250732421875
1759337896528,525723321,7010,20,-0.14208984375,-0.99298095703125,0.15838623046875
1759337896528,525723321,7010,21,-0.138916015625,-1.01202392578125,0.14837646484375
1759337899048,525725900,7011,6,-0.1435546875,-0.99346923828125,0.14691162109375
1759337899048,525725900,7011,7,-0.128173828125,-0.98175048828125,0.13763427734375
1759337899048,525725900,7011,8,-0.150634765625,-1.02349853515625,0.16082763671875
1759337899048,525725900,7011,9,-0.168701171875,-0.99273681640625,0.15667724609375
1759337899048,525725900,7011,10,-0.1376953125,-0.99273681640625,0.13641357421875
1759337899048,525725900,7011,11,-0.170654296875,-0.98394775390625,0.17449951171875
1759337899048,525725900,7011,12,-0.15673828125,-0.98590087890625,0.15765380859375
1759337899048,525725900,7011,13,-0.14892578125,-1.01763916015625,0.17205810546875
1759337899048,525725900,7011,14,-0.161376953125,-0.98272705078125,0.18255615234375
1759337899048,525725900,7011,15,-0.158447265625,-1.00494384765625,0.14837646484375
1759337899048,525725900,7011,16,-0.160888671875,-0.97003173828125,0.18450927734375
1759337899048,525725900,7011,17,-0.16357421875,-0.98028564453125,0.16302490234375
1759337899048,525725900,7011,18,-0.148193359375,-1.03204345703125,0.15081787109375
1759337899048,525725900,7011,19,-0.1533203125,-0.97222900390625,0.15081787109375
1759337899048,525725900,7011,20,-0.148193359375,-1.05059814453125,0.15057373046875
1759337899048,525725900,7011,21,-0.1689453125,-0.96051025390625,0.10638427734375
1759337899048,525725900,7011,22,-0.118408203125,-1.03375244140625,0.11346435546875
1759337899048,525725900,7011,23,-0.124755859375,-0.98638916015625,0.11883544921875
1759337899048,525725900,7011,24,-0.10986328125,-0.98931884765625,0.14764404296875
1759337899048,525725900,7011,25,-0.147705078125,-0.99932861328125,0.13006591796875
1759337899048,525725900,7011,26,-0.122802734375,-0.99249267578125,0.14447021484375
1759337899048,525725900,7011,27,-0.132568359375,-1.02276611328125,0.11102294921875
1759337899048,525725900,7011,28,-0.128662109375,-1.01422119140625,0.11663818359375
1759337899048,525725900,7011,29,-0.1455078125,-1.01129150390625,0.12518310546875
1759337899048,525725900,7011,30,-0.143310546875,-1.01812744140625,0.12225341796875
1759337899048,525725900,7011,31,-0.153076171875,-1.00543212890625,0.14715576171875
1759337901569,525728479,7012,0,-0.15087890625,-0.98736572265625,0.12371826171875
1759337901569,525728479,7012,1,-0.153564453125,-1.00079345703125,0.13787841796875
1759337901569,525728479,7012,2,-0.18212890625,-1.01715087890625,0.14227294921875
1759337901569,525728479,7012,3,-0.153076171875,-0.97686767578125,0.15106201171875
1759337901569,525728479,7012,4,-0.1484375,-0.98345947265625,0.17059326171875
1759337901569,525728479,7012,5,-0.17138671875,-1.00616455078125,0.15325927734375
1759337901569,525728479,7012,6,-0.13330078125,-0.99542236328125,0.14617919921875
1759337901569,525728479,7012,7,-0.150390625,-0.99200439453125,0.15814208984375
1759337901569,525728479,7012,8,-0.143798828125,-0.99786376953125,0.15887451171875
1759337901569,525728479,7012,9,-0.144775390625,-1.00665283203125,0.14935302734375
1759337901569,525728479,7012,10,-0.13671875,-0.99957275390625,0.14129638671875
1759337901569,525728479,7012,11,-0.15478515625,-0.99957275390625,0.15716552734375
1759337901569,525728479,7012,12,-0.1396484375,-1.00128173828125,0.14398193359375
1759337901569,525728479,7012,13,-0.1552734375,-1.00054931640625,0.15130615234375
1759337901569,525728479,7012,14,-0.149169921875,-0.99078369140625,0.14569091796875
1759337901569,525728479,7012,15,-0.1650390625,-0.99859619140625,0.14788818359375
1759337901569,525728479,7012,16,-0.119873046875,-0.99078369140625,0.13861083984375
1759337901569,525728479,7012,17,-0.186279296875,-1.00567626953125,0.15570068359375
1759337901569,525728479,7012,18,-0.152587890625,-0.99664306640625,0.15496826171875
1759337901569,525728479,7012,19,-0.14208984375,-0.98956298828125,0.13421630859375
1759337901569,525728479,7012,20,-0.165283203125,-1.00567626953125,0.16815185546875
1759337901569,525728479,7012,21,-0.169677734375,-0.98956298828125,0.15301513671875
1759337901569,525728479,7012,22,-0.156494140625,-0.98956298828125,0.16375732421875
1759337901569,525728479,7012,23,-0.164794921875,-0.99444580078125,0.16961669921875
1759337901569,525728479,7012,24,-0.162353515625,-0.99639892578125,0.16766357421875
1759337901569,525728479,7012,25,-0.168212890625,-0.99835205078125,0.17694091796875
1759337901569,525728479,7012,26,-0.17138671875,-0.97760009765625,0.16644287109375
1759337901569,525728479,7012,27,-0.16357421875,-1.01080322265625,0.15960693359375
1759337901569,525728479,7012,28,-0.154296875,-0.98834228515625,0.16473388671875
1759337901569,525728479,7012,29,-0.16455078125,-0.99127197265625,0.16937255859375
1759337901569,525728479,7012,30,-0.1572265625,-0.98785400390625,0.15618896484375
1759337901569,525728479,7012,31,-0.15283203125,-1.00103759765625,0.16351318359375
1759337904272,525731058,7013,0,-0.12890625,-0.99957275390625,0.15936279296875
1759337904272,525731058,7013,1,-0.1494140625,-0.99493408203125,0.15594482421875
1759337904272,525731058,7013,2,-0.138671875,-1.01470947265625,0.13641357421875
1759337904272,525731058,7013,3,-0.150146484375,-0.98370361328125,0.19183349609375
1759337904272,525731058,7013,4,-0.1357421875,-0.98907470703125,0.15472412109375
1759337904272,525731058,7013,5,-0.14013671875,-1.00762939453125,0.15643310546875
1759337904272,525731058,7013,6,-0.147216796875,-0.99542236328125,0.15765380859375
1759337904272,525731058,7013,7,-0.123291015625,-1.00103759765625,0.13983154296875
1759337904272,525731058,7013,8,-0.122802734375,-1.00885009765625,0.12811279296875
1759337904272,525731058,7013,9,-0.159912109375,-1.00787353515625,0.12298583984375
1759337904272,525731058,7013,10,-0.09423828125,-0.99517822265625,0.04827880859375
1759337904272,525731058,7013,11,-0.197998046875,-1.03936767578125,0.21942138671875
1759337904272,525731058,7013,12,-0.164794921875,-0.95391845703125,0.16815185546875
1759337904272,525731058,7013,13,-0.1435546875,-1.01104736328125,0.13372802734375
1759337904272,525731058,7013,14,-0.140625,-1.00543212890625,0.14910888671875
1759337904272,525731058,7013,15,-0.15478515625,-1.00250244140625,0.15545654296875
1759337904272,525731058,7013,16,-0.11181640625,-1.00079345703125,0.14642333984375
1759337904272,525731058,7013,17,-0.16357421875,-0.99737548828125,0.17034912109375
1759337904272,525731058,7013,18,-0.147216796875,-0.98272705078125,0.16302490234375
1759337904272,525731058,7013,19,-0.13525390625,-1.00543212890625,0.19793701171875
1759337904272,525731058,7013,20,-0.167724609375,-0.99200439453125,0.14520263671875
1759337904272,525731058,7013,21,-0.14599609375,-0.99005126953125,0.15350341796875
1759337904272,525731058,7013,22,-0.176025390625,-0.98663330078125,0.17913818359375
1759337904272,525731058,7013,23,-0.134765625,-0.99859619140625,0.16546630859375
1759337904272,525731058,7013,24,-0.132568359375,-1.00225830078125,0.14227294921875
1759337904272,525731058,7013,25,-0.1494140625,-0.97784423828125,0.17205810546875
1759337904272,525731058,7013,26,-0.126953125,-1.02593994140625,0.14544677734375
1759337904272,525731058,7013,27,-0.1435546875,-0.99127197265625,0.11468505859375
1759337904272,525731058,7013,28,-0.141357421875,-1.00054931640625,0.12713623046875
1759337904272,525731058,7013,29,-0.126708984375,-0.99981689453125,0.12103271484375
1759337904272,525731058,7013,30,-0.132568359375,-1.04229736328125,0.11981201171875
1759337904272,525731058,7013,31,-0.21875,-0.96441650390625,0.21942138671875
